timestamp_ns,time_ms,voltage_left,current_left_ma,voltage_right,current_right_ma,motor_current_left,motor_current_right,euler_x,euler_y,euler_z,acc_lin_x,acc_lin_y,acc_lin_z,gyro_x,gyro_y,gyro_z,sonar_mm,tof_mm,rpm_left,rpm_right,rotations_left,rotations_right
1776451736930323164,1895,0.096,0.1,0.072,0.3,-0.04,0.0,0.06,-3.44,4.13,0.01,0.01,-0.33,-0.06,0.12,0.0,165.84,200.0,0.0,0.0,0.0,0.0
1776451737028626108,1994,0.092,-0.1,0.0,1.2,-0.18,-0.18,0.06,-3.44,4.13,0.03,-0.0,-0.36,0.06,0.06,0.06,165.67,195.0,0.0,0.0,0.0,0.0
1776451737131025164,2094,0.096,0.4,0.0,1.2,0.06,-0.04,0.06,-3.44,4.13,0.04,-0.0,-0.37,-0.0,-0.0,0.0,165.67,195.0,0.0,0.0,0.0,0.0
1776451737229324016,2194,0.0,0.1,0.0,1.5,0.0,0.0,0.06,-3.44,4.13,0.02,0.01,-0.35,0.06,-0.0,0.0,165.67,200.0,0.0,0.0,0.0,0.0
1776451737327638293,2293,0.088,0.1,0.0,1.6,0.14,-0.1,0.06,-3.44,4.13,0.0,0.03,-0.39,-0.0,-0.0,-0.19,165.15,198.0,0.0,0.0,0.0,0.0
1776451737430092108,2393,0.096,0.2,0.0,1.5,-0.1,0.02,0.06,-3.44,4.13,0.03,0.02,-0.36,-0.06,0.06,0.12,165.15,198.0,0.0,0.0,0.0,0.0
1776451737528390867,2493,0.088,0.0,0.0,1.6,-0.14,0.06,0.06,-3.44,4.13,0.05,0.01,-0.35,0.06,0.06,-0.06,166.36,204.0,0.0,0.0,0.0,0.0
1776451737626707201,2593,0.092,0.1,0.0,1.6,0.08,-0.06,0.06,-3.44,4.13,0.03,0.01,-0.36,-0.0,0.19,0.0,165.84,198.0,0.0,0.0,0.0,0.0
1776451737729087071,2693,0.0,0.1,0.0,0.9,0.16,-0.18,0.06,-3.44,4.13,0.02,0.02,-0.36,-0.0,0.06,0.0,165.84,198.0,0.0,0.0,0.0,0.0
1776451737827386849,2793,0.0,0.6,0.0,1.5,0.04,0.08,0.06,-3.44,4.13,0.04,-0.0,-0.34,-0.06,-0.0,0.06,165.67,192.0,0.0,0.0,0.0,0.0
1776451737929796200,2893,0.092,0.1,0.0,1.5,0.08,-0.02,0.06,-3.44,4.13,0.04,0.03,-0.35,-0.0,0.19,0.06,161.55,206.0,0.0,0.0,0.0,0.0
1776451738028091737,2993,0.092,0.2,0.0,1.6,-0.06,-0.14,0.06,-3.44,4.13,0.03,0.01,-0.37,-0.19,0.25,0.06,165.67,206.0,0.0,0.0,0.0,0.0
1776451738130491200,3094,0.096,-0.1,0.0,0.7,0.02,-0.04,0.06,-3.44,4.13,0.04,0.03,-0.34,0.06,-0.12,-0.12,165.84,196.0,0.0,0.0,0.0,0.0
1776451738228748126,3194,0.0,0.3,0.0,0.9,0.06,-0.18,0.06,-3.44,4.13,0.03,0.03,-0.37,-0.12,-0.0,0.0,165.84,196.0,0.0,0.0,0.0,0.0
1776451738331157959,3294,0.088,0.2,0.0,0.5,0.12,-0.12,0.06,-3.44,4.13,0.01,0.03,-0.35,-0.06,-0.06,0.0,161.55,190.0,0.0,0.0,0.0,0.0
1776451738429466645,3394,0.0,0.4,0.0,0.6,0.06,0.0,0.06,-3.44,4.13,0.03,0.01,-0.35,-0.06,-0.0,0.12,165.67,191.0,0.0,0.0,0.0,0.0
1776451738531913552,3494,0.0,1.2,0.0,1.1,0.08,-0.12,0.06,-3.44,4.13,0.03,0.03,-0.35,0.06,-0.0,0.12,165.67,191.0,0.0,0.0,0.0,0.0
1776451738630178922,3595,0.096,0.7,0.06,1.1,0.02,0.02,0.06,-3.44,4.13,0.02,0.03,-0.33,-0.0,-0.12,-0.06,165.67,212.0,0.0,0.0,0.0,0.0
1776451738732568533,3695,0.092,0.1,0.0,1.7,0.06,-0.06,0.06,-3.44,4.13,0.01,0.01,-0.34,-0.0,-0.12,-0.06,165.84,193.0,0.0,0.0,0.0,0.0
1776451738830869589,3795,0.096,0.1,0.0,1.1,-0.02,-0.1,0.06,-3.44,4.13,0.02,0.03,-0.36,-0.0,-0.0,0.06,165.67,193.0,0.0,0.0,0.0,0.0
1776451738933281663,3895,0.0,1.2,0.0,0.2,0.06,-0.12,0.06,-3.44,4.13,0.02,0.02,-0.33,-0.06,-0.0,0.06,165.67,172.0,0.0,0.0,0.0,0.0
1776451739189627144,3995,0.0,0.9,0.064,0.2,-0.04,-0.12,0.06,-3.44,4.13,0.05,0.02,-0.34,-0.06,0.06,0.06,166.36,172.0,0.0,0.0,0.0,0.0
1776451739232273422,4094,0.108,0.1,0.0,0.4,-0.02,0.02,0.06,-3.44,4.13,0.02,0.02,-0.37,0.06,-0.19,0.0,165.67,181.0,0.0,0.0,0.0,0.0
1776451739240627218,4195,0.0,1.4,0.072,0.5,0.12,0.0,0.06,-3.44,4.13,0.03,0.02,-0.35,0.06,-0.0,0.06,165.67,194.0,0.0,0.0,0.0,0.0
1776451739330527570,4295,0.0,1.3,0.076,0.1,0.02,-0.04,0.06,-3.44,4.13,0.02,-0.0,-0.34,-0.06,-0.0,0.0,165.84,194.0,0.0,0.0,0.0,0.0
1776451739432924885,4396,0.0,1.2,0.068,0.3,0.1,0.0,0.06,-3.44,4.13,0.04,0.01,-0.34,0.06,0.12,0.0,166.18,194.0,0.0,0.0,0.0,0.0
1776451739531271866,4496,0.0,1.4,0.068,0.6,0.0,-0.06,0.06,-3.44,4.13,0.04,-0.0,-0.33,-0.06,-0.12,0.0,166.36,187.0,0.0,0.0,0.0,0.0
1776451739633660107,4596,0.0,1.2,0.0,1.1,0.04,-0.14,0.06,-3.44,4.13,0.04,0.01,-0.33,-0.06,-0.12,0.06,165.67,187.0,0.0,0.0,0.0,0.0
1776451739731959440,4696,0.1,0.4,0.0,1.1,-0.06,-0.02,0.06,-3.44,4.13,0.02,0.02,-0.34,-0.06,-0.0,0.12,165.84,202.0,0.0,0.0,0.0,0.0
1776451739834350847,4796,0.088,0.4,0.068,0.3,0.16,-0.08,0.06,-3.44,4.13,0.03,0.02,-0.33,-0.0,0.06,-0.06,166.36,210.0,0.0,0.0,0.0,0.0
1776451739932664607,4896,0.092,0.5,0.0,1.7,0.14,-0.16,0.06,-3.44,4.13,0.02,0.01,-0.36,-0.06,0.12,0.12,166.36,210.0,0.0,0.0,0.0,0.0
1776451740035062347,4996,0.0,1.3,0.068,0.3,0.12,-0.08,0.06,-3.44,4.13,0.02,-0.0,-0.34,-0.06,-0.0,0.12,166.36,198.0,0.0,0.0,0.0,0.0
1776451740313602458,5097,0.0,1.2,0.06,0.6,-0.02,-0.18,0.06,-3.44,4.13,0.03,0.01,-0.34,-0.12,-0.12,0.0,165.67,197.0,0.0,0.0,0.0,0.0
1776451740334029829,5196,0.0,1.3,0.076,0.3,0.04,-0.02,0.06,-3.44,4.13,0.03,0.01,-0.34,-0.0,-0.06,0.0,165.67,197.0,0.0,0.0,0.0,0.0
1776451740342395069,5296,0.0,-0.1,0.0,1.2,0.12,0.0,0.06,-3.44,4.13,0.05,0.02,-0.34,-0.0,-0.12,-0.06,161.55,197.0,0.0,0.0,0.0,0.0
1776451740432334106,5396,0.088,0.0,0.068,0.5,0.02,-0.02,0.06,-3.44,4.13,0.01,-0.0,-0.35,-0.0,-0.0,0.0,161.55,197.0,0.0,0.0,0.0,0.0
1776451740534751866,5496,0.0,0.6,0.0,1.6,0.23,-0.08,0.06,-3.44,4.13,0.03,-0.0,-0.35,-0.0,0.06,0.0,165.67,193.0,0.0,0.0,0.0,0.0
1776451740633048032,5597,0.088,0.2,0.0,0.0,0.06,-0.08,0.06,-3.44,4.13,0.0,0.01,-0.35,0.06,0.12,0.0,165.84,190.0,0.0,0.0,0.0,0.0
1776451740735463476,5697,0.0,1.0,0.0,1.6,0.2,-0.04,0.06,-3.44,4.13,0.02,-0.0,-0.37,-0.06,-0.06,-0.06,165.67,190.0,0.0,0.0,0.0,0.0
1776451740833745347,5797,0.088,0.2,0.0,1.3,0.02,-0.18,0.06,-3.44,4.13,0.03,-0.0,-0.35,0.12,0.06,0.06,165.84,199.0,0.0,0.0,0.0,0.0
1776451740936147606,5897,0.092,0.2,0.0,1.5,0.02,-0.14,0.06,-3.44,4.13,0.03,-0.0,-0.34,-0.0,-0.0,0.06,165.84,186.0,0.0,0.0,0.0,0.0
1776451741034447476,5997,0.088,0.1,0.0,1.6,0.06,-0.08,0.06,-3.44,4.13,0.01,0.01,-0.35,0.06,-0.0,0.12,165.15,186.0,0.0,0.0,0.0,0.0
1776451741132766291,6096,0.092,0.1,0.0,1.2,-0.02,-0.04,0.06,-3.44,4.13,0.02,0.02,-0.38,0.06,0.19,-0.06,165.15,211.0,0.0,0.0,0.0,0.0
1776451741235138921,6196,0.0,0.4,0.0,1.2,0.08,-0.08,0.06,-3.44,4.13,0.01,0.02,-0.37,-0.0,-0.0,-0.12,165.15,189.0,0.0,0.0,0.0,0.0
1776451741333411698,6296,0.0,0.3,0.0,1.3,-0.04,0.04,0.06,-3.44,4.13,0.02,0.03,-0.34,-0.0,-0.06,0.0,165.67,189.0,0.0,0.0,0.0,0.0
1776451741431707050,6395,0.012,0.2,0.0,1.2,0.02,0.06,0.06,-3.44,4.13,0.02,-0.0,-0.35,-0.06,-0.06,0.0,165.67,196.0,0.0,0.0,0.0,0.0
1776451741534141828,6496,0.096,0.6,0.056,0.4,-0.02,-0.08,0.06,-3.44,4.13,0.0,-0.0,-0.36,-0.0,-0.25,0.0,165.67,196.0,0.0,0.0,0.0,0.0
1776451741632521328,6596,0.0,0.5,0.06,0.5,0.12,-0.16,0.06,-3.44,4.13,0.0,-0.0,-0.35,-0.0,0.06,-0.06,165.84,191.0,0.0,0.0,0.0,0.0
1776451741734835550,6695,0.0,0.7,0.06,0.4,0.12,-0.08,0.06,-3.44,4.13,0.03,0.01,-0.35,-0.06,-0.06,-0.06,167.38,203.0,0.0,0.0,0.0,0.0
1776451742025627087,6796,0.0,1.0,0.0,1.6,0.02,-0.1,0.06,-3.44,4.13,0.03,0.01,-0.33,-0.0,-0.06,0.06,165.84,203.0,0.0,0.0,0.0,0.0
1776451742038300346,6896,0.092,0.1,0.0,1.6,0.06,-0.02,0.06,-3.44,4.13,0.01,-0.0,-0.33,-0.12,-0.12,0.0,165.84,197.0,0.0,0.0,0.0,0.0
1776451742051511013,6995,0.096,0.0,0.072,0.7,0.08,-0.14,0.06,-3.44,4.13,0.02,0.01,-0.37,-0.0,-0.0,-0.12,166.87,192.0,0.0,0.0,0.0,0.0
1776451742136224772,7096,0.088,0.2,0.0,1.3,-0.04,-0.06,0.06,-3.44,4.13,0.02,0.02,-0.37,-0.0,0.25,0.06,165.84,192.0,0.0,0.0,0.0,0.0
1776451742234602790,7196,0.096,0.2,0.0,1.4,0.06,0.0,0.06,-3.44,4.13,0.02,-0.0,-0.37,-0.0,0.12,0.06,165.84,217.0,0.0,0.0,0.0,0.0
1776451742336911364,7296,0.092,0.3,0.0,1.3,0.12,0.04,0.06,-3.44,4.13,0.05,-0.0,-0.37,-0.0,0.06,0.06,165.84,210.0,0.0,0.0,0.0,0.0
1776451742435218383,7397,0.088,0.9,0.068,0.2,0.08,-0.08,0.06,-3.44,4.13,0.02,0.02,-0.35,-0.0,-0.0,0.0,165.84,210.0,0.0,0.0,0.0,0.0
1776451742537623864,7497,0.0,1.1,0.06,0.4,0.02,-0.23,0.06,-3.44,4.13,0.03,0.01,-0.35,0.19,-0.06,0.0,165.84,205.0,0.0,0.0,0.0,0.0
1776451742635922216,7597,0.096,0.1,0.0,1.7,0.02,-0.06,0.06,-3.44,4.13,0.02,-0.0,-0.36,0.06,-0.0,0.0,165.67,205.0,0.0,0.0,0.0,0.0
1776451742744307364,7698,0.088,0.3,0.0,1.5,0.08,-0.06,0.06,-3.44,4.13,0.01,0.01,-0.37,-0.0,0.06,0.12,165.84,203.0,0.0,0.0,0.0,0.0
1776451742836658457,7797,0.0,1.2,0.068,0.6,-0.08,0.06,0.06,-3.44,4.13,0.04,0.02,-0.36,0.06,-0.06,-0.06,165.84,196.0,0.0,0.0,0.0,0.0
1776451742934915383,7897,0.0,1.2,0.064,0.3,-0.02,-0.06,0.06,-3.44,4.13,0.04,0.01,-0.37,-0.0,-0.06,0.06,166.36,196.0,0.0,0.0,0.0,0.0
1776451743037309438,7997,0.088,0.2,0.0,0.8,-0.14,-0.1,0.06,-3.44,4.13,0.04,0.03,-0.37,-0.0,-0.06,0.0,166.36,188.0,0.0,0.0,0.0,0.0
1776451743135608975,8096,0.0,0.3,0.0,1.6,0.04,0.04,0.06,-3.44,4.13,0.03,0.01,-0.38,0.06,-0.0,0.0,166.36,191.0,0.0,0.0,0.0,0.0
1776451743238000975,8197,0.088,0.1,0.0,1.6,-0.04,0.0,0.06,-3.44,4.13,0.02,0.02,-0.38,-0.12,-0.06,-0.06,166.36,191.0,0.0,0.0,0.0,0.0
1776451743361621845,8298,0.092,1.2,0.076,0.2,0.02,0.0,0.06,-3.44,4.13,0.04,0.01,-0.36,-0.06,-0.0,0.0,166.36,213.0,0.0,0.0,0.0,0.0
1776451743444720901,8397,0.0,1.4,0.064,0.4,0.04,-0.06,0.06,-3.44,4.13,0.04,0.02,-0.38,-0.0,-0.06,0.0,166.36,197.0,0.0,0.0,0.0,0.0
1776451743537014716,8498,0.0,1.2,0.06,0.2,-0.06,-0.06,0.06,-3.44,4.13,0.01,0.02,-0.37,-0.06,0.12,0.0,166.36,197.0,0.0,0.0,0.0,0.0
1776451743635301678,8598,0.092,0.4,0.0,1.7,0.1,-0.18,0.06,-3.44,4.13,0.03,0.01,-0.34,-0.12,0.06,-0.06,166.18,177.0,0.0,0.0,0.0,0.0
1776451743737698271,8697,0.092,-0.2,0.068,0.2,0.0,-0.18,0.06,-3.44,4.13,0.02,0.01,-0.36,-0.12,-0.0,0.0,166.36,177.0,0.0,0.0,0.0,0.0
1776451743836011734,8797,0.0,1.2,0.084,0.6,-0.04,0.02,0.06,-3.44,4.13,0.05,0.02,-0.36,-0.0,0.06,-0.06,166.36,199.0,0.0,0.0,0.0,0.0
1776451743938411715,8897,0.0,1.3,0.072,0.2,0.02,0.0,0.06,-3.44,4.13,0.05,-0.0,-0.37,0.06,-0.06,0.06,167.04,186.0,0.0,0.0,0.0,0.0
1776451744036711567,8997,0.0,0.9,0.06,0.5,-0.02,0.0,0.06,-3.44,4.13,0.0,0.02,-0.36,-0.0,-0.12,0.06,166.36,186.0,0.0,0.0,0.0,0.0
1776451744139109086,9098,0.0,0.7,0.064,0.5,0.21,-0.16,0.06,-3.44,4.13,0.05,0.01,-0.37,-0.0,-0.06,0.0,167.38,196.0,0.0,0.0,0.0,0.0
1776451744237370697,9199,0.096,0.2,0.072,0.5,-0.04,-0.04,0.06,-3.44,4.13,0.02,0.02,-0.37,0.06,-0.06,0.0,166.36,193.0,0.0,0.0,0.0,0.0
1776451744335635660,9298,0.0,1.2,0.0,0.6,-0.08,-0.16,0.06,-3.44,4.13,0.01,0.02,-0.37,-0.0,-0.06,0.06,166.18,193.0,0.0,0.0,0.0,0.0
1776451744438098678,9398,0.096,0.0,0.0,1.5,-0.02,-0.1,0.06,-3.44,4.13,0.03,0.01,-0.35,-0.06,-0.19,-0.06,166.36,206.0,0.0,0.0,0.0,0.0
1776451744536370048,9498,0.096,0.2,0.0,1.5,0.06,-0.06,0.06,-3.44,4.13,0.02,0.02,-0.37,-0.0,0.06,0.06,166.36,184.0,0.0,0.0,0.0,0.0
1776451744638803770,9598,0.092,-0.1,0.0,1.4,0.04,-0.16,0.06,-3.44,4.13,0.02,0.02,-0.34,-0.0,-0.0,-0.06,166.18,184.0,0.0,0.0,0.0,0.0
1776451744817614511,9698,0.0,1.3,0.08,1.3,0.23,0.02,0.06,-3.44,4.13,0.03,-0.0,-0.36,-0.12,0.19,-0.06,166.36,192.0,0.0,0.0,0.0,0.0
1776451744839494678,9798,0.088,0.3,0.0,1.0,0.2,-0.04,0.06,-3.44,4.13,0.01,-0.0,-0.39,-0.06,0.06,0.06,162.24,196.0,0.0,0.0,0.0,0.0
1776451744937785122,9897,0.084,0.8,0.072,0.6,-0.04,-0.04,0.06,-3.44,4.13,0.03,0.02,-0.36,-0.06,0.06,0.06,166.36,196.0,0.0,0.0,0.0,0.0
1776451745046228807,9997,0.0,1.0,0.0,1.6,-0.1,-0.02,0.06,-3.44,4.13,0.04,0.02,-0.38,-0.0,-0.06,0.0,166.36,201.0,0.0,0.0,0.0,0.0
1776451745138531900,10097,0.0,1.2,0.068,0.3,0.02,-0.14,0.06,-3.44,4.13,0.04,-0.0,-0.36,0.06,-0.12,0.06,166.36,201.0,0.0,0.0,0.0,0.0
1776451745236742122,10198,0.0,1.4,0.0,1.0,0.0,-0.14,0.06,-3.44,4.13,0.05,-0.0,-0.39,0.06,0.12,0.0,166.36,193.0,0.0,0.0,0.0,0.0
1776451745339189233,10298,0.0,0.7,0.064,0.3,0.04,-0.04,0.06,-3.44,4.13,0.03,0.03,-0.36,0.06,-0.06,0.0,165.67,211.0,0.0,0.0,0.0,0.0
1776451745437494659,10398,0.0,0.9,0.076,0.4,0.06,-0.04,0.06,-3.44,4.13,0.02,0.03,-0.34,-0.12,-0.0,0.0,165.67,211.0,0.0,0.0,0.0,0.0
1776451745539891807,10498,0.0,0.2,0.0,1.4,-0.02,-0.04,0.06,-3.44,4.13,0.05,0.02,-0.34,-0.0,-0.06,-0.06,165.67,193.0,0.0,0.0,0.0,0.0
1776451745638195714,10598,0.092,0.0,0.0,1.4,-0.1,-0.12,0.06,-3.44,4.13,0.03,0.01,-0.38,-0.0,0.06,0.06,165.84,194.0,0.0,0.0,0.0,0.0
1776451745736498640,10697,0.0,1.2,0.064,0.3,0.14,-0.02,0.06,-3.44,4.13,0.02,0.01,-0.35,-0.0,0.06,0.0,165.84,194.0,0.0,0.0,0.0,0.0
1776451745838896029,10797,0.0,1.3,0.064,0.2,0.06,0.02,0.06,-3.44,4.13,0.02,0.02,-0.37,-0.12,-0.0,0.0,166.87,210.0,0.0,0.0,0.0,0.0
1776451745947259473,10898,0.0,0.4,0.0,0.3,0.04,-0.1,0.06,-3.44,4.13,0.02,0.02,-0.37,-0.0,-0.0,-0.06,166.18,210.0,0.0,0.0,0.0,0.0
1776451746039628569,10998,0.0,0.3,0.0,1.9,0.1,0.02,0.06,-3.44,4.13,0.03,0.01,-0.35,0.06,-0.06,-0.06,165.67,193.0,0.0,0.0,0.0,0.0
1776451746138041593,11098,0.092,0.1,0.0,1.3,0.12,0.1,0.06,-3.44,4.13,0.02,0.02,-0.37,-0.0,-0.06,-0.12,165.67,190.0,0.0,0.0,0.0,0.0
1776451746240587137,11198,0.092,0.4,0.0,1.3,0.12,-0.08,0.06,-3.44,4.13,0.04,0.01,-0.37,-0.06,-0.19,-0.06,165.67,190.0,0.0,0.0,0.0,0.0
1776451746339048082,11298,0.092,0.2,0.0,1.6,0.12,-0.06,0.06,-3.44,4.13,0.01,0.01,-0.34,-0.12,-0.12,-0.12,165.67,191.0,0.0,0.0,0.0,0.0
1776451746441613858,11399,0.0,0.3,0.0,0.8,0.1,-0.02,0.06,-3.44,4.13,0.03,-0.0,-0.39,0.06,-0.12,-0.12,165.67,212.0,0.0,0.0,0.0,0.0
1776451746540034319,11499,0.0,0.9,0.0,1.5,0.02,-0.02,0.06,-3.44,4.13,0.03,0.02,-0.38,-0.0,-0.0,0.06,165.84,212.0,0.0,0.0,0.0,0.0
1776451746638448418,11598,0.092,0.1,0.0,1.4,0.0,-0.08,0.06,-3.44,4.13,0.04,0.02,-0.35,-0.0,-0.12,-0.06,165.67,196.0,0.0,0.0,0.0,0.0
1776451746741021650,11698,0.092,0.0,0.0,1.6,0.04,-0.08,0.06,-3.44,4.13,0.04,-0.0,-0.35,0.12,0.06,0.06,166.36,201.0,0.0,0.0,0.0,0.0
1776451746849589510,11799,0.092,0.1,0.0,1.9,0.0,-0.04,0.06,-3.44,4.13,0.03,0.01,-0.41,0.06,-0.06,0.0,166.36,201.0,0.0,0.0,0.0,0.0
1776451746942012320,11898,0.092,0.1,0.0,1.0,0.08,-0.04,0.06,-3.44,4.13,0.03,0.01,-0.39,-0.06,-0.0,0.0,167.38,190.0,0.0,0.0,0.0,0.0
1776451747044554762,11999,0.092,0.2,0.0,1.0,-0.04,0.12,0.06,-3.44,4.13,0.02,-0.0,-0.39,-0.0,-0.06,-0.06,162.07,189.0,0.0,0.0,0.0,0.0
1776451747142992071,12099,0.088,0.2,0.068,0.2,0.12,-0.02,0.06,-3.44,4.13,0.04,-0.0,-0.38,-0.06,-0.06,0.0,166.36,189.0,0.0,0.0,0.0,0.0
1776451747241412507,12198,0.0,0.7,0.068,0.3,0.1,0.0,0.06,-3.44,4.13,0.03,0.01,-0.39,0.06,-0.06,0.0,166.36,204.0,0.0,0.0,0.0,0.0
1776451747343905680,12298,0.0,0.7,0.0,1.4,0.06,-0.04,0.06,-3.44,4.13,0.04,-0.0,-0.39,-0.0,-0.0,0.0,166.36,204.0,0.0,0.0,0.0,0.0
1776451747442376961,12399,0.088,1.2,0.076,0.3,0.1,-0.1,0.06,-3.44,4.13,0.01,0.01,-0.39,-0.06,-0.06,0.0,166.36,199.0,0.0,0.0,0.0,0.0
1776451747540780151,12498,0.0,0.2,0.0,1.2,0.06,0.06,0.06,-3.44,4.13,0.02,0.02,-0.4,-0.06,0.12,0.12,166.36,209.0,0.0,0.0,0.0,0.0
1776451747643372086,12598,0.092,0.0,0.0,1.6,0.1,0.08,0.06,-3.44,4.13,0.03,-0.01,-0.39,-0.12,0.12,0.06,166.36,209.0,0.0,0.0,0.0,0.0
1776451747741783046,12698,0.096,0.3,0.0,1.5,0.06,-0.02,0.06,-3.44,4.13,0.03,-0.0,-0.4,0.06,-0.06,-0.06,166.36,181.0,0.0,0.0,0.0,0.0
1776451747850291785,12797,0.088,0.4,0.068,0.3,0.1,-0.16,0.06,-3.44,4.13,0.02,0.01,-0.37,0.12,0.06,-0.06,166.36,202.0,0.0,0.0,0.0,0.0
1776451747942739397,12897,0.0,0.1,0.0,0.3,0.06,-0.1,0.06,-3.44,4.13,0.04,0.02,-0.39,-0.06,0.19,0.0,166.36,202.0,0.0,0.0,0.0,0.0
1776451748041226364,12997,0.0,0.5,0.068,0.2,0.12,0.02,0.06,-3.44,4.13,0.02,-0.0,-0.38,-0.0,-0.0,0.12,166.36,201.0,0.0,0.0,0.0,0.0
1776451748143668785,13096,0.0,0.0,0.0,1.8,0.12,0.06,0.06,-3.44,4.13,0.01,0.01,-0.4,-0.0,-0.12,-0.06,166.36,197.0,0.0,0.0,0.0,0.0
1776451748242095658,13196,0.0,1.2,0.076,0.3,0.02,0.0,0.06,-3.44,4.13,0.02,0.03,-0.37,-0.12,-0.06,0.0,166.36,197.0,0.0,0.0,0.0,0.0
1776451748340492994,13297,0.0,1.3,0.072,0.5,0.0,-0.16,0.06,-3.44,4.13,0.04,0.01,-0.37,0.12,0.12,0.06,166.36,214.0,0.0,0.0,0.0,0.0
1776451748443084473,13396,0.0,1.5,0.072,0.4,0.1,-0.02,0.06,-3.44,4.13,0.03,-0.0,-0.39,0.06,-0.12,-0.12,166.36,214.0,0.0,0.0,0.0,0.0
1776451748541505283,13496,0.0,1.4,0.0,1.0,0.2,-0.02,0.06,-3.44,4.13,0.03,-0.0,-0.35,-0.0,0.12,0.0,166.18,196.0,0.0,0.0,0.0,0.0
1776451748644078145,13596,0.084,0.1,0.0,1.1,0.04,-0.06,0.06,-3.44,4.13,0.04,-0.0,-0.36,-0.12,0.06,0.0,166.18,208.0,0.0,0.0,0.0,0.0
1776451748742472700,13696,0.092,0.2,0.0,0.4,0.0,-0.18,0.06,-3.44,4.13,0.03,0.03,-0.35,-0.0,0.19,0.06,166.36,208.0,0.0,0.0,0.0,0.0
1776451748840852143,13796,0.0,1.1,0.06,0.3,0.12,-0.18,0.06,-3.44,4.13,0.03,0.03,-0.39,0.12,0.06,0.0,166.36,194.0,0.0,0.0,0.0,0.0
1776451748943389313,13895,0.096,0.2,0.0,1.5,0.1,0.02,0.06,-3.44,4.13,0.02,0.03,-0.36,0.06,-0.0,0.0,166.18,181.0,0.0,0.0,0.0,0.0
1776451749041822939,13995,0.0,1.4,0.064,1.1,-0.04,-0.2,0.06,-3.44,4.13,0.03,0.02,-0.37,-0.12,0.06,0.12,166.36,181.0,0.0,0.0,0.0,0.0
1776451749140247141,14095,0.0,0.7,0.064,0.5,-0.12,-0.06,0.06,-3.44,4.13,0.02,-0.0,-0.35,-0.06,0.06,0.0,166.36,211.0,0.0,0.0,0.0,0.0
1776451749242753432,14194,0.0,0.9,0.0,1.3,0.08,0.06,0.06,-3.44,4.13,0.04,0.02,-0.36,0.06,0.06,0.0,166.36,188.0,0.0,0.0,0.0,0.0
1776451749341145596,14294,0.096,0.2,0.0,1.2,0.0,0.0,0.06,-3.44,4.13,0.0,-0.0,-0.33,-0.0,-0.0,0.0,166.36,188.0,0.0,0.0,0.0,0.0
1776451749439559008,14394,0.096,0.8,0.072,0.2,0.23,-0.06,0.06,-3.44,4.13,0.03,0.02,-0.38,-0.06,0.06,0.12,166.36,187.0,0.0,0.0,0.0,0.0
1776451749542113689,14493,0.092,0.1,0.0,1.4,0.14,-0.21,0.06,-3.44,4.13,0.01,0.01,-0.39,-0.06,-0.0,-0.06,166.36,187.0,0.0,0.0,0.0,0.0
1776451749640477690,14594,0.092,0.7,0.072,0.4,-0.02,-0.08,0.06,-3.44,4.13,0.03,0.01,-0.38,0.12,0.06,0.06,166.36,201.0,0.0,0.0,0.0,0.0
1776451749743046758,14694,0.0,1.3,0.072,0.1,0.12,-0.1,0.06,-3.44,4.13,0.03,0.01,-0.38,0.12,0.06,0.0,166.36,207.0,0.0,0.0,0.0,0.0
1776451749841460504,14794,0.0,0.1,0.056,0.3,0.02,-0.14,0.06,-3.44,4.13,0.03,0.02,-0.34,-0.0,0.12,0.06,166.36,207.0,0.0,0.0,0.0,0.0
1776451749943986595,14894,0.0,1.0,0.08,0.1,0.04,-0.06,0.06,-3.44,4.13,0.04,0.01,-0.35,-0.06,0.12,0.0,162.07,192.0,0.0,0.0,0.0,0.0
1776451750042393008,14994,0.092,0.1,0.0,1.4,0.08,0.02,0.06,-3.44,4.13,0.05,0.18,-0.21,-0.0,-0.31,-0.25,165.67,215.0,0.0,0.0,0.0,0.0
1776451750140794999,15093,0.0,0.4,0.0,1.2,0.14,-0.06,0.06,-3.44,4.13,0.06,-0.03,-0.4,0.12,0.06,0.0,162.24,215.0,0.0,0.0,0.0,0.0
1776451750243305845,15193,0.092,0.3,0.0,1.2,0.02,-0.18,0.06,-3.44,4.13,0.05,-0.06,-0.35,0.12,0.06,0.06,166.36,207.0,0.0,0.0,0.0,0.0
1776451750341684663,15293,0.092,0.3,0.0,0.9,-0.06,-0.14,0.06,-3.44,4.13,0.02,0.01,-0.35,-0.06,0.06,0.06,165.33,197.0,0.0,0.0,0.0,0.0
1776451750450200719,15392,0.0,0.2,0.0,1.6,-0.08,-0.1,0.06,-3.44,4.13,0.03,0.01,-0.35,0.06,0.06,-0.06,165.67,197.0,0.0,0.0,0.0,0.0
1776451750542637915,15493,0.088,0.2,0.0,1.6,-0.02,-0.18,0.06,-3.44,4.13,0.03,0.02,-0.37,0.12,-0.06,0.0,166.36,193.0,0.0,0.0,0.0,0.0
1776451750645136099,15593,0.092,0.5,0.072,0.7,-0.02,0.1,0.06,-3.44,4.13,0.04,0.01,-0.35,-0.0,-0.12,0.06,166.36,193.0,0.0,0.0,0.0,0.0
1776451750743561931,15693,0.0,0.0,0.0,1.2,0.12,-0.14,0.06,-3.44,4.13,0.02,-0.01,-0.35,0.06,-0.06,0.0,166.36,205.0,0.0,0.0,0.0,0.0
1776451750852077968,15793,0.0,0.7,0.072,0.6,0.06,-0.02,0.06,-3.44,4.13,0.03,0.01,-0.36,0.06,-0.06,0.0,166.36,193.0,0.0,0.0,0.0,0.0
1776451750944486985,15893,0.0,0.1,0.06,0.5,0.16,-0.16,0.06,-3.44,4.13,0.06,-0.0,-0.37,-0.25,-0.12,0.12,165.67,193.0,0.0,0.0,0.0,0.0
1776451751042880598,15992,0.0,1.3,0.06,0.4,0.08,-0.06,0.06,-3.44,4.13,0.15,0.03,-0.33,-0.44,-0.12,0.12,161.55,187.0,0.0,0.0,0.0,0.0
1776451751145377709,16093,0.0,1.6,0.076,0.4,0.02,-0.02,0.12,-3.44,4.06,-0.35,-0.0,-0.33,3.38,0.75,1.0,165.67,198.0,0.0,0.0,0.0,0.0
1776451751243757574,16193,0.0,1.2,0.072,0.2,-0.1,0.0,0.12,-3.44,4.13,0.41,-0.01,-0.3,-3.13,-0.81,0.0,166.36,198.0,0.0,0.0,0.0,0.0
1776451751346265882,16293,0.0,1.4,0.072,0.2,0.02,-0.1,0.12,-3.38,4.13,-0.26,-0.05,-0.36,1.56,0.94,-0.31,165.67,194.0,0.0,0.0,0.0,0.0
1776451751444702398,16393,0.0,1.3,0.068,0.0,-0.04,-0.02,0.12,-3.38,4.06,0.18,0.06,-0.35,-0.19,-0.5,-0.06,165.67,210.0,0.0,0.0,0.0,0.0
1776451751547197471,16494,0.0,0.7,0.0,1.5,0.1,-0.16,0.12,-3.38,4.13,0.04,-0.09,-0.39,-0.56,0.25,-0.12,162.07,210.0,0.0,0.0,0.0,0.0
1776451751645627202,16593,0.096,0.1,0.0,1.7,0.06,-0.12,0.12,-3.38,4.06,-0.02,0.05,-0.36,0.19,0.12,0.06,162.24,199.0,0.0,0.0,0.0,0.0
1776451751744022045,16693,0.096,0.2,0.0,0.3,0.16,-0.06,0.12,-3.38,4.06,0.03,0.05,-0.35,0.25,-0.25,-0.12,166.36,199.0,0.0,0.0,0.0,0.0
1776451751846504141,16793,0.0,1.3,0.0,1.1,0.1,-0.06,0.12,-3.38,4.06,0.08,-0.03,-0.36,-0.0,0.06,0.0,165.84,177.0,0.0,0.0,0.0,0.0
1776451751944904193,16892,0.0,0.7,0.064,0.5,0.21,0.04,0.12,-3.38,4.06,0.04,-0.0,-0.35,-0.12,0.12,-0.06,166.36,189.0,0.0,0.0,0.0,0.0
1776451752047405900,16993,0.0,0.9,0.0,1.7,0.12,-0.02,0.12,-3.38,4.06,0.03,-0.0,-0.35,-0.0,-0.0,0.06,162.07,189.0,0.0,0.0,0.0,0.0
1776451752145800377,17093,0.0,1.2,0.0,1.0,0.14,-0.08,0.12,-3.38,4.06,0.0,-0.0,-0.34,-0.06,0.06,0.0,166.36,201.0,0.0,0.0,0.0,0.0
1776451752244194874,17192,0.0,0.7,0.0,1.2,0.06,-0.16,0.12,-3.38,4.06,0.05,-0.01,-0.36,0.19,-0.12,0.0,166.36,196.0,0.0,0.0,0.0,0.0
1776451752346704905,17292,0.096,0.0,0.068,0.2,0.16,-0.08,0.12,-3.38,4.06,0.04,-0.01,-0.33,-0.06,-0.06,-0.12,162.07,196.0,0.0,0.0,0.0,0.0
1776451752445099957,17392,0.088,0.1,0.0,0.5,0.08,0.06,0.12,-3.38,4.06,0.05,-0.0,-0.35,-0.12,-0.0,-0.12,165.67,178.0,0.0,0.0,0.0,0.0
1776451752547601035,17492,0.0,0.6,0.0,1.5,-0.04,-0.2,0.12,-3.38,4.06,0.01,0.03,-0.36,-0.0,-0.12,-0.06,165.84,205.0,0.0,0.0,0.0,0.0
1776451752646051549,17592,0.092,0.2,0.0,1.5,0.08,-0.04,0.12,-3.38,4.06,0.01,0.01,-0.36,0.06,0.06,0.06,165.67,205.0,0.0,0.0,0.0,0.0
1776451752744340202,17692,0.092,0.1,0.0,0.7,-0.02,-0.04,0.12,-3.38,4.06,0.04,0.01,-0.34,0.06,-0.06,-0.19,165.84,193.0,0.0,0.0,0.0,0.0
1776451752846880021,17793,0.0,1.2,0.0,0.9,0.14,-0.16,0.12,-3.38,4.06,0.05,-0.0,-0.4,-0.19,-0.12,0.12,165.67,193.0,0.0,0.0,0.0,0.0
1776451752949397393,17894,0.092,0.3,0.0,1.1,0.0,0.06,0.12,-3.38,4.06,0.04,0.02,-0.33,-0.06,-0.12,0.0,165.84,201.0,0.0,0.0,0.0,0.0
1776451753047774756,17993,0.092,0.5,0.0,1.0,-0.02,-0.08,0.12,-3.38,4.06,0.04,0.04,-0.37,0.06,-0.12,-0.06,165.84,186.0,0.0,0.0,0.0,0.0
1776451753146167098,18093,0.0,0.3,0.0,1.4,0.06,-0.08,0.12,-3.38,4.06,0.03,0.01,-0.33,-0.12,0.12,-0.06,161.55,186.0,0.0,0.0,0.0,0.0
1776451753248701508,18193,0.1,0.2,0.0,0.5,0.14,0.06,0.12,-3.38,4.06,0.02,-0.01,-0.35,-0.06,0.12,0.12,167.38,189.0,0.0,0.0,0.0,0.0
1776451753347004805,18293,0.0,1.5,0.0,1.0,0.08,0.0,0.12,-3.38,4.06,0.01,-0.0,-0.36,-0.0,-0.0,-0.06,165.84,196.0,0.0,0.0,0.0,0.0
1776451753449528131,18393,0.096,0.2,0.0,1.0,0.23,-0.12,0.12,-3.38,4.06,0.05,-0.0,-0.35,-0.06,-0.0,0.0,165.84,196.0,0.0,0.0,0.0,0.0
1776451753547920046,18493,0.0,0.9,0.0,1.5,0.1,-0.04,0.12,-3.38,4.06,0.02,-0.0,-0.37,0.19,-0.0,0.0,166.36,200.0,0.0,0.0,0.0,0.0
1776451753646321470,18592,0.0,0.1,0.0,0.5,-0.14,-0.02,0.12,-3.38,4.06,0.02,0.01,-0.37,-0.0,-0.06,-0.06,166.36,197.0,0.0,0.0,0.0,0.0
1776451753748794102,18692,0.0,0.2,0.0,1.6,0.0,0.02,0.12,-3.38,4.06,0.05,0.02,-0.34,0.06,-0.0,-0.06,165.67,197.0,0.0,0.0,0.0,0.0
1776451753847196842,18792,0.088,0.2,0.0,1.5,0.02,0.04,0.12,-3.38,4.06,0.04,0.02,-0.34,0.06,-0.06,0.0,161.55,188.0,0.0,0.0,0.0,0.0
1776451753945602529,18891,0.096,0.1,0.0,1.4,0.1,-0.02,0.12,-3.38,4.06,0.04,-0.0,-0.37,0.06,-0.19,-0.06,166.87,188.0,0.0,0.0,0.0,0.0
1776451754048060526,18992,0.0,1.2,0.072,0.3,0.0,-0.16,0.12,-3.38,4.06,0.07,0.01,-0.33,-0.19,-0.06,0.0,166.36,179.0,0.0,0.0,0.0,0.0
1776451754146455238,19092,0.0,1.3,0.06,0.5,0.18,-0.14,0.12,-3.38,4.06,0.04,-0.0,-0.36,0.19,-0.12,0.0,165.67,189.0,0.0,0.0,0.0,0.0
1776451754248901538,19191,0.0,0.7,0.0,1.2,0.04,0.02,0.12,-3.38,4.06,0.03,-0.0,-0.37,-0.0,0.12,0.12,165.84,189.0,0.0,0.0,0.0,0.0
1776451754347291634,19291,0.096,0.3,0.0,1.1,-0.02,-0.16,0.12,-3.38,4.06,0.03,0.01,-0.35,-0.0,-0.0,-0.12,165.84,209.0,0.0,0.0,0.0,0.0
1776451754445695279,19391,0.092,0.9,0.0,1.5,0.06,-0.06,0.12,-3.38,4.06,0.04,-0.01,-0.34,0.06,-0.0,0.06,165.84,196.0,0.0,0.0,0.0,0.0
1776451754548183263,19490,0.0,0.5,0.0,1.1,0.08,-0.06,0.12,-3.38,4.06,0.04,0.01,-0.36,-0.19,0.12,0.0,165.67,196.0,0.0,0.0,0.0,0.0
1776451754646549487,19591,0.092,0.3,0.0,0.9,0.1,-0.1,0.12,-3.38,4.06,0.05,-0.0,-0.35,-0.0,0.06,0.12,165.67,197.0,0.0,0.0,0.0,0.0
1776451754749059378,19691,0.0,1.0,0.0,1.5,0.0,-0.08,0.12,-3.38,4.06,0.04,0.01,-0.35,-0.19,0.06,-0.06,165.84,195.0,0.0,0.0,0.0,0.0
1776451754847454127,19791,0.084,0.0,0.0,1.0,0.0,-0.14,0.12,-3.38,4.06,0.05,0.01,-0.35,-0.06,0.06,0.0,165.67,195.0,0.0,0.0,0.0,0.0
1776451754949927580,19891,0.092,0.3,0.0,1.2,-0.02,-0.02,0.12,-3.38,4.06,0.03,0.01,-0.36,-0.06,-0.0,0.06,165.67,203.0,0.0,0.0,0.0,0.0
1776451755048307704,19991,0.088,0.2,0.0,1.1,0.06,-0.04,0.12,-3.38,4.06,0.03,-0.0,-0.38,-0.0,-0.12,0.0,165.84,203.0,0.0,0.0,0.0,0.0
1776451755146689362,20090,0.084,0.2,0.072,0.2,-0.02,-0.06,0.12,-3.38,4.06,0.03,0.01,-0.34,-0.06,0.12,0.06,165.84,185.0,0.0,0.0,0.0,0.0
1776451755249125469,20191,0.0,1.1,0.068,0.2,-0.02,-0.1,0.12,-3.38,4.06,0.02,0.01,-0.34,-0.06,-0.0,-0.12,165.84,195.0,0.0,0.0,0.0,0.0
1776451755347489558,20292,0.0,0.7,0.068,0.3,0.18,-0.1,0.12,-3.38,4.06,0.01,-0.0,-0.36,0.12,0.06,-0.12,165.67,195.0,0.0,0.0,0.0,0.0
1776451755450032455,20391,0.0,0.7,0.06,0.3,0.1,-0.02,0.12,-3.38,4.06,0.04,0.03,-0.37,0.12,0.06,0.06,165.84,194.0,0.0,0.0,0.0,0.0
1776451755552523050,20492,0.0,0.1,0.0,1.3,0.14,0.0,0.12,-3.38,4.06,0.03,0.02,-0.37,0.06,0.06,-0.06,165.84,189.0,0.0,0.0,0.0,0.0
1776451755650887287,20592,0.0,0.2,0.0,1.1,-0.16,-0.1,0.12,-3.38,4.06,0.03,0.01,-0.33,-0.0,0.06,0.0,165.84,189.0,0.0,0.0,0.0,0.0
1776451755749266647,20691,0.0,1.0,0.0,1.4,0.0,0.0,0.12,-3.38,4.06,0.03,0.02,-0.33,-0.06,-0.19,-0.19,165.67,187.0,0.0,0.0,0.0,0.0
1776451755847662928,20791,0.096,0.1,0.0,0.9,0.0,-0.1,0.12,-3.38,4.06,0.04,0.02,-0.33,-0.0,-0.0,0.06,165.67,189.0,0.0,0.0,0.0,0.0
1776451755950131414,20890,0.0,0.2,0.0,1.3,0.2,-0.1,0.12,-3.38,4.06,0.06,-0.0,-0.34,-0.06,-0.0,0.0,161.55,189.0,0.0,0.0,0.0,0.0
1776451756048495793,20989,0.092,0.1,0.0,0.2,0.12,-0.06,0.12,-3.38,4.06,0.05,0.01,-0.36,-0.0,-0.0,-0.06,161.55,204.0,0.0,0.0,0.0,0.0
1776451756146876940,21089,0.0,0.3,0.012,1.4,0.0,0.16,0.12,-3.38,4.06,0.03,-0.0,-0.38,0.12,0.06,0.0,165.67,204.0,0.0,0.0,0.0,0.0
1776451756249357942,21189,0.088,0.3,0.0,1.1,-0.02,-0.1,0.12,-3.38,4.06,0.04,-0.0,-0.37,-0.12,0.31,0.0,165.84,206.0,0.0,0.0,0.0,0.0
1776451756347714181,21288,0.092,0.1,0.0,1.5,0.2,-0.08,0.12,-3.38,4.06,0.04,-0.0,-0.35,-0.06,-0.12,0.06,161.55,200.0,0.0,0.0,0.0,0.0
1776451756450195183,21389,0.0,1.4,0.0,1.2,0.06,0.0,0.12,-3.38,4.06,0.04,-0.01,-0.36,-0.06,0.06,0.06,165.15,200.0,0.0,0.0,0.0,0.0
1776451756548560133,21490,0.096,0.2,0.0,0.3,0.04,-0.04,0.12,-3.38,4.06,0.03,-0.0,-0.37,-0.06,0.06,-0.06,165.67,196.0,0.0,0.0,0.0,0.0
1776451756651047825,21590,0.0,0.6,0.0,0.3,-0.02,-0.04,0.12,-3.38,4.06,0.04,-0.0,-0.36,0.06,0.06,0.0,165.15,202.0,0.0,0.0,0.0,0.0
1776451756749376043,21691,0.0,1.1,0.068,-0.1,0.06,-0.1,0.12,-3.38,4.06,0.03,0.01,-0.39,-0.0,-0.06,0.06,161.55,202.0,0.0,0.0,0.0,0.0
1776451756851861548,21791,0.0,1.5,0.076,0.2,-0.06,-0.1,0.12,-3.38,4.06,0.04,0.01,-0.36,-0.12,0.12,0.06,161.55,194.0,0.0,0.0,0.0,0.0
1776451756950297662,21891,0.0,1.0,0.0,1.2,-0.06,-0.14,0.12,-3.38,4.06,0.02,-0.0,-0.38,0.06,0.06,0.06,161.55,195.0,0.0,0.0,0.0,0.0
1776451757052727750,21991,0.0,1.1,0.0,0.8,0.02,-0.04,0.12,-3.38,4.06,0.04,-0.0,-0.34,0.06,0.06,0.0,166.87,195.0,0.0,0.0,0.0,0.0
1776451757151108897,22092,0.0,1.3,0.0,1.2,0.18,0.02,0.12,-3.38,4.06,0.0,-0.0,-0.37,0.12,-0.12,0.06,165.15,198.0,0.0,0.0,0.0,0.0
1776451757253570434,22192,0.092,0.1,0.0,1.0,0.02,-0.12,0.12,-3.38,4.06,0.02,0.02,-0.38,-0.19,-0.0,0.0,165.15,198.0,0.0,0.0,0.0,0.0
1776451757351902565,22292,0.0,0.2,0.0,1.6,0.08,0.02,0.12,-3.38,4.06,0.05,0.01,-0.35,-0.12,0.06,0.0,165.15,199.0,0.0,0.0,0.0,0.0
1776451757454411690,22392,0.092,0.3,0.064,0.1,0.04,-0.06,0.12,-3.38,4.06,0.03,0.01,-0.38,0.06,-0.0,0.06,166.7,183.0,0.0,0.0,0.0,0.0
1776451757556879101,22493,0.0,1.0,0.0,1.2,0.08,-0.04,0.12,-3.38,4.06,0.04,0.02,-0.36,0.12,-0.12,0.0,166.87,183.0,0.0,0.0,0.0,0.0
1776451757655256134,22594,0.092,0.0,0.0,1.2,0.04,-0.04,0.12,-3.38,4.06,0.01,-0.0,-0.35,-0.12,-0.06,-0.06,161.55,198.0,0.0,0.0,0.0,0.0
1776451757753611763,22693,0.092,0.3,0.0,1.3,0.08,-0.18,0.12,-3.38,4.06,0.05,0.01,-0.39,-0.0,-0.0,0.0,165.67,201.0,0.0,0.0,0.0,0.0
1776451757856095037,22794,0.096,0.2,0.0,1.2,0.06,-0.12,0.12,-3.38,4.06,0.04,-0.0,-0.38,-0.0,0.06,0.06,165.84,201.0,0.0,0.0,0.0,0.0
1776451757954421275,22894,0.0,0.7,0.0,1.5,0.12,-0.06,0.12,-3.38,4.06,0.04,-0.0,-0.37,-0.12,0.06,0.06,161.55,202.0,0.0,0.0,0.0,0.0
1776451758056923545,22994,0.092,0.2,0.0,1.6,0.08,-0.1,0.12,-3.38,4.06,0.04,0.01,-0.36,-0.12,0.06,-0.12,165.67,198.0,0.0,0.0,0.0,0.0
1776451758159395437,23095,0.092,0.0,0.0,1.6,-0.06,0.0,0.12,-3.38,4.06,0.03,0.02,-0.36,-0.0,-0.0,0.0,166.87,198.0,0.0,0.0,0.0,0.0
1776451758257753560,23196,0.0,1.2,0.0,1.1,0.14,-0.21,0.12,-3.38,4.06,0.04,0.01,-0.37,-0.0,-0.0,0.0,161.55,183.0,0.0,0.0,0.0,0.0
1776451758356042601,23296,0.092,0.1,0.0,1.1,-0.06,-0.12,0.12,-3.38,4.06,0.04,-0.0,-0.37,0.06,0.06,0.0,161.55,198.0,0.0,0.0,0.0,0.0
1776451758458590043,23396,0.092,0.0,0.0,1.4,0.08,-0.06,0.12,-3.38,4.06,0.04,-0.0,-0.37,-0.0,-0.12,0.06,161.55,198.0,0.0,0.0,0.0,0.0
1776451758567020421,23496,0.092,0.1,0.072,0.4,0.06,-0.14,0.12,-3.38,4.06,0.02,-0.0,-0.36,0.06,0.12,0.0,165.67,187.0,0.0,0.0,0.0,0.0
1776451758659418113,23597,0.0,1.2,0.0,0.3,0.08,-0.04,0.12,-3.38,4.06,0.05,-0.0,-0.37,-0.19,0.06,0.0,161.55,187.0,0.0,0.0,0.0,0.0
1776451758761872549,23697,0.0,1.1,0.0,0.3,-0.08,-0.14,0.12,-3.38,4.06,0.03,0.03,-0.37,-0.0,0.12,0.06,165.67,189.0,0.0,0.0,0.0,0.0
1776451758860244033,23797,0.0,0.3,0.0,1.2,0.04,-0.02,0.12,-3.38,4.06,0.02,-0.0,-0.35,-0.0,-0.0,-0.06,166.18,210.0,0.0,0.0,0.0,0.0
1776451758962696208,23898,0.092,0.1,0.0,1.4,-0.02,-0.12,0.12,-3.38,4.06,0.02,-0.0,-0.37,0.12,0.06,0.06,162.07,210.0,0.0,0.0,0.0,0.0
1776451759061060267,23998,0.088,0.2,0.068,0.1,0.04,-0.02,0.12,-3.38,4.06,0.03,0.02,-0.37,0.06,-0.19,-0.06,165.67,193.0,0.0,0.0,0.0,0.0
1776451759159438627,24097,0.0,0.1,0.072,0.3,0.04,0.08,0.12,-3.38,4.06,0.03,-0.01,-0.36,-0.0,-0.0,0.06,166.36,216.0,0.0,0.0,0.0,0.0
1776451759261879556,24197,0.0,1.3,0.064,0.3,0.0,-0.2,0.12,-3.38,4.06,0.04,0.01,-0.38,0.12,-0.0,0.06,170.47,216.0,0.0,0.0,0.0,0.0
1776451759360236645,24297,0.0,1.3,0.064,0.4,0.12,0.04,0.12,-3.38,4.06,0.03,-0.0,-0.4,0.12,0.25,0.0,166.36,208.0,0.0,0.0,0.0,0.0
1776451759458609984,24396,0.0,1.2,0.068,0.5,0.04,-0.08,0.12,-3.38,4.06,0.04,-0.0,-0.38,0.12,-0.0,-0.06,166.36,199.0,0.0,0.0,0.0,0.0
1776451759561084878,24497,0.0,0.2,0.0,1.1,0.08,-0.02,0.12,-3.38,4.06,0.04,0.01,-0.38,0.06,0.06,0.0,166.36,199.0,0.0,0.0,0.0,0.0
1776451759659405499,24597,0.088,0.3,0.0,1.2,0.04,-0.04,0.12,-3.38,4.06,0.04,-0.0,-0.36,-0.06,0.06,0.06,166.36,194.0,0.0,0.0,0.0,0.0
1776451759761901962,24697,0.0,1.3,0.068,0.1,0.18,-0.02,0.12,-3.38,4.06,0.05,-0.0,-0.39,-0.0,-0.06,0.06,165.67,194.0,0.0,0.0,0.0,0.0
1776451759864362514,24798,0.0,1.5,0.0,1.2,0.06,-0.08,0.12,-3.38,4.06,0.03,-0.0,-0.4,-0.12,-0.0,-0.12,166.36,198.0,0.0,0.0,0.0,0.0
1776451759962728923,24898,0.088,0.6,0.064,0.2,0.1,-0.02,0.12,-3.38,4.06,0.04,0.01,-0.38,-0.0,-0.0,0.0,166.36,217.0,0.0,0.0,0.0,0.0
1776451760061049454,24998,0.0,0.7,0.0,1.3,0.16,-0.18,0.12,-3.38,4.06,0.04,0.01,-0.37,-0.0,0.06,-0.06,166.36,217.0,0.0,0.0,0.0,0.0
1776451760163531301,25099,0.092,0.3,0.0,1.4,0.23,0.0,0.12,-3.38,4.06,0.03,-0.0,-0.37,-0.12,-0.0,0.06,162.07,210.0,0.0,0.0,0.0,0.0
1776451760265944608,25199,0.092,0.2,0.072,1.2,-0.02,-0.1,0.12,-3.38,4.06,0.03,0.02,-0.37,-0.0,-0.06,-0.06,166.36,205.0,0.0,0.0,0.0,0.0
1776451760364333953,25299,0.088,0.3,0.064,0.6,0.0,-0.1,0.12,-3.38,4.06,0.03,-0.0,-0.38,-0.06,0.06,0.06,166.36,205.0,0.0,0.0,0.0,0.0
1776451760466812687,25400,0.0,1.0,0.076,0.6,0.12,-0.21,0.12,-3.38,4.06,0.03,-0.01,-0.37,-0.06,-0.06,0.06,166.36,197.0,0.0,0.0,0.0,0.0
1776451760565171495,25500,0.0,0.3,0.064,0.3,0.04,-0.08,0.12,-3.38,4.06,0.01,-0.0,-0.38,0.12,-0.0,0.0,161.55,191.0,0.0,0.0,0.0,0.0
1776451760663491651,25600,0.0,1.2,0.068,0.5,0.1,-0.12,0.12,-3.38,4.06,0.04,0.01,-0.38,-0.06,0.06,0.06,166.36,191.0,0.0,0.0,0.0,0.0
1776451760765958971,25700,0.0,1.3,0.0,1.3,0.16,-0.06,0.12,-3.38,4.06,0.02,-0.0,-0.37,-0.06,-0.0,0.06,165.67,204.0,0.0,0.0,0.0,0.0
1776451760864386449,25799,0.092,0.3,0.0,1.0,0.04,-0.06,0.12,-3.38,4.06,0.04,0.01,-0.36,-0.06,-0.06,0.0,167.38,187.0,0.0,0.0,0.0,0.0
1776451760966780671,25900,0.0,1.0,0.068,0.3,0.04,-0.14,0.12,-3.38,4.06,0.03,0.01,-0.37,-0.25,0.12,0.06,165.84,187.0,0.0,0.0,0.0,0.0
1776451761065140176,26000,0.0,0.9,0.0,1.3,0.02,-0.08,0.12,-3.38,4.06,0.02,-0.0,-0.38,-0.06,-0.0,0.0,166.36,194.0,0.0,0.0,0.0,0.0
1776451761163487119,26099,0.096,0.3,0.0,1.1,0.02,-0.02,0.12,-3.38,4.06,0.02,-0.0,-0.37,0.06,0.06,0.0,165.67,194.0,0.0,0.0,0.0,0.0
1776451761265917597,26199,0.092,0.7,0.0,1.7,-0.02,-0.14,0.12,-3.38,4.06,0.03,0.01,-0.35,-0.25,0.19,-0.06,166.87,203.0,0.0,0.0,0.0,0.0
1776451761374309760,26300,0.084,0.1,0.0,1.0,0.1,0.08,0.12,-3.38,4.06,0.05,0.01,-0.38,-0.0,-0.06,0.0,165.67,191.0,0.0,0.0,0.0,0.0
1776451761466811284,26400,0.0,1.5,0.08,0.7,0.0,-0.12,0.12,-3.38,4.06,0.04,0.03,-0.39,-0.06,-0.0,0.06,165.84,191.0,0.0,0.0,0.0,0.0
1776451761565111128,26500,0.0,1.2,0.072,0.5,0.02,-0.02,0.12,-3.38,4.06,0.02,0.02,-0.37,-0.0,-0.06,0.06,165.84,179.0,0.0,0.0,0.0,0.0
1776451761667571937,26600,0.0,0.2,0.0,1.2,0.04,-0.06,0.12,-3.38,4.06,0.02,0.01,-0.39,-0.0,-0.12,0.06,165.84,195.0,0.0,0.0,0.0,0.0
1776451761765917323,26700,0.092,0.1,0.0,1.0,-0.02,-0.02,0.12,-3.38,4.06,0.0,0.01,-0.38,0.06,-0.06,0.12,165.84,195.0,0.0,0.0,0.0,0.0
1776451761868364106,26800,0.088,0.1,0.0,0.2,0.08,-0.02,0.12,-3.38,4.06,0.02,0.01,-0.37,-0.0,0.12,0.06,165.84,200.0,0.0,0.0,0.0,0.0
1776451761966715385,26901,0.0,0.8,0.06,0.1,0.14,-0.1,0.12,-3.38,4.06,0.02,-0.01,-0.39,-0.12,0.06,0.06,165.84,200.0,0.0,0.0,0.0,0.0
1776451762069222266,27001,0.096,0.4,0.076,0.3,-0.02,-0.08,0.12,-3.38,4.06,0.02,-0.0,-0.37,0.12,-0.0,-0.06,165.67,192.0,0.0,0.0,0.0,0.0
1776451762167530961,27101,0.0,-0.1,0.0,1.2,0.16,-0.02,0.12,-3.38,4.06,0.03,-0.0,-0.37,-0.12,0.06,0.0,165.67,206.0,0.0,0.0,0.0,0.0
1776451762269966019,27202,0.0,1.4,0.0,0.8,0.2,-0.12,0.12,-3.38,4.06,0.06,-0.0,-0.37,-0.12,-0.12,0.0,165.67,206.0,0.0,0.0,0.0,0.0
1776451762368284663,27301,0.0,0.9,0.0,0.7,0.08,0.08,0.12,-3.38,4.06,0.02,0.02,-0.37,-0.0,0.06,0.12,165.67,200.0,0.0,0.0,0.0,0.0
1776451762470771469,27401,0.0,1.4,0.0,1.0,0.16,0.06,0.12,-3.38,4.06,0.04,0.01,-0.38,-0.0,-0.06,0.06,165.84,213.0,0.0,0.0,0.0,0.0
1776451762569128040,27501,0.0,1.0,0.068,0.2,0.0,-0.04,0.12,-3.38,4.06,0.06,-0.0,-0.37,-0.12,-0.0,0.0,165.84,213.0,0.0,0.0,0.0,0.0
1776451762667486927,27600,0.0,0.7,0.0,1.7,0.06,-0.06,0.12,-3.38,4.06,0.0,-0.0,-0.37,-0.0,-0.06,-0.06,165.67,202.0,0.0,0.0,0.0,0.0
1776451762769926339,27701,0.0,1.5,0.0,0.9,0.12,-0.1,0.12,-3.38,4.06,0.03,0.01,-0.36,0.06,-0.0,-0.06,165.84,207.0,0.0,0.0,0.0,0.0
1776451762868273405,27801,0.092,0.2,0.0,1.6,-0.02,-0.12,0.12,-3.38,4.06,0.04,-0.0,-0.35,-0.0,-0.0,0.0,165.67,207.0,0.0,0.0,0.0,0.0
1776451762966605130,27900,0.096,0.3,0.0,1.6,0.08,-0.2,0.12,-3.38,4.06,0.02,-0.0,-0.35,0.06,-0.0,0.12,161.55,196.0,0.0,0.0,0.0,0.0
1776451763069064157,28000,0.096,0.0,0.0,1.3,0.18,0.0,0.12,-3.38,4.06,0.02,-0.0,-0.34,-0.0,0.12,0.06,162.75,193.0,0.0,0.0,0.0,0.0
1776451763167431157,28101,0.096,0.0,0.0,1.6,-0.02,-0.04,0.12,-3.38,4.06,0.0,-0.0,-0.36,-0.06,0.19,-0.06,161.55,193.0,0.0,0.0,0.0,0.0
1776451763269859672,28200,0.096,0.1,0.068,0.3,0.04,-0.16,0.12,-3.38,4.06,0.02,0.01,-0.37,-0.12,-0.0,-0.06,161.55,210.0,0.0,0.0,0.0,0.0
1776451763372288354,28301,0.0,1.3,0.0,1.0,0.08,-0.16,0.12,-3.38,4.06,0.06,-0.0,-0.34,-0.12,-0.0,0.0,165.84,210.0,0.0,0.0,0.0,0.0
1776451763470654928,28402,0.0,0.9,0.076,0.5,0.14,-0.21,0.12,-3.38,4.06,0.03,0.01,-0.37,-0.0,-0.0,0.0,161.55,189.0,0.0,0.0,0.0,0.0
1776451763573128039,28502,0.0,0.9,0.068,0.3,-0.04,-0.06,0.12,-3.38,4.06,0.02,0.01,-0.36,0.19,-0.06,0.06,165.67,202.0,0.0,0.0,0.0,0.0
1776451763671453204,28603,0.0,1.0,0.068,0.5,0.02,0.0,0.12,-3.38,4.06,0.03,-0.0,-0.35,-0.06,-0.06,0.06,165.67,202.0,0.0,0.0,0.0,0.0
1776451763773919311,28703,0.0,0.4,0.0,1.6,0.16,-0.04,0.12,-3.38,4.06,0.04,-0.0,-0.36,0.12,-0.12,0.06,165.84,201.0,0.0,0.0,0.0,0.0
1776451763872247108,28803,0.088,0.2,0.0,1.4,0.06,-0.14,0.12,-3.38,4.06,0.02,-0.0,-0.36,-0.0,0.06,0.06,165.84,178.0,0.0,0.0,0.0,0.0
1776451763970555561,28903,0.092,0.3,0.0,1.4,-0.04,-0.12,0.12,-3.38,4.06,0.03,0.03,-0.35,-0.06,-0.0,-0.06,161.55,178.0,0.0,0.0,0.0,0.0
1776451764073030338,29003,0.092,0.3,0.072,0.2,0.1,-0.16,0.12,-3.38,4.06,0.05,0.01,-0.36,0.12,-0.0,-0.06,165.84,187.0,0.0,0.0,0.0,0.0
1776451764175542407,29104,0.0,0.1,0.0,0.2,0.16,-0.16,0.12,-3.38,4.06,0.04,-0.0,-0.36,-0.12,0.12,0.0,165.67,189.0,0.0,0.0,0.0,0.0
1776451764273811965,29205,0.0,1.1,0.064,0.3,0.16,-0.23,0.12,-3.38,4.06,0.05,-0.0,-0.35,0.12,-0.06,0.06,161.55,189.0,0.0,0.0,0.0,0.0
1776451764372125449,29304,0.0,0.9,0.072,0.5,0.1,-0.25,0.12,-3.38,4.06,0.03,-0.0,-0.35,-0.12,-0.12,0.0,165.84,201.0,0.0,0.0,0.0,0.0
1776451764474606134,29404,0.0,1.2,0.0,1.2,0.06,-0.1,0.12,-3.38,4.06,0.03,-0.01,-0.35,-0.12,-0.06,0.12,165.84,201.0,0.0,0.0,0.0,0.0
1776451764572945297,29504,0.0,1.0,0.068,0.3,0.14,-0.02,0.12,-3.38,4.06,0.05,0.01,-0.35,-0.06,-0.12,0.12,166.18,195.0,0.0,0.0,0.0,0.0
1776451764675388705,29604,0.0,0.9,0.0,1.6,0.1,-0.04,0.12,-3.38,4.06,0.04,0.01,-0.37,-0.06,-0.0,0.0,165.67,198.0,0.0,0.0,0.0,0.0
1776451764773731407,29704,0.0,1.1,0.0,1.4,0.06,-0.18,0.12,-3.38,4.06,0.03,-0.0,-0.34,0.12,-0.06,0.12,161.55,198.0,0.0,0.0,0.0,0.0
1776451764876173704,29804,0.092,0.3,0.0,1.2,0.04,-0.12,0.12,-3.38,4.06,0.03,0.02,-0.35,-0.06,0.12,0.06,165.67,198.0,0.0,0.0,0.0,0.0
1776451764974528485,29904,0.0,0.1,0.0,0.0,0.12,-0.02,0.12,-3.38,4.06,0.01,0.01,-0.35,-0.0,-0.0,0.0,161.55,208.0,0.0,0.0,0.0,0.0
1776451765076966150,30004,0.0,1.4,0.068,0.7,-0.08,0.02,0.12,-3.38,4.06,0.02,-0.0,-0.39,0.06,0.06,0.0,165.67,208.0,0.0,0.0,0.0,0.0
1776451765175320567,30105,0.0,0.3,0.0,1.1,0.06,-0.08,0.12,-3.38,4.06,0.02,0.02,-0.38,0.06,0.12,0.0,165.67,206.0,0.0,0.0,0.0,0.0
1776451765273621128,30204,0.092,0.3,0.0,1.3,0.06,-0.14,0.12,-3.38,4.06,0.03,-0.0,-0.37,0.12,-0.12,-0.06,165.67,213.0,0.0,0.0,0.0,0.0
1776451765376065911,30304,0.0,0.3,0.0,1.4,0.06,-0.14,0.12,-3.38,4.06,0.04,0.01,-0.35,0.12,0.06,0.12,165.15,213.0,0.0,0.0,0.0,0.0
1776451765474436872,30405,0.092,0.2,0.0,1.6,0.18,-0.1,0.12,-3.38,4.06,0.01,-0.0,-0.36,-0.06,-0.0,0.12,165.15,199.0,0.0,0.0,0.0,0.0
1776451765576875190,30504,0.096,-0.1,0.076,0.3,0.02,-0.06,0.12,-3.38,4.06,0.04,-0.0,-0.34,-0.12,0.12,-0.12,165.15,190.0,0.0,0.0,0.0,0.0
1776451765675209395,30604,0.0,1.4,0.064,0.3,0.08,-0.1,0.12,-3.38,4.06,0.02,0.01,-0.37,0.06,-0.12,0.06,169.44,190.0,0.0,0.0,0.0,0.0
1776451765773514661,30704,0.0,1.3,0.068,0.5,0.06,0.0,0.12,-3.38,4.06,0.04,-0.0,-0.37,-0.06,-0.06,0.0,165.15,207.0,0.0,0.0,0.0,0.0
1776451765875994367,30804,0.0,1.3,0.072,0.3,0.02,-0.08,0.12,-3.38,4.06,0.04,-0.0,-0.36,-0.06,-0.0,-0.06,165.67,207.0,0.0,0.0,0.0,0.0
1776451765978450173,30905,0.0,1.4,0.068,0.3,0.06,-0.14,0.12,-3.38,4.06,0.04,0.02,-0.35,0.06,0.12,0.0,165.84,202.0,0.0,0.0,0.0,0.0
1776451766076781724,31006,0.0,1.4,0.064,0.2,-0.08,-0.06,0.12,-3.38,4.06,0.04,0.01,-0.35,-0.0,-0.0,0.06,165.67,200.0,0.0,0.0,0.0,0.0
1776451766179245604,31106,0.0,1.1,0.068,0.3,0.04,0.1,0.12,-3.38,4.06,0.01,0.01,-0.35,-0.06,0.12,0.0,165.84,200.0,0.0,0.0,0.0,0.0
1776451766277536749,31207,0.0,0.9,0.056,0.2,0.16,-0.1,0.12,-3.38,4.06,0.02,-0.0,-0.36,0.06,0.12,0.0,165.15,189.0,0.0,0.0,0.0,0.0
1776451766379957390,31306,0.0,0.9,0.072,0.4,-0.04,-0.08,0.12,-3.38,4.06,0.01,-0.0,-0.39,0.06,-0.19,-0.06,165.67,199.0,0.0,0.0,0.0,0.0
1776451766478316710,31407,0.0,0.9,0.064,0.1,0.12,0.12,0.12,-3.38,4.06,0.02,0.03,-0.36,-0.0,-0.06,0.0,166.18,199.0,0.0,0.0,0.0,0.0
1776451766580762935,31508,0.0,0.9,0.072,0.0,0.04,-0.02,0.12,-3.38,4.06,0.01,0.02,-0.38,0.06,0.06,0.0,165.15,186.0,0.0,0.0,0.0,0.0
1776451766679096171,31607,0.0,1.3,0.0,1.1,0.16,0.08,0.12,-3.38,4.06,0.04,-0.01,-0.36,0.06,-0.12,0.0,165.15,195.0,0.0,0.0,0.0,0.0
1776451766781572149,31708,0.0,0.6,0.06,0.3,0.12,-0.21,0.12,-3.38,4.06,0.03,0.01,-0.35,0.12,-0.25,-0.06,165.84,195.0,0.0,0.0,0.0,0.0
1776451766879881153,31808,0.0,1.0,0.076,0.3,0.06,-0.18,0.12,-3.38,4.06,0.04,-0.0,-0.35,0.06,-0.12,-0.06,165.15,190.0,0.0,0.0,0.0,0.0
1776451766978198660,31907,0.0,1.4,0.068,0.3,0.1,-0.06,0.12,-3.38,4.06,0.05,-0.0,-0.38,0.06,0.06,-0.06,165.84,190.0,0.0,0.0,0.0,0.0
1776451767080655356,32007,0.0,1.3,0.068,0.5,0.2,-0.12,0.12,-3.38,4.06,0.02,-0.0,-0.36,0.06,-0.12,-0.06,165.84,202.0,0.0,0.0,0.0,0.0
1776451767179004142,32107,0.0,1.5,0.064,0.1,0.08,0.0,0.12,-3.38,4.06,0.02,-0.0,-0.36,-0.0,0.06,-0.06,161.55,197.0,0.0,0.0,0.0,0.0
1776451767281407479,32207,0.0,0.9,0.0,1.6,0.16,-0.1,0.12,-3.38,4.06,0.04,0.02,-0.35,0.06,-0.06,0.12,165.15,197.0,0.0,0.0,0.0,0.0
1776451767379741370,32307,0.0,0.4,0.0,1.3,0.08,0.04,0.12,-3.38,4.06,0.05,0.01,-0.34,-0.0,0.12,0.06,165.84,198.0,0.0,0.0,0.0,0.0
1776451767482193819,32407,0.092,0.7,0.0,1.5,0.16,0.0,0.12,-3.38,4.06,0.03,-0.0,-0.35,-0.06,-0.0,-0.06,162.58,199.0,0.0,0.0,0.0,0.0
1776451767580534508,32507,0.084,0.3,0.0,1.7,0.0,-0.1,0.12,-3.38,4.06,0.03,0.01,-0.35,0.06,-0.06,0.0,165.67,199.0,0.0,0.0,0.0,0.0
1776451767678826458,32607,0.092,0.2,0.0,1.6,0.1,0.04,0.12,-3.38,4.06,0.03,0.02,-0.36,0.06,-0.19,-0.06,165.84,206.0,0.0,0.0,0.0,0.0
1776451767781297746,32707,0.096,0.3,0.06,0.1,0.0,-0.08,0.12,-3.38,4.06,0.03,-0.0,-0.37,-0.0,-0.06,0.0,165.67,192.0,0.0,0.0,0.0,0.0
1776451767879644642,32806,0.0,1.3,0.068,0.3,0.06,-0.18,0.12,-3.38,4.06,0.02,0.01,-0.34,0.12,0.12,0.0,166.01,192.0,0.0,0.0,0.0,0.0
1776451767982068950,32907,0.0,1.2,0.0,0.4,-0.06,-0.06,0.12,-3.38,4.06,0.03,0.01,-0.36,-0.0,-0.0,-0.06,165.15,186.0,0.0,0.0,0.0,0.0
1776451768080411108,33007,0.0,0.2,0.0,1.0,0.18,0.0,0.12,-3.38,4.06,0.04,-0.0,-0.38,0.12,-0.0,0.0,165.67,186.0,0.0,0.0,0.0,0.0
1776451768178755365,33106,0.0,0.7,0.064,0.2,0.02,-0.1,0.12,-3.38,4.06,0.03,0.02,-0.35,-0.06,-0.06,0.0,165.15,201.0,0.0,0.0,0.0,0.0
1776451768281155710,33207,0.0,0.9,0.0,1.7,0.2,-0.02,0.12,-3.38,4.06,0.03,-0.0,-0.37,-0.06,-0.0,0.06,165.15,195.0,0.0,0.0,0.0,0.0
1776451768697628154,33308,0.0,1.4,0.0,1.3,0.0,-0.2,0.12,-3.38,4.06,0.02,-0.0,-0.36,-0.12,-0.06,0.0,165.15,195.0,0.0,0.0,0.0,0.0
1776451768699643592,33408,0.0,0.7,0.06,0.5,-0.08,0.16,0.12,-3.38,4.06,0.04,-0.0,-0.36,-0.0,0.12,0.0,165.15,209.0,0.0,0.0,0.0,0.0
1776451768712882359,33508,0.0,0.7,0.0,1.4,-0.04,-0.1,0.12,-3.38,4.06,0.04,-0.01,-0.36,0.06,0.06,0.12,165.15,211.0,0.0,0.0,0.0,0.0
1776451768785161261,33608,0.088,0.9,0.0,1.5,0.21,0.0,0.12,-3.38,4.06,0.0,-0.0,-0.35,-0.06,0.06,0.06,165.67,211.0,0.0,0.0,0.0,0.0
1776451768941623038,33708,0.096,0.3,0.0,1.7,0.06,0.0,0.12,-3.38,4.06,0.05,0.01,-0.36,-0.0,0.06,0.0,169.27,204.0,0.0,0.0,0.0,0.0
1776451768981817188,33809,0.0,1.3,0.0,0.9,-0.14,-0.06,0.12,-3.38,4.06,0.05,0.01,-0.36,-0.0,0.06,0.06,165.67,192.0,0.0,0.0,0.0,0.0
1776451768994652834,33908,0.092,0.8,0.064,0.5,0.1,-0.1,0.12,-3.38,4.06,0.03,-0.0,-0.36,-0.0,-0.0,0.12,165.15,192.0,0.0,0.0,0.0,0.0
1776451769084227689,34008,0.0,1.1,0.0,1.6,0.08,0.04,0.12,-3.38,4.06,0.05,0.01,-0.36,0.06,-0.0,0.06,165.15,209.0,0.0,0.0,0.0,0.0
1776451769182567521,34108,0.096,0.1,0.0,1.5,0.14,-0.16,0.12,-3.38,4.06,0.04,-0.0,-0.35,0.06,-0.0,0.06,165.15,209.0,0.0,0.0,0.0,0.0
1776451769285006905,34209,0.0,0.1,0.0,1.0,-0.06,-0.2,0.12,-3.38,4.06,0.02,0.01,-0.37,-0.0,0.06,0.06,165.15,211.0,0.0,0.0,0.0,0.0
1776451769383331325,34309,0.088,0.2,0.068,0.3,0.1,0.06,0.12,-3.38,4.06,0.01,-0.01,-0.36,0.12,-0.06,0.0,165.15,200.0,0.0,0.0,0.0,0.0
1776451769485721935,34410,0.0,0.1,0.0,1.5,0.1,-0.04,0.12,-3.38,4.06,0.03,-0.0,-0.36,0.19,-0.06,-0.06,165.15,200.0,0.0,0.0,0.0,0.0
1776451769584068695,34510,0.092,0.4,0.0,1.0,0.14,-0.02,0.12,-3.38,4.06,0.03,0.03,-0.35,0.12,0.06,0.0,165.15,198.0,0.0,0.0,0.0,0.0
1776451769686533662,34610,0.0,0.0,0.0,0.3,-0.04,-0.06,0.12,-3.38,4.06,0.02,0.01,-0.35,0.06,-0.06,0.0,165.15,189.0,0.0,0.0,0.0,0.0
1776451769784851431,34711,0.0,1.3,0.068,0.5,0.16,-0.16,0.12,-3.38,4.06,0.03,-0.0,-0.34,0.06,0.06,-0.06,169.27,189.0,0.0,0.0,0.0,0.0
1776451769887304023,34810,0.0,1.4,0.076,0.5,0.0,0.06,0.12,-3.38,4.06,0.05,-0.0,-0.36,-0.12,-0.0,-0.06,169.61,210.0,0.0,0.0,0.0,0.0
1776451769985618107,34911,0.0,0.2,0.0,1.2,0.02,-0.16,0.12,-3.38,4.06,0.05,0.01,-0.36,-0.06,0.19,0.12,169.27,201.0,0.0,0.0,0.0,0.0
1776451770088047475,35011,0.096,0.1,0.068,0.3,0.06,-0.04,0.12,-3.38,4.06,0.01,0.02,-0.34,-0.0,-0.0,0.06,169.27,201.0,0.0,0.0,0.0,0.0
1776451770186383220,35111,0.0,0.6,0.0,1.5,-0.02,0.0,0.12,-3.38,4.06,0.05,-0.0,-0.35,-0.0,-0.0,0.06,169.27,205.0,0.0,0.0,0.0,0.0
1776451770288799965,35211,0.0,1.4,0.068,0.5,0.27,0.0,0.12,-3.38,4.06,0.03,0.02,-0.36,-0.06,0.06,0.12,165.15,195.0,0.0,0.0,0.0,0.0
1776451770387143119,35311,0.0,0.4,0.064,0.7,-0.02,-0.12,0.12,-3.38,4.06,0.01,0.01,-0.36,-0.12,-0.0,-0.06,165.15,195.0,0.0,0.0,0.0,0.0
1776451770485460025,35410,0.0,0.9,0.06,0.5,0.16,-0.06,0.12,-3.38,4.06,0.03,-0.0,-0.39,0.06,-0.06,-0.06,165.15,198.0,0.0,0.0,0.0,0.0
1776451770587855968,35510,0.072,0.3,0.0,0.9,0.0,-0.06,0.12,-3.38,4.06,0.02,0.01,-0.36,-0.0,-0.06,0.0,165.15,198.0,0.0,0.0,0.0,0.0
1776451770686223093,35610,0.0,0.4,0.0,1.3,0.0,-0.08,0.12,-3.38,4.06,0.04,0.01,-0.37,-0.06,0.06,0.0,161.04,200.0,0.0,0.0,0.0,0.0
