timestamp_ns,time_ms,voltage_left,current_left_ma,voltage_right,current_right_ma,motor_current_left,motor_current_right,euler_x,euler_y,euler_z,acc_lin_x,acc_lin_y,acc_lin_z,gyro_x,gyro_y,gyro_z,sonar_mm,tof_mm,rpm_left,rpm_right,rotations_left,rotations_right
1776192135561972746,1902,0.0,1.0,0.0,0.3,-0.12,-0.23,0.06,-3.19,4.63,0.03,0.02,-0.4,-0.0,0.06,0.12,271.48,291.0,0.0,0.0,0.0,0.0
1776192135660234632,2001,0.0,1.3,0.0,0.3,-0.02,0.0,0.06,-3.19,4.63,0.02,-0.0,-0.38,0.06,-0.0,0.06,271.48,292.0,0.0,0.0,0.0,0.0
1776192135758516962,2101,0.0,1.3,0.0,0.4,-0.12,-0.02,0.06,-3.19,4.63,0.01,0.01,-0.38,-0.06,-0.0,-0.06,271.48,292.0,0.0,0.0,0.0,0.0
1776192135860908236,2201,0.0,1.3,0.0,0.0,0.06,0.06,0.06,-3.19,4.63,0.01,0.02,-0.4,0.06,-0.12,0.0,271.48,291.0,0.0,0.0,0.0,0.0
1776192135959238028,2300,0.0,1.4,0.0,0.2,0.08,-0.12,0.06,-3.19,4.63,0.03,0.03,-0.38,0.06,-0.19,0.0,271.48,293.0,0.0,0.0,0.0,0.0
1776192136061681452,2401,0.0,1.3,0.0,0.5,0.0,0.02,0.06,-3.19,4.63,0.02,0.01,-0.39,0.19,-0.06,0.12,271.48,293.0,0.0,0.0,0.0,0.0
1776192136159944690,2501,0.0,1.4,0.0,0.3,0.0,-0.08,0.06,-3.19,4.63,0.03,0.03,-0.39,-0.0,-0.0,0.0,271.48,292.0,0.0,0.0,0.0,0.0
1776192136258223501,2600,0.0,1.3,0.0,0.5,0.0,-0.06,0.06,-3.19,4.63,0.02,0.03,-0.36,-0.06,0.12,0.12,271.48,292.0,0.0,0.0,0.0,0.0
1776192136360626819,2700,0.0,1.4,0.0,0.6,-0.08,-0.04,0.06,-3.19,4.63,0.02,0.02,-0.37,0.06,-0.12,0.0,271.48,292.0,0.0,0.0,0.0,0.0
1776192136458922556,2801,0.0,1.6,0.0,0.4,-0.04,0.02,0.06,-3.19,4.63,0.03,0.01,-0.38,-0.0,-0.25,0.06,271.48,292.0,0.0,0.0,0.0,0.0
1776192136561307967,2900,0.0,1.0,0.0,0.7,-0.06,0.0,0.06,-3.19,4.63,0.03,0.02,-0.38,-0.06,0.06,-0.06,270.46,291.0,0.0,0.0,0.0,0.0
1776192136659636889,3000,0.0,1.4,0.0,0.1,-0.12,-0.12,0.06,-3.19,4.63,0.02,0.01,-0.39,-0.12,-0.0,0.12,272.51,291.0,0.0,0.0,0.0,0.0
1776192136761983337,3101,0.0,1.5,0.0,0.4,-0.06,-0.06,0.06,-3.19,4.63,0.03,0.02,-0.39,-0.0,0.19,0.0,271.48,290.0,0.0,0.0,0.0,0.0
1776192136860271593,3202,0.0,1.3,0.0,0.2,-0.06,0.04,0.06,-3.19,4.63,0.05,0.01,-0.37,-0.19,-0.12,-0.12,272.0,290.0,0.0,0.0,0.0,0.0
1776192136962692244,3302,0.0,1.3,0.0,0.1,0.02,-0.06,0.06,-3.19,4.63,0.02,0.02,-0.37,-0.06,-0.0,0.0,272.69,290.0,0.0,0.0,0.0,0.0
1776192137060994421,3401,0.0,1.4,0.0,0.2,0.08,0.02,0.06,-3.19,4.63,0.02,0.01,-0.38,0.06,0.06,-0.06,271.48,292.0,0.0,0.0,0.0,0.0
1776192137159288852,3501,0.0,1.3,0.0,1.0,-0.04,-0.14,0.06,-3.19,4.63,0.0,0.01,-0.4,0.12,-0.12,0.06,271.48,292.0,0.0,0.0,0.0,0.0
1776192137261700851,3601,0.0,0.2,0.0,1.2,-0.1,0.06,0.06,-3.19,4.63,0.03,0.02,-0.43,-0.06,-0.06,-0.06,271.48,290.0,0.0,0.0,0.0,0.0
1776192137359981782,3701,0.0,0.9,0.0,0.6,0.0,-0.1,0.06,-3.19,4.63,0.0,0.02,-0.39,0.12,-0.06,0.0,271.48,292.0,0.0,0.0,0.0,0.0
1776192137462378226,3801,0.0,1.0,0.0,0.5,-0.04,0.06,0.06,-3.19,4.63,0.03,0.01,-0.37,-0.0,-0.0,0.0,271.48,292.0,0.0,0.0,0.0,0.0
1776192137560677415,3901,0.0,1.1,0.0,0.4,0.08,-0.08,0.06,-3.19,4.63,0.02,0.01,-0.41,0.06,-0.06,0.0,271.48,291.0,0.0,0.0,0.0,0.0
1776192137658940217,4001,0.0,1.1,0.0,0.6,-0.1,-0.06,0.06,-3.19,4.63,0.02,0.03,-0.37,-0.12,-0.0,0.12,271.48,291.0,0.0,0.0,0.0,0.0
1776192137761360068,4101,0.0,0.9,0.0,0.2,-0.16,0.0,0.06,-3.19,4.63,0.03,0.03,-0.38,0.19,-0.12,0.0,271.48,291.0,0.0,0.0,0.0,0.0
1776192137859691368,4201,0.0,1.0,0.0,0.3,0.04,-0.02,0.06,-3.19,4.63,0.02,0.02,-0.39,-0.06,-0.06,0.0,271.48,291.0,0.0,0.0,0.0,0.0
1776192137968004393,4300,0.0,0.9,0.0,0.3,0.0,0.14,0.06,-3.19,4.63,0.02,-0.0,-0.36,-0.0,-0.12,-0.06,271.48,291.0,0.0,0.0,0.0,0.0
1776192138060350086,4400,0.0,0.9,0.0,0.5,0.08,-0.02,0.06,-3.19,4.63,0.02,0.02,-0.36,-0.06,0.19,0.06,272.51,292.0,0.0,0.0,0.0,0.0
1776192138162760627,4501,0.0,0.9,0.0,0.1,0.0,-0.14,0.06,-3.19,4.63,0.04,0.01,-0.38,0.06,0.06,0.06,271.66,292.0,0.0,0.0,0.0,0.0
1776192138261063926,4600,0.0,1.0,0.0,0.6,0.04,-0.02,0.06,-3.19,4.63,0.04,0.04,-0.37,-0.06,0.06,0.06,271.48,292.0,0.0,0.0,0.0,0.0
1776192138359334208,4700,0.0,0.1,0.0,1.4,-0.14,0.0,0.06,-3.19,4.63,0.03,0.03,-0.39,-0.06,0.12,-0.12,271.48,292.0,0.0,0.0,0.0,0.0
1776192138461749934,4800,0.0,0.4,0.0,1.7,0.12,-0.06,0.06,-3.19,4.63,0.02,0.02,-0.38,0.06,-0.06,0.0,273.03,291.0,0.0,0.0,0.0,0.0
1776192138560052992,4899,0.0,0.2,0.0,2.0,0.0,0.12,0.06,-3.19,4.63,0.04,-0.0,-0.38,0.06,0.06,0.06,272.0,291.0,0.0,0.0,0.0,0.0
1776192138662440237,4999,0.0,0.1,0.0,1.7,0.04,0.0,0.06,-3.19,4.63,0.01,0.02,-0.4,-0.0,0.06,0.0,272.51,292.0,0.0,0.0,0.0,0.0
1776192138760731926,5100,0.0,0.1,0.0,1.5,0.02,0.04,0.06,-3.19,4.63,0.03,0.02,-0.39,-0.06,-0.06,-0.12,272.0,290.0,0.0,0.0,0.0,0.0
1776192138859022096,5199,0.0,0.2,0.0,1.8,0.04,0.06,0.06,-3.19,4.63,0.02,0.02,-0.42,-0.0,-0.19,0.06,272.0,290.0,0.0,0.0,0.0,0.0
1776192138961428526,5299,0.0,0.2,0.0,1.5,0.02,-0.04,0.06,-3.19,4.63,0.01,0.01,-0.39,-0.06,-0.0,0.0,273.2,291.0,0.0,0.0,0.0,0.0
1776192139059730459,5400,0.0,0.1,0.0,1.0,-0.04,-0.02,0.06,-3.19,4.63,0.03,0.02,-0.37,-0.12,0.12,-0.06,271.48,291.0,0.0,0.0,0.0,0.0
1776192139162108644,5499,0.0,1.2,0.0,0.3,-0.1,0.0,0.06,-3.19,4.63,0.02,0.01,-0.4,-0.06,-0.0,0.0,271.48,291.0,0.0,0.0,0.0,0.0
1776192139260418377,5599,0.0,1.3,0.0,0.5,0.04,-0.1,0.06,-3.19,4.63,0.02,0.02,-0.39,-0.0,-0.12,-0.12,271.48,290.0,0.0,0.0,0.0,0.0
1776192139362810525,5700,0.0,1.5,0.0,0.6,-0.08,0.0,0.06,-3.19,4.63,0.03,0.03,-0.41,-0.0,-0.0,-0.06,272.51,290.0,0.0,0.0,0.0,0.0
1776192139461103332,5799,0.0,1.3,0.0,0.2,-0.02,0.12,0.06,-3.19,4.63,0.02,0.02,-0.38,0.06,0.06,0.06,272.69,291.0,0.0,0.0,0.0,0.0
1776192139563510054,5900,0.0,1.4,0.0,0.3,-0.02,0.02,0.06,-3.19,4.63,0.02,-0.0,-0.39,-0.0,0.12,0.06,273.2,291.0,0.0,0.0,0.0,0.0
1776192139661817916,6001,0.0,1.2,0.0,0.4,0.1,-0.16,0.06,-3.19,4.63,0.03,0.03,-0.4,-0.0,-0.06,0.0,273.03,291.0,0.0,0.0,0.0,0.0
1776192139764194361,6102,0.0,1.4,0.0,0.3,0.08,-0.02,0.06,-3.19,4.63,0.03,-0.01,-0.36,-0.06,0.06,0.0,272.51,292.0,0.0,0.0,0.0,0.0
1776192139862460761,6202,0.0,0.3,0.0,0.6,0.02,0.04,0.06,-3.19,4.63,0.04,-0.0,-0.39,-0.0,-0.0,-0.12,271.48,292.0,0.0,0.0,0.0,0.0
1776192139964901778,6302,0.0,0.9,0.0,0.4,-0.14,-0.14,0.06,-3.19,4.63,0.05,0.02,-0.41,0.06,-0.0,0.0,272.51,292.0,0.0,0.0,0.0,0.0
1776192140063176886,6402,0.0,1.1,0.0,0.3,0.06,-0.06,0.06,-3.19,4.63,0.03,0.02,-0.39,0.12,-0.06,0.06,273.03,291.0,0.0,0.0,0.0,0.0
1776192140165581094,6502,0.0,1.0,0.0,0.5,-0.02,-0.04,0.06,-3.19,4.63,0.06,0.02,-0.39,-0.0,-0.06,-0.06,272.51,291.0,0.0,0.0,0.0,0.0
1776192140263876549,6602,0.0,0.7,0.0,0.4,-0.02,0.0,0.06,-3.19,4.63,0.04,0.02,-0.38,-0.12,0.12,0.12,273.2,291.0,0.0,0.0,0.0,0.0
1776192140366278516,6702,0.0,0.8,0.0,0.1,0.2,-0.02,0.06,-3.19,4.63,0.02,0.02,-0.38,-0.06,0.06,0.0,271.48,291.0,0.0,0.0,0.0,0.0
1776192140464579526,6803,0.0,1.0,0.0,0.3,-0.06,0.02,0.06,-3.19,4.63,0.02,-0.0,-0.37,-0.0,0.12,-0.12,271.48,291.0,0.0,0.0,0.0,0.0
1776192140562838704,6903,0.0,0.9,0.0,0.4,0.0,0.0,0.06,-3.19,4.63,0.02,0.01,-0.4,0.12,-0.0,0.0,271.48,291.0,0.0,0.0,0.0,0.0
1776192140665265300,7003,0.0,1.1,0.0,0.2,0.04,0.14,0.06,-3.19,4.63,0.02,0.01,-0.37,0.06,-0.0,-0.12,271.48,291.0,0.0,0.0,0.0,0.0
1776192140763550329,7103,0.0,1.0,0.0,0.3,0.06,0.0,0.06,-3.19,4.63,0.03,0.02,-0.38,-0.0,0.06,0.06,272.0,291.0,0.0,0.0,0.0,0.0
1776192140865930111,7202,0.0,1.1,0.0,0.3,0.04,-0.06,0.06,-3.19,4.63,0.02,0.04,-0.39,-0.06,-0.06,-0.06,272.69,291.0,0.0,0.0,0.0,0.0
1776192140964264973,7302,0.0,1.0,0.0,0.3,0.02,0.08,0.06,-3.19,4.63,0.02,0.02,-0.39,-0.06,-0.12,-0.06,272.51,292.0,0.0,0.0,0.0,0.0
1776192141062546347,7402,0.0,1.2,0.0,0.6,0.06,-0.08,0.06,-3.19,4.63,0.03,0.02,-0.4,-0.0,-0.12,0.0,272.51,292.0,0.0,0.0,0.0,0.0
1776192141170910534,7501,0.0,1.0,0.0,0.3,-0.02,0.08,0.06,-3.19,4.63,0.01,-0.0,-0.4,-0.0,-0.0,0.06,271.48,292.0,0.0,0.0,0.0,0.0
1776192141263305903,7601,0.0,1.1,0.0,0.3,0.02,-0.14,0.06,-3.19,4.63,-0.01,0.02,-0.42,0.12,0.06,0.06,272.69,292.0,0.0,0.0,0.0,0.0
1776192141361525869,7701,0.0,0.9,0.0,0.2,0.02,-0.1,0.06,-3.19,4.63,0.04,0.02,-0.39,0.06,0.06,-0.12,272.51,292.0,0.0,0.0,0.0,0.0
1776192141466703189,7800,0.0,0.4,0.0,1.5,0.04,-0.06,0.06,-3.19,4.63,0.02,0.02,-0.39,-0.06,-0.06,-0.12,271.48,292.0,0.0,0.0,0.0,0.0
1776192141562269537,7900,0.0,0.3,0.0,1.3,0.1,0.08,0.06,-3.19,4.63,0.01,-0.0,-0.41,-0.0,0.06,-0.06,271.48,292.0,0.0,0.0,0.0,0.0
1776192141660546780,8000,0.0,0.2,0.0,1.7,0.06,-0.1,0.06,-3.19,4.63,0.03,0.02,-0.39,0.06,-0.06,0.0,271.48,291.0,0.0,0.0,0.0,0.0
1776192141762920632,8099,0.0,0.3,0.0,1.7,0.08,0.0,0.06,-3.19,4.63,0.03,0.01,-0.39,0.19,-0.06,0.06,273.03,291.0,0.0,0.0,0.0,0.0
1776192141861237504,8199,0.0,0.0,0.0,1.6,0.04,-0.08,0.06,-3.19,4.63,0.01,0.01,-0.41,0.06,-0.0,0.0,272.0,291.0,0.0,0.0,0.0,0.0
1776192141959510840,8299,0.0,1.3,0.0,0.6,-0.04,-0.08,0.06,-3.19,4.63,0.03,-0.0,-0.41,0.12,-0.06,-0.06,272.0,292.0,0.0,0.0,0.0,0.0
1776192142061921407,8398,0.0,1.5,0.0,0.5,-0.02,0.12,0.06,-3.19,4.63,0.02,0.01,-0.37,-0.0,-0.19,-0.06,271.48,291.0,0.0,0.0,0.0,0.0
1776192142164321599,8499,0.0,1.4,0.0,0.4,0.02,0.0,0.06,-3.19,4.63,0.02,0.01,-0.38,-0.12,0.12,0.0,272.69,291.0,0.0,0.0,0.0,0.0
1776192142262611566,8600,0.0,1.1,0.0,0.3,-0.06,-0.1,0.06,-3.19,4.63,0.02,-0.0,-0.39,-0.0,0.06,0.06,271.48,290.0,0.0,0.0,0.0,0.0
1776192142360922366,8699,0.0,1.3,0.0,0.5,0.12,0.06,0.06,-3.19,4.63,0.02,0.01,-0.39,-0.06,-0.12,0.0,271.48,290.0,0.0,0.0,0.0,0.0
1776192142463304485,8799,0.0,1.4,0.0,0.3,0.0,-0.14,0.06,-3.19,4.63,0.03,0.01,-0.38,-0.12,0.06,-0.12,272.51,292.0,0.0,0.0,0.0,0.0
1776192142561608007,8899,0.0,1.5,0.0,0.2,-0.06,-0.06,0.06,-3.19,4.63,0.03,0.02,-0.39,0.06,0.19,0.0,271.48,292.0,0.0,0.0,0.0,0.0
1776192142664006644,8999,0.0,1.2,0.0,0.5,0.0,-0.1,0.06,-3.19,4.63,0.02,-0.0,-0.38,-0.0,0.12,0.06,272.51,292.0,0.0,0.0,0.0,0.0
1776192142762257537,9100,0.0,1.5,0.0,0.1,-0.14,-0.02,0.06,-3.19,4.63,0.03,0.03,-0.36,-0.12,0.06,-0.06,272.51,290.0,0.0,0.0,0.0,0.0
1776192142864667692,9201,0.0,1.3,0.0,0.4,0.12,0.02,0.06,-3.19,4.63,0.03,0.02,-0.38,0.06,-0.12,0.0,272.17,291.0,0.0,0.0,0.0,0.0
1776192142963014158,9300,0.0,1.3,0.0,0.1,0.1,-0.06,0.06,-3.19,4.63,0.02,0.01,-0.39,0.06,-0.0,0.06,271.48,291.0,0.0,0.0,0.0,0.0
1776192143061275314,9400,0.0,1.6,0.0,0.3,-0.04,0.0,0.06,-3.19,4.63,0.03,0.02,-0.39,-0.06,0.19,0.0,272.51,291.0,0.0,0.0,0.0,0.0
1776192143163696228,9499,0.0,1.4,0.0,0.3,-0.06,-0.14,0.06,-3.19,4.63,0.02,0.02,-0.37,-0.06,0.06,-0.06,271.66,292.0,0.0,0.0,0.0,0.0
1776192143261991912,9600,0.0,1.4,0.0,0.3,-0.04,-0.02,0.06,-3.19,4.63,0.03,-0.0,-0.4,-0.12,-0.0,-0.06,267.37,292.0,0.0,0.0,0.0,0.0
1776192143364387623,9700,0.0,1.4,0.0,0.6,0.04,-0.02,0.06,-3.19,4.63,0.02,0.02,-0.38,-0.06,-0.06,0.0,271.48,292.0,0.0,0.0,0.0,0.0
1776192143462683677,9800,0.0,1.6,0.0,0.3,-0.02,0.04,0.06,-3.19,4.63,0.02,0.03,-0.41,-0.0,-0.0,0.0,267.37,290.0,0.0,0.0,0.0,0.0
1776192143565095369,9901,0.0,1.0,0.0,0.5,0.1,-0.04,0.06,-3.19,4.63,0.02,-0.0,-0.38,0.12,-0.06,0.12,272.69,290.0,0.0,0.0,0.0,0.0
1776192143663353054,10002,0.0,1.5,0.0,0.4,0.02,0.04,0.06,-3.19,4.63,0.01,0.03,-0.39,-0.06,-0.06,-0.12,272.51,292.0,0.0,0.0,0.0,0.0
1776192143765772745,10101,0.0,1.3,0.0,0.2,0.02,-0.08,0.06,-3.19,4.63,0.05,0.03,-0.39,-0.06,0.12,-0.06,268.57,292.0,0.0,0.0,0.0,0.0
1776192143864068430,10201,0.0,1.4,0.0,0.3,-0.04,0.0,0.06,-3.19,4.63,0.02,0.02,-0.37,0.06,-0.0,-0.06,272.69,290.0,0.0,0.0,0.0,0.0
1776192143966462899,10302,0.0,1.4,0.0,0.2,-0.04,-0.12,0.06,-3.19,4.63,0.03,0.03,-0.4,0.06,-0.0,0.12,271.66,291.0,0.0,0.0,0.0,0.0
1776192144064766156,10402,0.0,1.5,0.0,0.1,0.08,0.0,0.06,-3.19,4.63,0.02,0.01,-0.41,-0.12,0.06,0.12,267.37,291.0,0.0,0.0,0.0,0.0
1776192144167170266,10502,0.0,1.5,0.0,0.1,-0.04,0.0,0.06,-3.19,4.63,0.02,0.03,-0.41,-0.06,-0.19,-0.12,272.69,290.0,0.0,0.0,0.0,0.0
1776192144265457624,10603,0.0,1.5,0.0,0.5,-0.06,-0.08,0.06,-3.19,4.63,0.02,0.01,-0.4,0.06,0.06,0.06,267.37,293.0,0.0,0.0,0.0,0.0
1776192144363722649,10702,0.0,1.3,0.0,0.6,0.04,-0.12,0.06,-3.19,4.63,0.01,0.02,-0.37,0.06,-0.0,0.06,267.37,293.0,0.0,0.0,0.0,0.0
1776192144466150870,10802,0.0,1.6,0.0,0.1,-0.08,0.0,0.06,-3.19,4.63,0.05,-0.0,-0.38,-0.19,0.06,0.06,272.69,291.0,0.0,0.0,0.0,0.0
1776192144564451413,10902,0.0,1.4,0.0,0.5,-0.12,-0.08,0.06,-3.19,4.63,0.01,0.02,-0.35,-0.0,0.06,0.06,272.69,291.0,0.0,0.0,0.0,0.0
1776192144666862801,11002,0.0,1.5,0.0,0.5,-0.04,0.12,0.06,-3.19,4.63,0.02,-0.0,-0.37,0.12,-0.12,-0.06,273.03,291.0,0.0,0.0,0.0,0.0
1776192144765123919,11102,0.0,1.2,0.0,0.3,-0.04,0.02,0.06,-3.19,4.63,0.02,0.02,-0.39,-0.0,-0.12,0.0,272.69,291.0,0.0,0.0,0.0,0.0
1776192144867529974,11202,0.0,1.2,0.0,0.4,0.0,0.16,0.06,-3.19,4.63,0.03,-0.0,-0.39,-0.06,0.12,0.0,272.51,291.0,0.0,0.0,0.0,0.0
1776192144965836757,11302,0.0,1.3,0.0,0.3,-0.18,-0.04,0.06,-3.19,4.63,0.03,0.03,-0.39,0.06,-0.06,0.0,272.51,290.0,0.0,0.0,0.0,0.0
1776192145068239201,11402,0.0,1.1,0.0,0.7,0.02,-0.2,0.06,-3.19,4.63,0.01,0.02,-0.39,-0.0,0.06,-0.06,271.48,291.0,0.0,0.0,0.0,0.0
1776192145166544690,11502,0.0,1.5,0.0,0.4,0.02,-0.02,0.06,-3.19,4.63,0.03,0.02,-0.38,-0.06,-0.12,0.06,271.48,291.0,0.0,0.0,0.0,0.0
1776192145264833585,11601,0.0,1.3,0.0,0.3,-0.08,0.04,0.06,-3.19,4.63,0.01,0.01,-0.36,-0.0,-0.06,0.0,271.48,292.0,0.0,0.0,0.0,0.0
1776192145367224571,11701,0.0,1.4,0.0,0.5,-0.1,0.0,0.06,-3.19,4.63,0.03,0.03,-0.37,-0.12,-0.25,0.06,273.03,292.0,0.0,0.0,0.0,0.0
1776192145465521559,11801,0.0,1.3,0.0,0.3,0.1,0.06,0.06,-3.19,4.63,0.02,0.03,-0.38,0.06,-0.19,0.0,272.51,292.0,0.0,0.0,0.0,0.0
1776192145563842177,11900,0.0,1.5,0.0,0.1,-0.06,0.0,0.06,-3.19,4.63,0.01,0.02,-0.38,-0.0,-0.12,-0.06,272.51,292.0,0.0,0.0,0.0,0.0
1776192145666193570,12000,0.0,1.3,0.0,0.5,0.02,-0.06,0.06,-3.19,4.63,0.03,0.03,-0.36,0.12,-0.0,-0.06,271.48,292.0,0.0,0.0,0.0,0.0
1776192145764505170,12101,0.0,1.2,0.0,0.3,0.04,-0.12,0.06,-3.19,4.63,0.04,0.01,-0.39,-0.06,-0.12,0.12,271.48,292.0,0.0,0.0,0.0,0.0
1776192145866881137,12200,0.0,1.3,0.0,0.6,0.06,-0.08,0.06,-3.19,4.63,0.02,0.01,-0.37,0.12,0.06,0.0,271.48,293.0,0.0,0.0,0.0,0.0
1776192145965215254,12301,0.0,1.1,0.0,0.1,-0.04,0.04,0.06,-3.19,4.63,0.02,0.01,-0.38,-0.0,-0.0,-0.19,271.48,293.0,0.0,0.0,0.0,0.0
1776192146067630759,12401,0.0,1.2,0.0,0.3,0.1,-0.06,0.06,-3.19,4.63,0.04,0.01,-0.39,0.06,0.06,-0.06,271.48,290.0,0.0,0.0,0.0,0.0
1776192146165921965,12502,0.0,1.2,0.0,0.2,0.0,-0.06,0.06,-3.19,4.63,0.03,0.02,-0.36,-0.12,0.06,0.06,271.48,292.0,0.0,0.0,0.0,0.0
1776192146268309319,12602,0.0,1.3,0.0,0.3,0.1,-0.06,0.06,-3.19,4.63,0.02,0.01,-0.4,-0.19,0.06,-0.06,271.48,292.0,0.0,0.0,0.0,0.0
1776192146366595507,12702,0.0,1.6,0.0,0.3,0.06,-0.1,0.06,-3.19,4.63,0.01,0.02,-0.39,-0.0,0.06,0.06,271.48,291.0,0.0,0.0,0.0,0.0
1776192146468992287,12802,0.0,1.4,0.0,0.3,-0.1,-0.12,0.06,-3.19,4.63,0.02,0.03,-0.4,0.06,-0.06,0.0,271.48,291.0,0.0,0.0,0.0,0.0
1776192146567289733,12903,0.0,1.4,0.0,0.2,0.16,0.04,0.06,-3.19,4.63,0.04,0.02,-0.38,-0.0,-0.06,-0.06,271.48,291.0,0.0,0.0,0.0,0.0
1776192146669706069,13003,0.0,1.5,0.0,0.3,0.02,0.1,0.06,-3.19,4.63,0.03,0.03,-0.41,-0.0,0.06,0.06,272.51,292.0,0.0,0.0,0.0,0.0
1776192146767989534,13103,0.0,1.3,0.0,0.3,0.02,-0.1,0.06,-3.19,4.63,0.06,-0.0,-0.41,-0.12,-0.0,0.06,271.48,293.0,0.0,0.0,0.0,0.0
1776192146870389610,13204,0.0,1.4,0.0,0.2,-0.04,0.0,0.06,-3.19,4.63,0.03,0.02,-0.39,-0.06,0.06,-0.06,272.51,293.0,0.0,0.0,0.0,0.0
1776192146968682297,13304,0.0,1.6,0.0,0.3,-0.04,-0.06,0.06,-3.19,4.63,0.04,0.01,-0.41,-0.12,0.12,-0.06,271.48,292.0,0.0,0.0,0.0,0.0
1776192147071076375,13404,0.0,1.3,0.0,0.1,-0.04,-0.06,0.06,-3.19,4.63,0.03,0.01,-0.42,-0.0,-0.06,-0.06,271.48,292.0,0.0,0.0,0.0,0.0
1776192147169375884,13504,0.0,1.6,0.0,0.3,0.12,-0.1,0.06,-3.19,4.63,0.03,0.04,-0.42,-0.06,0.06,-0.06,272.51,292.0,0.0,0.0,0.0,0.0
1776192147271761250,13604,0.0,1.3,0.0,0.4,0.1,-0.08,0.06,-3.19,4.63,0.02,0.01,-0.34,-0.0,-0.0,-0.12,272.51,291.0,0.0,0.0,0.0,0.0
1776192147370078130,13705,0.0,1.3,0.0,0.1,0.04,0.02,0.06,-3.19,4.63,0.03,0.01,-0.38,-0.0,0.19,0.06,271.48,291.0,0.0,0.0,0.0,0.0
1776192147468337492,13805,0.0,1.1,0.0,0.2,-0.14,0.0,0.06,-3.19,4.63,0.01,-0.0,-0.36,0.06,0.06,0.0,271.48,292.0,0.0,0.0,0.0,0.0
1776192147570761469,13904,0.0,1.2,0.0,0.3,-0.06,-0.06,0.06,-3.19,4.63,0.01,0.02,-0.38,-0.06,-0.19,-0.06,271.48,290.0,0.0,0.0,0.0,0.0
1776192147669113571,14004,0.0,1.5,0.0,0.2,-0.08,-0.02,0.06,-3.19,4.63,0.03,0.01,-0.39,0.06,-0.06,0.0,272.0,290.0,0.0,0.0,0.0,0.0
1776192147777391881,14104,0.0,1.7,0.0,0.4,0.12,-0.04,0.06,-3.19,4.63,0.0,0.01,-0.38,-0.0,0.06,0.0,272.0,293.0,0.0,0.0,0.0,0.0
1776192147869753762,14203,0.0,1.6,0.0,0.2,0.04,-0.12,0.06,-3.19,4.63,0.0,0.02,-0.38,0.12,-0.0,0.0,272.0,291.0,0.0,0.0,0.0,0.0
1776192147968059456,14303,0.0,0.9,0.0,0.6,0.06,0.02,0.06,-3.19,4.63,0.03,0.01,-0.39,0.19,0.12,-0.06,273.2,291.0,0.0,0.0,0.0,0.0
1776192148070446097,14403,0.0,0.7,0.0,0.4,-0.02,-0.06,0.06,-3.19,4.63,0.01,0.02,-0.4,0.06,0.12,-0.06,272.51,292.0,0.0,0.0,0.0,0.0
1776192148168746924,14502,0.0,1.1,0.0,0.3,0.04,0.12,0.06,-3.19,4.63,0.03,0.04,-0.38,-0.0,-0.06,-0.06,270.28,293.0,0.0,0.0,0.0,0.0
1776192148266984808,14602,0.0,0.9,0.0,0.4,0.04,-0.04,0.06,-3.19,4.63,0.03,0.02,-0.38,-0.06,-0.06,0.0,273.03,293.0,0.0,0.0,0.0,0.0
1776192148369444364,14703,0.0,1.0,0.0,0.4,0.14,0.14,0.06,-3.19,4.63,0.03,0.03,-0.42,0.06,-0.06,-0.06,272.0,292.0,0.0,0.0,0.0,0.0
1776192148467748914,14802,0.0,0.9,0.0,0.4,0.0,0.08,0.06,-3.19,4.63,0.02,0.03,-0.39,-0.0,-0.0,0.0,271.66,292.0,0.0,0.0,0.0,0.0
1776192148570136564,14902,0.0,1.0,0.0,0.2,0.12,-0.06,0.06,-3.19,4.63,0.03,0.03,-0.4,-0.12,-0.0,0.06,272.69,292.0,0.0,0.0,0.0,0.0
1776192148668405595,15002,0.0,1.0,0.0,0.1,-0.02,-0.02,0.06,-3.19,4.63,0.04,0.02,-0.39,-0.0,-0.06,-0.12,272.51,290.0,0.0,0.0,0.0,0.0
1776192148766733756,15101,0.0,0.9,0.0,0.1,-0.02,-0.21,0.06,-3.19,4.63,0.04,0.01,-0.39,0.12,-0.0,0.0,272.69,290.0,0.0,0.0,0.0,0.0
1776192148875072243,15201,0.0,0.8,0.0,0.1,0.0,-0.1,0.06,-3.19,4.63,0.03,0.02,-0.39,-0.06,-0.0,0.06,272.69,291.0,0.0,0.0,0.0,0.0
1776192148967429399,15300,0.0,0.9,0.0,0.3,-0.06,0.06,0.06,-3.19,4.63,0.02,0.02,-0.37,0.12,-0.0,0.0,272.0,290.0,0.0,0.0,0.0,0.0
1776192149065727970,15399,0.0,1.1,0.0,0.3,0.0,-0.1,0.06,-3.19,4.63,0.02,-0.0,-0.35,0.12,-0.12,0.12,271.48,290.0,0.0,0.0,0.0,0.0
1776192149168151972,15499,0.0,1.0,0.0,0.5,-0.02,-0.1,0.06,-3.19,4.63,0.01,0.03,-0.39,0.12,0.06,-0.06,272.69,292.0,0.0,0.0,0.0,0.0
1776192149266419965,15599,0.0,1.0,0.0,0.6,-0.06,0.02,0.06,-3.19,4.63,0.03,0.02,-0.41,-0.12,0.06,-0.06,272.69,292.0,0.0,0.0,0.0,0.0
1776192149364723735,15699,0.0,0.9,0.0,0.1,0.04,0.1,0.06,-3.19,4.63,0.02,0.02,-0.43,0.06,-0.12,0.06,272.51,292.0,0.0,0.0,0.0,0.0
1776192149467122071,15799,0.0,1.2,0.0,0.5,-0.02,-0.1,0.06,-3.19,4.63,0.02,0.01,-0.38,-0.0,0.06,-0.06,272.51,290.0,0.0,0.0,0.0,0.0
1776192149565422933,15899,0.0,1.1,0.0,0.5,0.06,-0.08,0.06,-3.19,4.63,0.04,0.03,-0.4,-0.12,0.06,0.06,272.69,290.0,0.0,0.0,0.0,0.0
1776192149663726129,15998,0.0,1.1,0.0,0.5,-0.08,0.0,0.06,-3.19,4.63,0.01,0.02,-0.41,-0.06,-0.12,0.0,267.37,293.0,0.0,0.0,0.0,0.0
1776192149766107872,16098,0.0,1.1,0.0,1.2,0.04,0.1,0.06,-3.19,4.63,0.02,0.02,-0.4,0.06,-0.12,-0.06,272.51,291.0,0.0,0.0,0.0,0.0
1776192149864384828,16197,0.0,0.1,0.0,0.1,0.04,-0.06,0.06,-3.19,4.63,0.0,0.03,-0.37,0.06,-0.06,-0.12,267.37,291.0,0.0,0.0,0.0,0.0
1776192149962675672,16296,0.0,1.2,0.0,0.3,0.1,-0.1,0.06,-3.19,4.63,0.02,0.03,-0.37,0.12,0.12,-0.06,268.4,292.0,0.0,0.0,0.0,0.0
1776192150065105883,16397,0.0,1.5,0.0,0.3,0.1,0.02,0.06,-3.19,4.63,0.01,0.01,-0.39,0.06,0.06,0.0,271.48,292.0,0.0,0.0,0.0,0.0
1776192150163442368,16497,0.0,1.5,0.0,0.2,0.08,0.08,0.06,-3.19,4.63,0.03,0.03,-0.41,-0.12,-0.0,-0.12,271.48,292.0,0.0,0.0,0.0,0.0
1776192150261706651,16596,0.0,1.2,0.0,0.6,0.06,0.06,0.06,-3.19,4.63,0.03,-0.0,-0.4,-0.0,-0.12,0.06,271.48,289.0,0.0,0.0,0.0,0.0
1776192150364094094,16696,0.0,1.3,0.0,0.7,0.1,0.0,0.06,-3.19,4.63,0.02,-0.0,-0.38,-0.06,-0.12,-0.06,267.37,289.0,0.0,0.0,0.0,0.0
1776192150462377247,16796,0.0,1.3,0.0,0.2,-0.04,0.1,0.06,-3.19,4.63,0.01,0.03,-0.38,-0.12,0.06,0.0,267.37,293.0,0.0,0.0,0.0,0.0
1776192150564818967,16896,0.0,1.2,0.0,0.4,0.08,-0.04,0.06,-3.19,4.63,0.03,0.02,-0.38,-0.12,-0.0,0.0,272.51,290.0,0.0,0.0,0.0,0.0
1776192150663042565,16997,0.0,1.4,0.0,0.3,0.06,-0.06,0.06,-3.19,4.63,0.02,0.04,-0.4,-0.06,-0.0,0.0,271.48,290.0,0.0,0.0,0.0,0.0
1776192150765488545,17097,0.0,1.2,0.0,0.3,0.04,-0.2,0.06,-3.19,4.63,0.01,0.02,-0.41,-0.19,0.06,0.12,272.51,292.0,0.0,0.0,0.0,0.0
1776192150863785438,17197,0.0,1.3,0.0,0.5,0.08,-0.1,0.06,-3.19,4.63,0.02,0.02,-0.42,-0.06,-0.19,-0.06,267.2,292.0,0.0,0.0,0.0,0.0
1776192150966184270,17297,0.0,1.4,0.0,0.2,0.0,-0.06,0.06,-3.19,4.63,0.03,-0.0,-0.43,-0.0,-0.0,0.06,267.37,292.0,0.0,0.0,0.0,0.0
1776192151064466663,17397,0.0,1.3,0.0,0.5,-0.2,-0.1,0.06,-3.19,4.63,0.03,0.02,-0.41,-0.06,-0.0,0.06,267.2,294.0,0.0,0.0,0.0,0.0
1776192151166871580,17497,0.0,1.4,0.0,0.2,-0.1,-0.08,0.06,-3.19,4.63,0.02,0.02,-0.38,-0.0,-0.06,-0.06,271.48,292.0,0.0,0.0,0.0,0.0
1776192151265175962,17598,0.0,1.2,0.0,0.3,-0.02,0.04,0.06,-3.19,4.63,0.04,0.01,-0.41,0.06,-0.0,0.0,267.37,292.0,0.0,0.0,0.0,0.0
1776192151367625841,17698,0.0,1.3,0.0,0.3,0.02,0.0,0.06,-3.19,4.63,0.02,0.02,-0.4,-0.0,-0.0,0.06,272.51,292.0,0.0,0.0,0.0,0.0
1776192151465873669,17798,0.0,1.4,0.0,0.6,-0.1,-0.2,0.06,-3.19,4.63,0.03,0.04,-0.38,-0.0,-0.0,0.06,271.48,292.0,0.0,0.0,0.0,0.0
1776192151564167514,17898,0.0,1.4,0.0,0.6,0.0,-0.08,0.06,-3.19,4.63,0.03,0.01,-0.39,0.06,-0.0,0.06,267.88,292.0,0.0,0.0,0.0,0.0
1776192151666554838,17997,0.0,1.2,0.0,0.5,0.0,0.12,0.06,-3.19,4.63,0.03,0.02,-0.37,-0.0,-0.06,-0.06,267.2,292.0,0.0,0.0,0.0,0.0
1776192151768919108,18098,0.0,1.2,0.0,0.2,0.0,-0.08,0.06,-3.19,4.63,0.03,0.01,-0.4,-0.12,-0.0,0.12,271.48,292.0,0.0,0.0,0.0,0.0
1776192151867238286,18199,0.0,1.5,0.0,0.3,0.08,-0.14,0.06,-3.19,4.63,0.01,0.03,-0.42,-0.0,-0.0,0.0,271.48,292.0,0.0,0.0,0.0,0.0
1776192151965554761,18298,0.0,1.3,0.0,0.3,-0.1,-0.12,0.06,-3.19,4.63,0.03,0.01,-0.43,-0.0,-0.0,-0.06,267.37,292.0,0.0,0.0,0.0,0.0
1776192152067962640,18398,0.0,1.5,0.0,0.1,0.02,-0.12,0.06,-3.19,4.63,0.03,0.01,-0.38,-0.06,-0.06,0.06,268.4,292.0,0.0,0.0,0.0,0.0
1776192152166263323,18498,0.0,1.3,0.0,0.5,0.06,-0.02,0.06,-3.19,4.63,0.04,0.02,-0.37,0.06,-0.06,0.0,272.51,291.0,0.0,0.0,0.0,0.0
1776192152264528376,18598,0.0,1.3,0.0,0.2,0.02,0.0,0.06,-3.19,4.63,0.02,0.01,-0.39,-0.12,-0.06,0.0,271.48,291.0,0.0,0.0,0.0,0.0
1776192152366970039,18698,0.0,1.4,0.0,0.5,-0.16,-0.04,0.06,-3.19,4.63,0.04,0.03,-0.35,-0.0,0.06,-0.12,271.48,291.0,0.0,0.0,0.0,0.0
1776192152465253944,18798,0.0,1.4,0.0,0.3,0.16,-0.1,0.06,-3.19,4.63,0.02,-0.0,-0.36,0.06,-0.06,-0.06,272.51,290.0,0.0,0.0,0.0,0.0
1776192152567650664,18897,0.0,1.4,0.0,0.5,-0.12,0.04,0.06,-3.19,4.63,0.03,0.01,-0.38,0.06,-0.06,-0.12,272.51,291.0,0.0,0.0,0.0,0.0
1776192152665953494,18998,0.0,1.3,0.0,0.2,-0.12,0.04,0.06,-3.19,4.63,0.02,0.02,-0.4,0.12,0.06,-0.06,271.48,291.0,0.0,0.0,0.0,0.0
1776192152774275660,19098,0.0,1.3,0.0,0.2,-0.04,-0.12,0.06,-3.19,4.63,0.02,-0.0,-0.4,0.19,-0.0,-0.06,271.48,292.0,0.0,0.0,0.0,0.0
1776192152866627341,19197,0.0,1.3,0.0,0.5,0.0,-0.04,0.06,-3.19,4.63,0.03,0.01,-0.38,-0.0,-0.0,-0.06,271.48,292.0,0.0,0.0,0.0,0.0
1776192152964939505,19297,0.0,1.5,0.0,0.3,0.02,-0.1,0.06,-3.19,4.63,0.02,0.02,-0.4,-0.06,0.12,-0.06,268.23,291.0,0.0,0.0,0.0,0.0
1776192153067326832,19397,0.0,1.3,0.0,0.4,0.0,-0.06,0.06,-3.19,4.63,0.03,0.03,-0.39,0.19,-0.06,0.0,272.17,292.0,0.0,0.0,0.0,0.0
1776192153165641182,19497,0.0,1.3,0.0,0.2,-0.1,0.04,0.06,-3.19,4.63,0.03,0.02,-0.38,-0.12,-0.0,0.06,268.4,292.0,0.0,0.0,0.0,0.0
1776192153268027089,19598,0.0,1.8,0.0,0.3,0.14,-0.02,0.06,-3.19,4.63,0.01,0.02,-0.37,-0.0,-0.0,-0.06,268.4,290.0,0.0,0.0,0.0,0.0
1776192153366330975,19697,0.0,1.3,0.0,0.1,-0.02,-0.02,0.06,-3.19,4.63,0.04,0.02,-0.37,0.06,0.06,0.0,272.51,291.0,0.0,0.0,0.0,0.0
1776192153464626491,19796,0.0,1.1,0.0,0.3,-0.04,0.16,0.06,-3.19,4.63,0.02,0.01,-0.36,-0.19,0.25,-0.06,267.37,291.0,0.0,0.0,0.0,0.0
1776192153562911859,19896,0.0,1.1,0.0,0.2,-0.04,-0.1,0.06,-3.19,4.63,0.02,0.01,-0.38,0.12,0.25,0.06,271.48,291.0,0.0,0.0,0.0,0.0
1776192153665325544,19995,0.0,1.3,0.0,0.2,0.1,-0.06,0.06,-3.19,4.63,0.01,0.02,-0.39,-0.0,0.12,0.0,271.48,291.0,0.0,0.0,0.0,0.0
1776192153763629319,20094,0.0,1.3,0.0,0.2,0.04,0.0,0.06,-3.19,4.63,0.01,0.04,-0.42,-0.06,0.12,0.0,271.48,292.0,0.0,0.0,0.0,0.0
1776192153861917632,20194,0.0,1.3,0.0,0.2,0.08,-0.02,0.06,-3.19,4.63,0.02,0.01,-0.38,-0.0,0.12,0.06,271.48,290.0,0.0,0.0,0.0,0.0
1776192153964323187,20294,0.0,1.2,0.0,0.3,0.04,-0.08,0.06,-3.19,4.63,0.02,0.03,-0.37,-0.12,-0.0,0.0,272.51,290.0,0.0,0.0,0.0,0.0
1776192154062614642,20393,0.0,1.2,0.0,0.2,-0.12,0.0,0.06,-3.19,4.63,0.02,0.02,-0.4,-0.0,-0.0,0.0,267.2,292.0,0.0,0.0,0.0,0.0
1776192154165019826,20493,0.0,1.5,0.0,0.5,0.14,-0.02,0.06,-3.19,4.63,0.04,-0.0,-0.39,-0.0,0.19,0.0,272.51,290.0,0.0,0.0,0.0,0.0
1776192154263318468,20594,0.0,1.4,0.0,0.5,0.14,-0.14,0.06,-3.19,4.63,0.02,-0.0,-0.4,-0.0,-0.0,0.06,271.48,290.0,0.0,0.0,0.0,0.0
1776192154365708671,20694,0.0,1.3,0.0,0.0,-0.08,0.1,0.06,-3.19,4.63,0.02,0.01,-0.36,-0.06,-0.12,0.0,272.51,291.0,0.0,0.0,0.0,0.0
1776192154464014535,20795,0.0,1.4,0.0,0.3,-0.06,-0.14,0.06,-3.19,4.63,0.01,0.05,-0.38,-0.06,0.12,0.19,271.48,291.0,0.0,0.0,0.0,0.0
1776192154562315381,20894,0.0,1.5,0.0,0.2,0.12,0.0,0.06,-3.19,4.63,0.04,0.02,-0.37,-0.06,-0.0,-0.12,267.37,291.0,0.0,0.0,0.0,0.0
1776192154664696047,20994,0.0,1.4,0.0,0.5,0.08,-0.12,0.06,-3.19,4.63,0.02,-0.0,-0.4,-0.0,-0.12,0.0,267.37,292.0,0.0,0.0,0.0,0.0
1776192154763028652,21095,0.0,1.3,0.0,0.1,-0.04,-0.1,0.06,-3.19,4.63,0.01,-0.0,-0.38,-0.06,-0.06,0.06,268.4,290.0,0.0,0.0,0.0,0.0
1776192154871334918,21194,0.0,1.3,0.0,0.2,0.0,0.0,0.06,-3.19,4.63,0.01,0.03,-0.38,0.06,0.06,0.0,267.37,290.0,0.0,0.0,0.0,0.0
1776192154963704737,21294,0.0,1.4,0.0,0.3,0.04,0.18,0.06,-3.19,4.63,0.02,0.01,-0.38,-0.0,-0.12,0.0,267.37,291.0,0.0,0.0,0.0,0.0
1776192155066095674,21394,0.0,1.7,0.0,0.4,0.04,-0.06,0.06,-3.19,4.63,0.03,-0.0,-0.36,0.06,-0.06,0.06,267.37,291.0,0.0,0.0,0.0,0.0
1776192155164393588,21494,0.0,1.2,0.0,0.4,0.0,0.08,0.06,-3.19,4.63,0.0,0.02,-0.4,-0.0,0.12,0.06,267.2,291.0,0.0,0.0,0.0,0.0
1776192155266784712,21595,0.0,1.3,0.0,0.2,-0.02,0.02,0.06,-3.19,4.63,0.0,0.03,-0.39,-0.06,-0.12,0.0,267.37,289.0,0.0,0.0,0.0,0.0
1776192155369180706,21696,0.0,1.4,0.0,0.3,0.06,0.0,0.06,-3.19,4.63,0.02,0.02,-0.4,0.06,-0.0,0.06,267.2,289.0,0.0,0.0,0.0,0.0
1776192155467476990,21797,0.0,1.2,0.0,0.6,0.0,0.06,0.06,-3.19,4.63,0.02,0.01,-0.38,-0.06,-0.06,-0.06,268.4,290.0,0.0,0.0,0.0,0.0
1776192155569877243,21898,0.0,1.6,0.0,0.3,0.0,-0.08,0.06,-3.19,4.63,0.04,0.02,-0.35,0.06,0.06,0.0,267.37,292.0,0.0,0.0,0.0,0.0
1776192155668214971,21999,0.0,1.2,0.0,0.2,-0.1,-0.04,0.06,-3.19,4.63,0.02,-0.0,-0.4,-0.0,-0.06,0.0,267.37,292.0,0.0,0.0,0.0,0.0
1776192155770550521,22098,0.0,1.2,0.0,0.6,-0.06,-0.06,0.06,-3.19,4.63,0.03,0.02,-0.41,0.19,-0.06,0.06,267.2,291.0,0.0,0.0,0.0,0.0
1776192155868867175,22199,0.0,1.2,0.0,-0.1,-0.02,-0.1,0.06,-3.19,4.63,0.02,0.03,-0.38,-0.06,-0.06,0.0,267.37,293.0,0.0,0.0,0.0,0.0
1776192155971291169,22300,0.0,1.0,0.0,0.3,-0.12,0.02,0.06,-3.19,4.63,0.02,0.02,-0.39,-0.0,-0.06,-0.06,268.4,293.0,0.0,0.0,0.0,0.0
1776192156079657524,22401,0.0,1.3,0.0,0.5,-0.08,-0.21,0.06,-3.19,4.63,0.02,0.03,-0.36,0.06,0.12,-0.06,267.37,291.0,0.0,0.0,0.0,0.0
1776192156171957137,22501,0.0,1.1,0.0,0.2,0.0,-0.02,0.06,-3.19,4.63,0.02,0.01,-0.39,0.06,-0.06,-0.06,267.37,291.0,0.0,0.0,0.0,0.0
1776192156270263504,22601,0.0,0.3,0.0,1.3,0.08,-0.08,0.06,-3.19,4.63,0.03,0.02,-0.38,-0.0,-0.0,0.0,268.4,291.0,0.0,0.0,0.0,0.0
1776192156372655175,22701,0.0,0.3,0.0,1.5,0.08,-0.16,0.06,-3.19,4.63,0.03,0.04,-0.38,0.06,-0.19,0.0,268.4,292.0,0.0,0.0,0.0,0.0
1776192156470954672,22801,0.0,0.4,0.0,1.6,0.02,-0.04,0.06,-3.19,4.63,0.05,-0.0,-0.37,-0.06,0.06,-0.06,268.4,292.0,0.0,0.0,0.0,0.0
1776192156573356102,22901,0.0,1.0,0.0,0.5,0.0,-0.23,0.06,-3.19,4.63,0.03,0.03,-0.38,-0.06,-0.06,0.12,268.4,291.0,0.0,0.0,0.0,0.0
1776192156671680821,23001,0.0,1.4,0.0,0.5,0.1,-0.06,0.06,-3.19,4.63,0.04,0.02,-0.39,-0.12,0.12,0.19,268.4,292.0,0.0,0.0,0.0,0.0
1776192156774041826,23101,0.0,1.3,0.0,0.5,0.02,-0.02,0.06,-3.19,4.63,0.01,-0.01,-0.41,-0.06,-0.0,0.0,268.57,292.0,0.0,0.0,0.0,0.0
1776192156872354804,23201,0.0,1.4,0.0,0.6,0.18,0.06,0.06,-3.19,4.63,0.02,0.02,-0.42,-0.06,-0.0,-0.06,268.4,291.0,0.0,0.0,0.0,0.0
1776192156970583579,23301,0.0,1.3,0.0,0.1,-0.08,0.16,0.06,-3.19,4.63,0.02,0.01,-0.38,0.06,0.12,-0.06,268.4,292.0,0.0,0.0,0.0,0.0
1776192157073045428,23401,0.0,1.3,0.0,0.1,0.12,-0.06,0.06,-3.19,4.63,0.01,0.03,-0.36,-0.0,0.06,0.12,268.4,292.0,0.0,0.0,0.0,0.0
1776192157181427217,23502,0.0,1.3,0.0,0.3,-0.04,0.02,0.06,-3.19,4.63,0.05,-0.0,-0.39,-0.06,-0.06,0.0,268.4,290.0,0.0,0.0,0.0,0.0
1776192157273749833,23603,0.0,1.2,0.0,0.3,-0.14,-0.14,0.06,-3.19,4.63,0.02,0.02,-0.4,0.06,0.06,0.0,267.37,292.0,0.0,0.0,0.0,0.0
1776192157376128919,23704,0.0,1.5,0.0,0.3,0.06,-0.08,0.06,-3.19,4.63,0.02,0.01,-0.42,-0.0,0.06,0.0,267.37,292.0,0.0,0.0,0.0,0.0
1776192157474429514,23803,0.0,1.3,0.0,0.7,0.1,-0.21,0.06,-3.19,4.63,0.0,-0.01,-0.38,-0.0,0.12,-0.06,267.37,291.0,0.0,0.0,0.0,0.0
1776192157572711869,23903,0.0,1.2,0.0,0.4,0.0,0.06,0.06,-3.19,4.63,0.02,0.02,-0.4,-0.12,-0.06,0.0,267.37,291.0,0.0,0.0,0.0,0.0
1776192157675176696,24003,0.0,1.6,0.0,1.1,-0.06,0.14,0.06,-3.19,4.63,0.02,0.01,-0.39,0.06,-0.06,-0.06,271.48,291.0,0.0,0.0,0.0,0.0
1776192157773437439,24102,0.0,0.3,0.0,1.0,0.08,-0.06,0.06,-3.19,4.63,0.04,0.02,-0.4,-0.06,-0.0,0.0,272.51,291.0,0.0,0.0,0.0,0.0
1776192157875817989,24203,0.0,0.3,0.0,0.3,-0.04,0.06,0.06,-3.19,4.63,0.02,0.03,-0.37,-0.0,-0.06,-0.06,268.4,291.0,0.0,0.0,0.0,0.0
1776192157974123566,24303,0.0,1.0,0.0,0.5,0.02,-0.02,0.06,-3.19,4.63,0.02,0.05,-0.38,-0.06,0.12,-0.06,271.48,292.0,0.0,0.0,0.0,0.0
1776192158072425689,24402,0.0,1.1,0.0,0.2,-0.04,0.08,0.06,-3.19,4.63,0.02,0.01,-0.39,0.06,0.06,0.06,272.51,293.0,0.0,0.0,0.0,0.0
1776192158174814818,24502,0.0,1.2,0.0,0.1,0.12,0.2,0.06,-3.19,4.63,0.03,0.03,-0.36,-0.12,0.06,0.0,267.37,293.0,0.0,0.0,0.0,0.0
1776192158273134435,24602,0.0,1.0,0.0,0.1,-0.02,-0.08,0.06,-3.19,4.63,0.02,0.02,-0.38,-0.0,-0.0,0.0,267.37,291.0,0.0,0.0,0.0,0.0
1776192158371417607,24701,0.0,1.0,0.0,0.3,-0.02,-0.02,0.06,-3.19,4.63,0.02,0.01,-0.41,-0.06,0.12,0.0,266.34,292.0,0.0,0.0,0.0,0.0
1776192158473817495,24801,0.0,0.8,0.0,0.2,0.02,0.02,0.06,-3.19,4.63,0.02,0.01,-0.34,0.06,0.06,0.0,271.48,292.0,0.0,0.0,0.0,0.0
1776192158572117353,24901,0.0,1.1,0.0,0.5,-0.02,-0.16,0.06,-3.19,4.63,0.03,0.02,-0.4,0.06,-0.12,0.06,267.37,291.0,0.0,0.0,0.0,0.0
1776192158670410192,25000,0.0,0.9,0.0,0.5,-0.06,0.12,0.06,-3.19,4.63,0.02,0.03,-0.39,-0.06,-0.06,-0.06,267.37,291.0,0.0,0.0,0.0,0.0
1776192158772770117,25100,0.0,1.0,0.0,0.2,-0.04,-0.12,0.06,-3.19,4.63,0.02,-0.0,-0.37,-0.06,0.06,0.12,268.4,292.0,0.0,0.0,0.0,0.0
1776192158871118827,25200,0.0,0.7,0.0,0.3,-0.06,-0.12,0.06,-3.19,4.63,0.03,0.03,-0.4,-0.06,-0.19,0.0,272.51,291.0,0.0,0.0,0.0,0.0
1776192158973506307,25300,0.0,-0.1,0.0,1.7,0.06,-0.14,0.06,-3.19,4.63,0.03,0.01,-0.4,-0.0,-0.0,-0.06,272.51,291.0,0.0,0.0,0.0,0.0
1776192159071801856,25400,0.0,0.3,0.0,1.8,-0.04,-0.14,0.06,-3.19,4.63,0.02,0.01,-0.42,-0.12,-0.25,0.06,272.51,292.0,0.0,0.0,0.0,0.0
1776192159174200395,25500,0.0,1.5,0.0,0.5,0.02,-0.18,0.06,-3.19,4.63,0.03,0.02,-0.39,-0.06,-0.12,-0.06,272.51,293.0,0.0,0.0,0.0,0.0
1776192159272506568,25601,0.0,1.2,0.0,0.3,-0.12,0.04,0.06,-3.19,4.63,0.02,0.02,-0.4,-0.12,0.12,0.06,272.51,293.0,0.0,0.0,0.0,0.0
1776192159374908866,25701,0.0,1.3,0.0,0.2,-0.06,-0.04,0.06,-3.19,4.63,0.01,0.03,-0.37,-0.06,-0.0,0.0,272.51,292.0,0.0,0.0,0.0,0.0
1776192159473193002,25801,0.0,1.4,0.0,0.1,0.12,-0.1,0.06,-3.19,4.63,0.02,0.02,-0.39,-0.06,-0.06,0.0,271.48,292.0,0.0,0.0,0.0,0.0
1776192159575635707,25901,0.0,1.4,0.0,0.4,0.12,0.1,0.06,-3.19,4.63,0.03,0.01,-0.41,-0.06,0.12,0.06,272.51,292.0,0.0,0.0,0.0,0.0
1776192159673902918,26001,0.0,0.2,0.0,1.2,0.2,0.02,0.06,-3.19,4.63,0.02,0.02,-0.4,-0.06,0.06,-0.06,272.51,292.0,0.0,0.0,0.0,0.0
1776192159772184850,26100,0.0,0.9,0.0,0.5,-0.04,-0.04,0.06,-3.19,4.63,0.05,0.03,-0.4,-0.0,0.12,-0.06,271.48,292.0,0.0,0.0,0.0,0.0
1776192159874587926,26200,0.0,1.0,0.0,0.3,0.02,0.02,0.06,-3.19,4.63,0.02,0.02,-0.37,-0.0,0.06,-0.06,271.48,292.0,0.0,0.0,0.0,0.0
1776192159972890562,26301,0.0,1.1,0.0,0.5,0.04,0.12,0.06,-3.19,4.63,0.01,0.03,-0.42,0.06,-0.06,0.12,271.48,291.0,0.0,0.0,0.0,0.0
1776192160071186611,26400,0.0,0.9,0.0,0.4,0.0,0.06,0.06,-3.19,4.63,0.03,0.01,-0.37,0.12,0.06,0.0,271.48,291.0,0.0,0.0,0.0,0.0
1776192160173592371,26500,0.0,0.9,0.0,0.3,0.1,-0.08,0.06,-3.19,4.63,0.04,0.03,-0.39,-0.06,-0.0,-0.06,267.37,290.0,0.0,0.0,0.0,0.0
1776192160271886932,26600,0.0,0.9,0.0,0.2,0.16,-0.06,0.06,-3.19,4.63,0.01,-0.0,-0.41,-0.0,0.12,0.0,267.37,292.0,0.0,0.0,0.0,0.0
1776192160370188919,26699,0.0,0.9,0.0,0.2,0.1,-0.1,0.06,-3.19,4.63,0.04,0.02,-0.44,-0.06,-0.0,0.06,267.37,292.0,0.0,0.0,0.0,0.0
1776192160472582050,26799,0.0,1.0,0.0,0.1,0.0,-0.02,0.06,-3.19,4.63,0.02,0.02,-0.42,-0.12,0.06,-0.06,268.4,290.0,0.0,0.0,0.0,0.0
1776192160570880443,26900,0.0,1.0,0.0,0.6,-0.02,-0.02,0.06,-3.19,4.63,0.01,0.03,-0.4,-0.0,-0.19,0.12,267.37,292.0,0.0,0.0,0.0,0.0
1776192160673286167,26999,0.0,0.7,0.0,0.3,-0.12,-0.1,0.06,-3.19,4.63,0.03,0.02,-0.43,-0.0,-0.06,-0.12,267.37,292.0,0.0,0.0,0.0,0.0
1776192160775667539,27100,0.0,1.0,0.0,0.3,-0.1,0.08,0.06,-3.19,4.63,0.01,-0.0,-0.42,-0.0,-0.06,0.0,268.4,292.0,0.0,0.0,0.0,0.0
1776192160873941822,27201,0.0,1.0,0.0,0.3,0.12,-0.04,0.06,-3.19,4.63,0.02,0.02,-0.39,0.12,-0.06,0.0,272.51,292.0,0.0,0.0,0.0,0.0
1776192160972270327,27300,0.0,0.9,0.0,0.3,-0.02,-0.14,0.06,-3.19,4.63,0.02,-0.0,-0.4,-0.0,-0.0,0.12,267.37,292.0,0.0,0.0,0.0,0.0
1776192161074671629,27400,0.0,0.9,0.0,0.3,-0.08,-0.04,0.06,-3.19,4.63,0.03,0.01,-0.36,-0.0,-0.06,0.0,271.48,292.0,0.0,0.0,0.0,0.0
1776192161172970705,27501,0.0,1.0,0.0,0.3,0.08,0.06,0.06,-3.19,4.63,0.02,0.02,-0.38,-0.0,-0.12,-0.06,271.48,292.0,0.0,0.0,0.0,0.0
1776192161271202947,27600,0.0,1.1,0.0,0.1,0.08,-0.08,0.06,-3.19,4.63,0.04,0.02,-0.38,-0.19,-0.0,0.0,271.48,291.0,0.0,0.0,0.0,0.0
1776192161373664983,27700,0.0,1.1,0.0,0.3,-0.18,-0.04,0.06,-3.19,4.63,0.02,-0.0,-0.4,-0.06,-0.19,0.0,272.51,293.0,0.0,0.0,0.0,0.0
1776192161471960799,27800,0.0,0.9,0.0,0.3,0.14,-0.04,0.06,-3.19,4.63,0.04,0.02,-0.38,-0.06,0.06,0.0,272.51,293.0,0.0,0.0,0.0,0.0
1776192161574355742,27900,0.0,0.9,0.0,0.5,0.06,-0.04,0.06,-3.19,4.63,0.01,-0.0,-0.37,-0.06,0.19,0.06,272.51,293.0,0.0,0.0,0.0,0.0
1776192161672641392,28000,0.0,0.9,0.0,0.5,0.12,-0.04,0.06,-3.19,4.63,0.03,0.02,-0.39,-0.0,-0.06,-0.12,268.4,292.0,0.0,0.0,0.0,0.0
1776192161775040335,28100,0.0,1.0,0.0,0.1,0.0,-0.08,0.06,-3.19,4.63,0.02,0.01,-0.37,-0.0,-0.0,-0.06,272.51,292.0,0.0,0.0,0.0,0.0
1776192161873348114,28200,0.0,0.9,0.0,0.4,0.06,-0.14,0.06,-3.19,4.63,0.02,0.03,-0.4,0.06,-0.0,0.0,271.48,291.0,0.0,0.0,0.0,0.0
1776192161975766743,28300,0.0,0.9,0.0,0.3,0.08,-0.06,0.06,-3.19,4.63,0.04,0.04,-0.36,-0.06,-0.12,-0.06,271.48,291.0,0.0,0.0,0.0,0.0
1776192162074047710,28400,0.0,0.9,0.0,0.6,0.02,0.04,0.06,-3.19,4.63,0.01,0.02,-0.4,0.06,-0.06,0.0,268.4,291.0,0.0,0.0,0.0,0.0
1776192162172355076,28499,0.0,1.2,0.0,0.3,0.08,0.04,0.06,-3.19,4.63,0.02,0.02,-0.4,0.06,-0.12,-0.12,272.51,291.0,0.0,0.0,0.0,0.0
1776192162274751182,28599,0.0,1.1,0.0,0.7,-0.04,-0.06,0.06,-3.19,4.63,0.03,-0.0,-0.41,-0.0,-0.06,-0.06,272.51,291.0,0.0,0.0,0.0,0.0
1776192162373086492,28699,0.0,1.0,0.0,0.3,-0.12,0.06,0.06,-3.19,4.63,0.02,0.04,-0.41,-0.06,0.06,0.0,272.51,290.0,0.0,0.0,0.0,0.0
1776192162475441653,28800,0.0,0.7,0.0,0.2,-0.02,0.06,0.06,-3.19,4.63,0.01,0.01,-0.39,0.06,-0.19,0.0,272.51,291.0,0.0,0.0,0.0,0.0
1776192162573748389,28900,0.0,0.3,0.0,1.5,0.18,-0.02,0.06,-3.19,4.63,0.0,0.02,-0.35,-0.06,-0.0,-0.06,271.48,291.0,0.0,0.0,0.0,0.0
1776192162676133143,29000,0.0,1.4,0.0,0.6,0.2,-0.08,0.06,-3.19,4.63,0.02,0.02,-0.39,0.06,-0.06,0.0,268.4,290.0,0.0,0.0,0.0,0.0
1776192162774394898,29101,0.0,1.3,0.0,0.3,0.08,0.04,0.06,-3.19,4.63,0.02,0.03,-0.36,-0.06,0.19,-0.06,267.37,292.0,0.0,0.0,0.0,0.0
1776192162876833707,29202,0.0,1.6,0.0,0.1,-0.06,0.04,0.06,-3.19,4.63,0.04,-0.0,-0.38,0.06,0.06,0.0,271.48,292.0,0.0,0.0,0.0,0.0
1776192162975168443,29302,0.0,1.4,0.0,0.1,0.0,-0.04,0.06,-3.19,4.63,0.05,-0.0,-0.4,0.19,-0.06,-0.12,268.4,291.0,0.0,0.0,0.0,0.0
1776192163077545458,29403,0.0,1.3,0.0,0.2,0.04,0.0,0.06,-3.19,4.63,0.02,0.03,-0.39,-0.0,-0.06,0.12,268.4,291.0,0.0,0.0,0.0,0.0
1776192163175824224,29503,0.0,1.4,0.0,0.1,-0.1,-0.02,0.06,-3.19,4.63,0.02,-0.0,-0.42,-0.0,-0.06,0.12,271.48,293.0,0.0,0.0,0.0,0.0
1776192163278230027,29602,0.0,1.4,0.0,0.3,0.08,-0.04,0.06,-3.19,4.63,0.02,0.01,-0.39,0.06,0.06,0.0,271.48,292.0,0.0,0.0,0.0,0.0
1776192163376525366,29702,0.0,1.4,0.0,0.6,-0.02,0.02,0.06,-3.19,4.63,0.01,0.03,-0.39,-0.0,-0.0,0.0,267.37,292.0,0.0,0.0,0.0,0.0
1776192163474829761,29802,0.0,1.4,0.0,0.6,-0.02,0.02,0.06,-3.19,4.63,0.01,-0.0,-0.37,-0.06,0.06,0.0,271.48,292.0,0.0,0.0,0.0,0.0
1776192163577257267,29901,0.0,1.4,0.0,0.2,0.06,0.04,0.06,-3.19,4.63,0.02,0.01,-0.4,-0.0,-0.0,-0.12,268.4,290.0,0.0,0.0,0.0,0.0
1776192163675489662,30002,0.0,1.5,0.0,0.2,0.12,0.1,0.06,-3.19,4.63,0.03,0.03,-0.38,-0.0,0.19,0.0,272.51,290.0,0.0,0.0,0.0,0.0
1776192163777879669,30103,0.0,0.2,0.0,0.5,0.04,-0.02,0.06,-3.19,4.63,0.03,0.02,-0.38,-0.0,0.06,0.06,271.48,292.0,0.0,0.0,0.0,0.0
1776192163876194656,30202,0.0,1.1,0.0,0.4,0.18,-0.02,0.06,-3.19,4.63,0.02,0.01,-0.36,-0.0,0.06,0.0,271.48,291.0,0.0,0.0,0.0,0.0
1776192163978612588,30303,0.0,0.9,0.0,0.3,-0.02,-0.08,0.06,-3.19,4.63,0.02,-0.0,-0.36,-0.0,-0.0,0.0,271.48,291.0,0.0,0.0,0.0,0.0
1776192164076914892,30403,0.0,1.1,0.0,0.3,0.1,-0.08,0.06,-3.19,4.63,0.03,0.01,-0.38,0.12,-0.0,0.0,271.48,291.0,0.0,0.0,0.0,0.0
1776192164175168962,30502,0.0,1.1,0.0,0.3,-0.04,-0.08,0.06,-3.19,4.63,0.02,0.01,-0.38,-0.06,0.06,0.12,271.48,291.0,0.0,0.0,0.0,0.0
1776192164277612293,30602,0.0,1.1,0.0,0.3,0.02,-0.08,0.06,-3.19,4.63,0.02,0.01,-0.37,-0.06,-0.0,-0.06,268.74,291.0,0.0,0.0,0.0,0.0
1776192164375903568,30702,0.0,1.0,0.0,0.1,-0.08,-0.04,0.06,-3.19,4.63,0.04,0.02,-0.37,0.12,-0.0,0.0,272.51,292.0,0.0,0.0,0.0,0.0
1776192164478294806,30801,0.0,1.1,0.0,0.4,0.04,-0.02,0.06,-3.19,4.63,0.04,0.03,-0.39,-0.0,0.06,0.06,272.51,292.0,0.0,0.0,0.0,0.0
1776192164576607414,30901,0.0,0.9,0.0,0.3,0.02,0.06,0.06,-3.19,4.63,0.02,-0.0,-0.38,-0.06,0.06,0.06,271.48,291.0,0.0,0.0,0.0,0.0
1776192164679001708,31002,0.0,0.9,0.0,0.1,0.08,-0.04,0.06,-3.19,4.63,0.02,0.02,-0.38,0.06,-0.12,-0.06,267.37,292.0,0.0,0.0,0.0,0.0
1776192164777294500,31101,0.0,0.9,0.0,0.3,-0.02,-0.06,0.06,-3.19,4.63,0.02,0.01,-0.39,-0.06,0.12,-0.06,271.48,292.0,0.0,0.0,0.0,0.0
1776192164875586219,31201,0.0,1.0,0.0,0.4,0.08,-0.04,0.06,-3.19,4.63,0.02,0.01,-0.38,-0.06,-0.0,0.0,268.4,292.0,0.0,0.0,0.0,0.0
1776192164977986865,31301,0.0,0.9,0.0,0.1,-0.14,-0.02,0.06,-3.19,4.63,0.04,0.02,-0.37,-0.12,0.06,-0.25,272.51,291.0,0.0,0.0,0.0,0.0
1776192165076290139,31401,0.0,1.2,0.0,0.6,0.0,-0.1,0.06,-3.19,4.63,0.0,0.02,-0.39,-0.0,-0.12,-0.12,267.37,291.0,0.0,0.0,0.0,0.0
1776192165178693052,31501,0.0,1.1,0.0,0.4,0.0,-0.1,0.06,-3.19,4.63,0.03,0.03,-0.4,-0.06,0.12,-0.06,272.51,289.0,0.0,0.0,0.0,0.0
1776192165276989519,31602,0.0,0.2,0.0,1.6,0.14,-0.02,0.06,-3.19,4.63,0.02,-0.0,-0.39,-0.0,-0.0,0.0,270.46,292.0,0.0,0.0,0.0,0.0
1776192165379392506,31702,0.0,1.5,0.0,0.3,-0.08,-0.14,0.06,-3.19,4.63,0.03,0.01,-0.37,0.06,-0.06,0.0,272.51,292.0,0.0,0.0,0.0,0.0
1776192165477690769,31802,0.0,1.3,0.0,0.5,0.06,0.0,0.06,-3.19,4.63,0.02,0.03,-0.36,0.06,-0.19,-0.06,271.48,292.0,0.0,0.0,0.0,0.0
1776192165575984550,31901,0.0,1.3,0.0,0.3,-0.04,0.02,0.06,-3.19,4.63,0.02,0.02,-0.36,-0.19,0.06,0.06,267.37,292.0,0.0,0.0,0.0,0.0
1776192165678393353,32001,0.0,1.5,0.0,0.5,0.02,-0.1,0.06,-3.19,4.63,0.02,0.02,-0.37,-0.19,-0.06,-0.06,271.48,292.0,0.0,0.0,0.0,0.0
1776192165776674894,32101,0.0,1.2,0.0,0.3,-0.08,0.0,0.06,-3.19,4.63,0.03,-0.0,-0.39,0.06,-0.06,-0.06,267.37,293.0,0.0,0.0,0.0,0.0
1776192165874987212,32200,0.0,1.2,0.0,0.3,-0.08,-0.02,0.06,-3.19,4.63,0.01,0.03,-0.36,0.19,-0.12,0.0,271.48,293.0,0.0,0.0,0.0,0.0
1776192165977379070,32300,0.0,1.2,0.0,0.7,0.04,0.0,0.06,-3.19,4.63,0.02,0.04,-0.4,0.06,-0.12,0.06,271.48,291.0,0.0,0.0,0.0,0.0
1776192166075680517,32400,0.0,1.4,0.0,0.2,0.08,-0.12,0.06,-3.19,4.63,0.03,-0.0,-0.37,0.06,-0.12,0.0,271.66,291.0,0.0,0.0,0.0,0.0
1776192166173972044,32499,0.0,1.3,0.0,0.5,-0.08,0.04,0.06,-3.19,4.63,0.02,0.02,-0.39,-0.06,-0.0,0.0,271.48,291.0,0.0,0.0,0.0,0.0
1776192166276375927,32599,0.0,1.2,0.0,0.3,-0.06,0.04,0.06,-3.19,4.63,0.02,0.03,-0.38,-0.12,-0.0,0.0,272.69,291.0,0.0,0.0,0.0,0.0
1776192166374678603,32700,0.0,1.5,0.0,0.3,0.04,0.06,0.06,-3.19,4.63,0.04,0.01,-0.36,0.19,0.06,0.0,271.48,290.0,0.0,0.0,0.0,0.0
1776192166477072153,32799,0.0,1.4,0.0,0.1,-0.08,0.0,0.06,-3.19,4.63,0.02,0.02,-0.36,-0.0,-0.06,0.0,271.66,290.0,0.0,0.0,0.0,0.0
1776192166575342588,32900,0.0,1.4,0.0,0.3,-0.02,0.02,0.06,-3.19,4.63,0.02,0.01,-0.37,-0.06,0.12,-0.06,271.48,292.0,0.0,0.0,0.0,0.0
1776192166677745008,33001,0.0,1.3,0.0,0.4,0.04,-0.27,0.06,-3.19,4.63,0.03,0.01,-0.4,0.19,0.06,0.0,272.69,292.0,0.0,0.0,0.0,0.0
1776192166776044851,33100,0.0,1.1,0.0,0.2,0.0,0.0,0.06,-3.19,4.63,0.03,0.03,-0.39,-0.0,0.06,0.06,271.48,291.0,0.0,0.0,0.0,0.0
1776192166878461030,33200,0.0,1.0,0.0,0.3,0.02,0.0,0.06,-3.19,4.63,0.02,0.01,-0.38,0.12,0.06,-0.06,271.48,290.0,0.0,0.0,0.0,0.0
1776192166976760631,33301,0.0,0.9,0.0,0.5,0.02,0.0,0.06,-3.19,4.63,0.04,0.03,-0.39,0.06,-0.06,0.06,271.48,290.0,0.0,0.0,0.0,0.0
1776192167079167810,33400,0.0,0.9,0.0,0.7,-0.08,-0.21,0.06,-3.19,4.63,0.03,0.03,-0.38,0.06,-0.0,0.0,267.37,292.0,0.0,0.0,0.0,0.0
1776192167177456823,33501,0.0,1.1,0.0,0.4,0.0,0.0,0.06,-3.19,4.63,0.02,0.01,-0.37,-0.12,-0.0,0.0,271.48,291.0,0.0,0.0,0.0,0.0
1776192167279854914,33602,0.0,0.9,0.0,0.4,0.12,0.06,0.06,-3.19,4.63,0.02,0.01,-0.38,-0.0,-0.06,-0.12,272.51,291.0,0.0,0.0,0.0,0.0
1776192167378156687,33701,0.0,1.0,0.0,0.3,0.04,-0.02,0.06,-3.19,4.63,0.0,-0.0,-0.39,0.06,-0.06,0.0,271.48,292.0,0.0,0.0,0.0,0.0
1776192167480554390,33801,0.0,1.0,0.0,0.4,0.02,-0.1,0.06,-3.19,4.63,0.01,0.01,-0.38,-0.0,-0.12,0.0,271.48,290.0,0.0,0.0,0.0,0.0
1776192167578848662,33902,0.0,1.0,0.0,0.2,0.08,-0.18,0.06,-3.19,4.63,0.02,-0.0,-0.4,-0.06,-0.0,0.0,271.48,290.0,0.0,0.0,0.0,0.0
1776192167681272550,34002,0.0,1.0,0.0,0.2,-0.04,-0.1,0.06,-3.19,4.63,0.0,0.01,-0.39,-0.0,-0.0,-0.06,272.51,291.0,0.0,0.0,0.0,0.0
1776192167779521008,34103,0.0,1.0,0.0,0.1,0.02,0.2,0.06,-3.19,4.63,0.02,0.03,-0.39,-0.06,-0.0,0.0,272.51,291.0,0.0,0.0,0.0,0.0
1776192167881941951,34203,0.0,0.9,0.0,0.3,-0.02,0.06,0.06,-3.19,4.63,0.02,0.02,-0.4,-0.0,0.19,-0.06,271.48,291.0,0.0,0.0,0.0,0.0
1776192167980243557,34304,0.0,0.6,0.0,0.5,-0.1,-0.2,0.06,-3.19,4.63,0.02,0.01,-0.37,-0.0,0.19,0.0,271.48,291.0,0.0,0.0,0.0,0.0
1776192168082639721,34404,0.0,1.1,0.0,0.2,-0.08,0.0,0.06,-3.19,4.63,0.02,0.03,-0.38,-0.0,-0.12,0.0,271.48,291.0,0.0,0.0,0.0,0.0
1776192168180937682,34504,0.0,0.9,0.0,0.3,0.1,0.02,0.06,-3.19,4.63,0.03,0.03,-0.37,-0.12,-0.12,-0.06,272.69,290.0,0.0,0.0,0.0,0.0
1776192168283332295,34605,0.0,0.8,0.0,0.1,-0.04,0.08,0.06,-3.19,4.63,0.03,0.01,-0.37,-0.0,-0.06,0.0,271.48,291.0,0.0,0.0,0.0,0.0
1776192168381636219,34705,0.0,1.0,0.0,0.5,0.0,0.14,0.06,-3.19,4.63,0.02,0.03,-0.41,-0.12,0.06,-0.12,271.48,291.0,0.0,0.0,0.0,0.0
1776192168484041054,34805,0.0,0.9,0.0,0.2,-0.08,-0.12,0.06,-3.19,4.63,0.02,0.01,-0.4,-0.0,0.12,-0.06,271.48,291.0,0.0,0.0,0.0,0.0
1776192168582337885,34905,0.0,1.4,0.0,0.6,0.16,-0.08,0.06,-3.19,4.63,0.03,0.01,-0.4,-0.06,-0.0,0.06,271.48,290.0,0.0,0.0,0.0,0.0
1776192168684733166,35006,0.0,1.1,0.0,0.5,-0.06,-0.08,0.06,-3.19,4.63,0.04,-0.0,-0.38,-0.12,-0.06,0.06,272.51,290.0,0.0,0.0,0.0,0.0
1776192168783003755,35106,0.0,1.1,0.0,0.3,0.04,0.02,0.06,-3.19,4.63,0.03,-0.0,-0.4,-0.06,-0.0,0.0,271.48,292.0,0.0,0.0,0.0,0.0
1776192168885411147,35206,0.0,1.2,0.0,0.3,0.06,-0.02,0.06,-3.19,4.63,0.04,0.02,-0.38,0.06,-0.19,0.0,271.48,290.0,0.0,0.0,0.0,0.0
1776192168983718033,35306,0.0,1.0,0.0,0.2,0.0,-0.02,0.06,-3.19,4.63,0.02,0.01,-0.4,-0.06,0.19,0.06,271.48,290.0,0.0,0.0,0.0,0.0
1776192169082018009,35405,0.0,1.0,0.0,0.1,-0.04,-0.06,0.06,-3.19,4.63,0.02,0.01,-0.39,-0.0,-0.12,0.0,272.51,291.0,0.0,0.0,0.0,0.0
1776192169184425959,35505,0.0,1.1,0.0,0.5,0.04,-0.08,0.06,-3.19,4.63,0.03,0.02,-0.38,0.06,-0.0,-0.06,271.48,291.0,0.0,0.0,0.0,0.0
1776192169282723216,35605,0.0,0.8,0.0,0.3,-0.06,0.02,0.06,-3.19,4.63,0.04,-0.0,-0.38,-0.0,0.06,0.0,271.48,292.0,0.0,0.0,0.0,0.0
1776192169381060548,35704,0.0,1.3,0.0,0.5,0.1,-0.1,0.06,-3.19,4.63,0.01,-0.0,-0.39,0.12,0.25,0.06,271.48,293.0,0.0,0.0,0.0,0.0
1776192169483413923,35805,0.0,1.3,0.0,0.3,-0.02,-0.02,0.06,-3.19,4.63,0.03,0.02,-0.4,-0.0,-0.0,0.0,268.4,293.0,0.0,0.0,0.0,0.0
1776192169585817984,35906,0.0,1.5,0.0,0.3,-0.1,0.08,0.06,-3.19,4.63,0.03,0.02,-0.41,-0.19,0.06,0.0,268.4,292.0,0.0,0.0,0.0,0.0
1776192169684127260,36005,0.0,1.4,0.0,0.2,0.02,-0.1,0.06,-3.19,4.63,0.02,0.03,-0.41,0.06,0.06,0.0,271.48,293.0,0.0,0.0,0.0,0.0
1776192169782360185,36105,0.0,1.5,0.0,0.2,0.02,-0.04,0.06,-3.19,4.63,0.02,0.02,-0.41,0.06,0.06,0.0,272.51,293.0,0.0,0.0,0.0,0.0
1776192169884804153,36206,0.0,1.4,0.0,0.3,0.02,0.08,0.06,-3.19,4.63,0.02,-0.01,-0.38,-0.06,-0.06,-0.06,271.48,291.0,0.0,0.0,0.0,0.0
1776192169983145336,36306,0.0,1.5,0.0,0.5,0.0,0.0,0.06,-3.19,4.63,0.02,0.02,-0.42,-0.06,0.12,0.06,272.0,291.0,0.0,0.0,0.0,0.0
1776192170085510727,36406,0.0,1.5,0.0,0.0,0.08,-0.06,0.06,-3.19,4.63,0.01,0.03,-0.42,0.19,-0.12,0.0,272.0,291.0,0.0,0.0,0.0,0.0
1776192170183806411,36506,0.0,1.1,0.0,0.1,0.1,-0.02,0.06,-3.19,4.63,0.02,0.03,-0.42,-0.06,-0.06,0.0,271.48,291.0,0.0,0.0,0.0,0.0
1776192170286205935,36606,0.0,0.9,0.0,0.5,-0.06,-0.1,0.06,-3.19,4.63,0.02,0.01,-0.4,0.06,-0.0,0.12,271.48,291.0,0.0,0.0,0.0,0.0
1776192170384502508,36706,0.0,1.1,0.0,0.3,-0.06,0.02,0.06,-3.19,4.63,0.02,0.01,-0.37,0.12,-0.06,0.06,271.66,292.0,0.0,0.0,0.0,0.0
1776192170482800118,36805,0.0,1.0,0.0,0.3,0.16,-0.06,0.06,-3.19,4.63,0.02,0.02,-0.41,-0.06,-0.0,-0.06,271.48,293.0,0.0,0.0,0.0,0.0
1776192170581072691,36904,0.0,1.0,0.0,0.2,-0.02,0.08,0.06,-3.19,4.63,0.01,0.02,-0.4,-0.06,-0.0,0.06,271.48,293.0,0.0,0.0,0.0,0.0
1776192170683471455,37004,0.0,1.1,0.0,0.6,0.08,-0.04,0.06,-3.19,4.63,0.03,0.02,-0.4,-0.12,0.12,0.0,272.69,292.0,0.0,0.0,0.0,0.0
1776192170781766251,37104,0.0,0.4,0.0,1.5,0.1,0.06,0.06,-3.19,4.63,0.02,0.02,-0.42,-0.0,-0.0,0.0,272.51,290.0,0.0,0.0,0.0,0.0
1776192170884165904,37204,0.0,0.2,0.0,1.6,0.06,0.0,0.06,-3.19,4.63,0.02,0.03,-0.38,-0.12,-0.06,0.0,272.51,290.0,0.0,0.0,0.0,0.0
1776192170982483570,37304,0.0,1.2,0.0,0.5,0.08,-0.12,0.06,-3.19,4.63,0.02,0.02,-0.4,-0.0,-0.06,0.0,271.48,292.0,0.0,0.0,0.0,0.0
1776192171090846074,37404,0.0,1.4,0.0,0.8,-0.04,-0.06,0.06,-3.19,4.63,0.02,0.01,-0.39,-0.0,-0.0,0.06,272.51,290.0,0.0,0.0,0.0,0.0
1776192171183197902,37504,0.0,1.4,0.0,0.3,-0.06,-0.02,0.06,-3.19,4.63,0.04,0.01,-0.37,-0.0,0.12,0.0,272.0,290.0,0.0,0.0,0.0,0.0
1776192171281493196,37604,0.0,1.3,0.0,0.2,-0.02,-0.06,0.06,-3.19,4.63,0.02,0.01,-0.39,0.06,-0.19,-0.06,271.48,292.0,0.0,0.0,0.0,0.0
1776192171383890201,37703,0.0,1.8,0.0,0.3,0.08,-0.06,0.06,-3.19,4.63,0.02,0.01,-0.37,0.12,0.06,0.06,273.03,292.0,0.0,0.0,0.0,0.0
1776192171482183625,37803,0.0,1.3,0.0,0.5,-0.08,0.0,0.06,-3.19,4.63,0.02,0.01,-0.37,-0.0,0.06,-0.06,271.48,292.0,0.0,0.0,0.0,0.0
1776192171580491863,37903,0.0,1.6,0.0,0.5,0.14,-0.02,0.06,-3.19,4.63,0.0,0.02,-0.36,0.06,-0.06,0.0,271.48,292.0,0.0,0.0,0.0,0.0
1776192171682856091,38002,0.0,0.4,0.0,1.2,0.04,0.02,0.06,-3.19,4.63,0.02,0.02,-0.39,-0.06,0.06,0.06,271.48,292.0,0.0,0.0,0.0,0.0
1776192171781177459,38102,0.0,0.3,0.0,1.3,-0.02,-0.1,0.06,-3.19,4.63,0.02,0.02,-0.42,-0.06,0.25,0.0,273.03,292.0,0.0,0.0,0.0,0.0
1776192171879446271,38202,0.0,0.1,0.0,0.3,-0.14,-0.04,0.06,-3.19,4.63,0.04,0.02,-0.38,0.12,-0.06,0.0,272.51,291.0,0.0,0.0,0.0,0.0
1776192171981880795,38301,0.0,1.0,0.0,0.1,-0.08,-0.12,0.06,-3.19,4.63,0.02,0.01,-0.36,0.12,-0.0,-0.06,272.51,291.0,0.0,0.0,0.0,0.0
1776192172084274758,38402,0.0,1.1,0.0,0.1,-0.02,-0.06,0.06,-3.19,4.63,0.02,0.02,-0.39,0.06,-0.12,0.0,271.48,290.0,0.0,0.0,0.0,0.0
1776192172182581772,38503,0.0,1.1,0.0,0.2,0.08,0.08,0.06,-3.19,4.63,0.01,0.02,-0.34,0.19,-0.0,0.06,270.46,292.0,0.0,0.0,0.0,0.0
1776192172280876138,38603,0.0,1.3,0.0,0.5,-0.2,0.06,0.06,-3.19,4.63,0.04,0.02,-0.38,0.19,-0.06,-0.06,271.48,292.0,0.0,0.0,0.0,0.0
1776192172383268049,38703,0.0,1.4,0.0,0.2,0.04,-0.12,0.06,-3.19,4.63,0.02,0.03,-0.38,-0.0,0.12,0.0,271.48,290.0,0.0,0.0,0.0,0.0
1776192172485678719,38803,0.0,1.4,0.0,0.2,0.2,-0.06,0.06,-3.19,4.63,0.04,0.02,-0.37,-0.06,0.12,-0.06,272.51,290.0,0.0,0.0,0.0,0.0
1776192172583965733,38904,0.0,1.5,0.0,0.1,-0.1,-0.12,0.06,-3.19,4.63,0.02,0.03,-0.39,0.12,-0.0,-0.06,271.48,292.0,0.0,0.0,0.0,0.0
1776192172686334589,39005,0.0,1.4,0.0,0.2,0.14,-0.12,0.06,-3.19,4.63,0.02,0.01,-0.42,0.06,-0.0,0.06,271.48,292.0,0.0,0.0,0.0,0.0
1776192172784647344,39105,0.0,1.2,0.0,0.4,-0.02,0.02,0.06,-3.19,4.63,0.01,-0.0,-0.38,0.06,0.06,0.06,271.31,292.0,0.0,0.0,0.0,0.0
1776192172882916913,39204,0.0,1.5,0.0,0.5,0.14,0.0,0.06,-3.19,4.63,0.01,0.02,-0.37,-0.12,0.06,0.12,272.0,290.0,0.0,0.0,0.0,0.0
1776192172985356917,39305,0.0,1.3,0.0,0.2,-0.08,-0.02,0.06,-3.19,4.63,0.03,0.01,-0.36,-0.0,-0.06,-0.06,271.48,290.0,0.0,0.0,0.0,0.0
1776192173087763989,39406,0.0,1.3,0.0,0.6,0.02,-0.16,0.06,-3.19,4.63,0.02,0.02,-0.38,0.06,-0.0,0.0,272.51,290.0,0.0,0.0,0.0,0.0
1776192173186047815,39505,0.0,1.4,0.0,0.2,-0.06,-0.06,0.06,-3.19,4.63,0.03,0.03,-0.38,-0.0,0.06,0.0,272.0,292.0,0.0,0.0,0.0,0.0
1776192173284303937,39605,0.0,0.2,0.0,1.3,0.04,-0.1,0.06,-3.19,4.63,0.06,0.01,-0.38,-0.06,-0.0,-0.06,272.0,291.0,0.0,0.0,0.0,0.0
1776192173386757993,39706,0.0,0.2,0.0,1.1,-0.06,-0.06,0.06,-3.19,4.63,0.02,0.03,-0.36,0.06,-0.12,-0.06,271.48,291.0,0.0,0.0,0.0,0.0
1776192173485050578,39805,0.0,0.4,0.0,1.2,0.0,0.1,0.06,-3.19,4.63,0.02,0.01,-0.38,0.12,0.06,0.06,271.48,293.0,0.0,0.0,0.0,0.0
1776192173587450283,39906,0.0,0.2,0.0,0.8,0.14,-0.08,0.06,-3.19,4.63,0.02,0.02,-0.36,0.06,-0.06,0.0,271.48,291.0,0.0,0.0,0.0,0.0
1776192173685700794,40007,0.0,0.3,0.0,0.1,0.14,-0.12,0.06,-3.19,4.63,0.01,0.03,-0.36,-0.0,0.06,0.0,271.48,291.0,0.0,0.0,0.0,0.0
1776192173788108129,40107,0.0,1.0,0.0,0.3,0.12,0.0,0.06,-3.19,4.63,0.04,0.03,-0.35,-0.0,0.06,0.0,271.48,292.0,0.0,0.0,0.0,0.0
1776192173886445528,40207,0.0,1.0,0.0,0.6,-0.08,-0.06,0.06,-3.19,4.63,0.02,0.01,-0.35,0.06,0.06,0.06,271.48,292.0,0.0,0.0,0.0,0.0
1776192173988843826,40307,0.0,0.8,0.0,0.1,-0.18,-0.02,0.06,-3.19,4.63,0.03,0.02,-0.37,-0.06,-0.06,0.06,272.51,292.0,0.0,0.0,0.0,0.0
1776192174087142423,40407,0.0,0.9,0.0,0.4,0.02,-0.02,0.06,-3.19,4.63,0.02,0.03,-0.37,0.06,-0.19,0.0,271.66,292.0,0.0,0.0,0.0,0.0
1776192174189545717,40507,0.0,0.7,0.0,0.3,0.0,0.08,0.06,-3.19,4.63,0.02,0.01,-0.39,-0.06,-0.06,0.0,271.48,292.0,0.0,0.0,0.0,0.0
1776192174287834557,40607,0.0,0.9,0.0,0.3,-0.08,-0.08,0.06,-3.19,4.63,0.03,0.03,-0.38,-0.0,-0.0,0.12,271.48,289.0,0.0,0.0,0.0,0.0
1776192174390246128,40708,0.0,0.9,0.0,0.6,-0.06,-0.08,0.06,-3.19,4.63,0.02,0.01,-0.39,-0.0,-0.0,-0.06,271.66,289.0,0.0,0.0,0.0,0.0
1776192174488535876,40809,0.0,0.9,0.0,0.5,0.02,-0.02,0.06,-3.19,4.63,0.02,0.02,-0.41,-0.0,0.12,0.0,272.51,289.0,0.0,0.0,0.0,0.0
1776192174590923373,40909,0.0,1.1,0.0,0.6,0.06,-0.12,0.06,-3.19,4.63,0.02,0.04,-0.35,-0.0,-0.0,0.0,273.03,292.0,0.0,0.0,0.0,0.0
1776192174689225732,41009,0.0,1.1,0.0,0.3,0.04,-0.08,0.06,-3.19,4.63,0.01,0.01,-0.35,-0.06,-0.12,-0.06,272.51,292.0,0.0,0.0,0.0,0.0
1776192174791588304,41109,0.0,1.1,0.0,0.4,0.18,-0.08,0.06,-3.19,4.63,0.03,0.02,-0.39,-0.0,-0.12,0.06,273.2,292.0,0.0,0.0,0.0,0.0
1776192174889940903,41209,0.0,1.1,0.0,0.3,-0.1,-0.12,0.06,-3.19,4.63,0.02,0.01,-0.34,0.19,0.06,0.0,271.48,290.0,0.0,0.0,0.0,0.0
1776192174992328382,41309,0.0,0.9,0.0,0.2,0.06,-0.06,0.06,-3.19,4.63,-0.35,-0.12,0.18,0.19,0.25,0.0,271.48,290.0,0.89,0.89,0.0,0.0
1776192175090621549,41409,0.0,0.9,0.0,0.2,-0.06,0.02,-0.0,-3.19,4.63,0.41,-0.0,-0.14,-0.56,-1.06,0.19,272.51,292.0,0.0,0.0,0.0,0.0
1776192175198988233,41509,0.0,0.9,0.0,0.1,-0.12,-0.1,-0.0,-3.19,4.63,-0.07,-0.16,-0.69,0.63,-0.5,0.37,268.4,293.0,0.0,0.0,0.0,0.0
1776192175291324525,41610,0.0,1.0,0.0,0.4,-0.12,-0.14,-0.0,-3.19,4.63,0.09,-0.11,-0.53,-0.06,-0.25,0.06,271.66,293.0,0.0,0.0,0.0,0.0
1776192175393715722,41710,0.0,0.5,0.0,0.3,-0.06,-0.04,-0.0,-3.19,4.63,0.0,0.12,-0.46,0.06,-0.5,0.19,272.69,293.0,0.0,0.0,0.0,0.0
1776192175492022038,41810,0.0,1.6,0.0,0.5,0.06,-0.12,-0.0,-3.19,4.63,-0.04,0.13,-0.28,0.19,-0.81,0.25,271.48,293.0,0.0,0.0,0.0,0.0
1776192175590290355,41910,0.0,1.3,0.0,0.5,0.06,0.1,-0.0,-3.19,4.63,0.08,-0.06,-0.41,-0.12,-0.56,0.06,272.0,293.0,0.0,0.0,0.0,0.0
1776192175692715904,42010,0.0,1.3,0.0,0.2,0.06,-0.06,-0.0,-3.19,4.63,0.03,0.09,-0.39,-0.06,-0.31,0.19,272.51,294.0,0.0,0.0,0.0,0.0
1776192175790988164,42109,0.0,1.6,0.0,0.6,-0.12,0.14,-0.0,-3.25,4.63,0.03,0.16,-0.35,-0.12,-0.31,0.12,267.37,297.0,0.0,0.0,0.0,0.0
1776192175889275648,42209,0.0,1.4,0.0,0.3,-0.02,-0.08,-0.0,-3.19,4.63,0.0,0.16,-0.38,-0.0,-0.25,-0.06,271.66,297.0,0.0,0.0,0.0,0.0
1776192175991719104,42309,0.0,1.5,0.0,0.3,-0.02,-0.14,-0.0,-3.19,4.63,0.03,0.2,-0.36,0.06,-0.19,0.0,267.37,297.0,0.0,0.0,0.0,0.0
1776192176090008283,42408,0.0,1.4,0.0,0.4,0.06,0.02,-0.0,-3.19,4.63,0.01,0.26,-0.35,0.12,-0.88,0.31,267.37,297.0,0.0,0.0,0.0,0.0
1776192176188257094,42508,0.0,1.5,0.0,0.4,-0.12,-0.16,-0.0,-3.19,4.63,0.0,0.13,-0.38,-0.12,0.37,0.0,271.48,295.0,0.0,0.0,0.0,0.0
1776192176290712230,42608,0.0,1.4,0.0,0.2,-0.04,-0.14,-0.0,-3.19,4.63,0.02,-0.04,-0.38,0.19,0.06,-0.06,272.51,293.0,0.0,0.0,0.0,0.0
1776192176389040281,42708,0.0,1.6,0.0,0.0,0.06,-0.14,-0.0,-3.19,4.63,0.0,0.11,-0.36,0.12,0.81,-0.31,268.23,293.0,0.0,0.0,0.0,0.0
1776192176491404083,42809,0.0,1.5,0.0,0.4,0.06,-0.08,-0.0,-3.19,4.63,0.0,0.01,-0.4,-0.06,-0.0,0.06,268.4,293.0,0.0,0.0,0.0,0.0
1776192176599755967,42910,0.0,1.4,0.0,0.1,-0.12,-0.06,-0.0,-3.19,4.63,0.01,-0.06,-0.4,0.06,-0.88,0.31,267.2,293.0,0.0,0.0,0.0,0.0
1776192176692098956,43010,0.0,1.4,0.0,0.2,0.06,-0.12,-0.0,-3.25,4.63,0.11,-0.38,-0.51,-0.06,-0.12,0.12,268.4,293.0,0.0,0.0,0.0,0.0
1776192176790354526,43110,0.0,1.5,0.0,0.6,-0.02,0.04,-0.0,-3.19,4.63,0.03,-0.02,-0.4,-0.12,0.37,-0.06,268.4,293.0,0.0,0.0,0.0,0.0
1776192176892769495,43210,0.0,1.5,0.0,0.3,-0.04,-0.04,-0.0,-3.25,4.63,0.0,0.42,-0.11,-0.25,1.44,-0.31,268.91,293.0,0.0,0.0,0.0,0.0
1776192176995198094,43311,0.0,1.3,0.0,0.3,-0.04,-0.12,0.12,-3.31,4.31,0.44,0.69,-0.28,0.88,4.44,0.31,267.88,293.0,0.0,0.0,0.0,0.0
1776192177093499878,43411,0.0,1.3,0.0,0.2,0.0,-0.04,-0.25,-3.63,4.25,0.17,-0.42,0.16,-0.25,-5.13,-8.31,273.89,296.0,0.0,0.0,0.0,0.0
1776192177191795293,43510,0.0,1.3,0.0,0.2,-0.12,0.0,-1.0,-2.94,4.69,0.31,0.49,0.77,10.31,-5.5,-4.94,285.2,296.0,0.0,0.0,0.0,0.0
1776192177294182960,43610,0.0,1.5,0.0,0.3,-0.12,0.0,-1.44,-2.81,6.19,0.56,0.33,0.35,21.69,2.44,-6.44,298.41,303.0,0.0,0.0,0.0,0.0
1776192177392484931,43710,0.0,1.3,0.0,0.0,-0.02,0.04,-2.63,-3.38,8.19,0.1,0.28,-0.63,14.44,1.88,-14.75,318.13,315.0,0.0,0.0,0.0,0.0
1776192177490793308,43809,0.0,1.4,0.0,0.2,-0.1,-0.14,-3.81,-2.94,8.44,0.26,-0.11,-0.89,-3.44,-13.19,-8.69,359.29,315.0,0.0,0.0,0.0,0.0
1776192177593212308,43909,0.0,1.2,0.0,0.5,-0.16,0.04,-4.75,-1.94,8.06,0.39,0.41,-0.87,2.06,-7.69,-13.13,365.64,347.0,0.0,0.0,0.0,0.0
1776192177691484501,44010,0.0,1.5,0.0,0.5,-0.12,-0.08,-6.81,-1.69,7.94,0.13,-0.03,-1.19,2.19,-1.06,-23.62,383.82,382.0,0.0,0.0,0.0,0.0
1776192177789722083,44109,0.0,1.3,0.0,0.6,0.02,-0.06,-8.88,-1.75,7.94,0.12,-0.18,-0.99,-0.56,-8.5,-20.69,397.19,382.0,0.0,0.0,0.0,0.0
1776192177892162898,44209,0.0,1.6,0.0,0.2,0.0,-0.02,-10.5,-1.19,7.75,-0.02,0.05,-0.47,-2.25,-5.31,-9.69,399.42,378.0,0.0,0.0,0.0,0.0
1776192177990473572,44309,0.0,1.4,0.0,0.5,0.04,-0.14,-10.94,-1.12,7.56,-0.23,-1.06,-0.65,-1.69,-1.0,1.37,382.79,286.0,0.0,0.0,0.0,0.0
1776192178092888767,44409,0.0,1.2,0.0,0.5,-0.04,-0.06,-10.69,-1.81,7.69,-0.07,-0.88,-0.66,0.25,-7.25,6.25,380.73,286.0,0.0,0.0,0.0,0.0
1776192178191174767,44509,0.0,1.3,0.0,0.5,0.1,0.02,-9.44,-1.5,7.69,-0.16,-0.06,-0.46,-1.56,10.25,24.75,379.7,234.0,0.0,0.0,0.0,0.0
1776192178293570964,44609,0.0,1.5,0.0,0.3,-0.02,0.04,-6.31,-2.5,7.63,-0.21,-0.35,-0.33,-3.44,13.13,36.63,421.03,261.0,0.0,0.0,0.0,0.0
1776192178391871964,44709,0.0,1.7,0.0,0.2,0.02,-0.06,-2.75,-3.0,7.5,-0.25,0.49,-0.39,-5.13,7.13,33.75,751.17,261.0,0.0,0.0,0.0,0.0
1776192178494248643,44809,0.0,1.4,0.0,0.2,0.0,0.0,0.19,-3.19,7.25,-0.04,0.5,-0.51,-2.44,5.88,24.81,355.18,340.0,0.0,0.0,0.0,0.0
1776192178592567902,44910,0.0,1.2,0.0,0.5,0.16,0.02,2.13,-3.0,7.31,0.1,0.35,-0.73,0.94,-1.37,16.44,344.37,340.0,0.0,0.0,0.0,0.0
1776192178695019877,45009,0.0,1.4,0.0,0.7,0.02,-0.02,3.25,-2.25,7.25,0.55,0.41,-0.27,1.25,-6.81,6.75,336.14,385.0,0.0,0.0,0.0,0.0
1776192178793233025,45110,0.0,1.2,0.0,0.3,-0.02,-0.1,3.56,-1.5,6.88,0.16,0.27,-0.54,-3.06,2.69,2.25,337.85,366.0,0.0,0.0,0.0,0.0
1776192178895680148,45211,0.0,1.4,0.0,0.7,0.0,-0.1,3.88,-1.56,6.25,0.18,-0.17,-0.44,-7.5,-3.13,3.19,331.34,366.0,0.0,0.0,0.0,0.0
1776192178993963463,45310,0.0,1.4,0.0,0.6,0.06,-0.18,4.13,-0.69,5.75,0.41,0.61,-0.28,-2.38,-8.13,2.69,328.25,353.0,0.0,0.0,0.0,0.0
1776192179092264806,45410,0.0,1.5,0.0,0.5,-0.02,-0.04,4.38,-0.37,5.75,0.09,0.05,-0.27,3.69,6.75,1.37,312.82,340.0,0.0,0.0,0.0,0.0
1776192179194673513,45510,0.0,1.4,0.0,0.5,-0.2,-0.08,4.06,-0.63,6.63,-0.02,0.16,-0.39,14.69,-4.75,-5.38,283.49,340.0,0.0,0.0,0.0,0.0
1776192179292957691,45609,0.0,1.7,0.0,0.1,0.0,-0.06,3.75,-0.75,7.44,-0.1,-0.78,-0.21,1.63,2.69,-2.5,279.89,322.0,0.0,0.0,0.0,0.0
1776192179395357824,45709,0.0,1.3,0.0,0.6,-0.16,-0.08,3.5,-0.88,7.69,-0.14,-0.0,-0.43,-2.5,-2.69,-2.63,277.83,322.0,0.0,0.0,0.0,0.0
1776192179493683835,45809,0.0,1.5,0.0,0.5,0.06,-0.02,3.19,-0.69,7.63,0.13,-0.28,-0.61,2.19,-1.0,-2.88,267.71,309.0,0.0,0.0,0.0,0.0
1776192179601996737,45910,0.0,1.4,0.0,0.2,0.08,-0.1,2.94,-0.5,8.25,0.03,-0.12,-0.2,10.19,-1.75,-2.31,261.37,300.0,0.0,0.0,0.0,0.0
1776192179694312979,46010,0.0,1.5,0.0,0.3,0.0,-0.04,2.88,-0.31,9.38,-0.12,0.15,-0.15,10.25,-3.63,1.94,250.9,300.0,0.0,0.0,0.0,0.0
1776192179792616897,46110,0.0,1.3,0.0,0.3,0.14,0.02,2.81,-0.63,9.06,0.28,-0.43,-2.42,19.06,11.31,-6.44,255.19,282.0,0.79,0.79,0.0,0.0
1776192179895061031,46210,0.0,1.5,0.0,0.5,0.0,0.06,2.63,-1.94,7.19,0.49,-0.51,0.57,-59.5,15.75,-1.37,266.0,277.0,0.0,0.0,0.0,0.0
1776192179993354597,46310,0.0,1.5,0.0,0.2,-0.1,-0.08,2.81,-2.88,4.5,0.4,-6.05,1.8,-25.19,-2.06,5.81,264.11,277.0,0.0,0.0,0.0,0.0
1776192180095742128,46410,0.0,1.4,0.0,0.5,-0.08,-0.14,3.69,-1.31,4.0,0.16,2.67,4.75,-15.56,-6.06,5.56,266.0,289.0,0.0,0.0,0.0,0.0
1776192180194045297,46510,0.0,1.4,0.0,0.1,0.16,0.02,3.5,-2.19,4.06,0.1,-1.07,-0.74,2.0,5.19,-2.69,263.08,294.0,0.0,0.0,0.0,0.0
1776192180302383246,46610,0.0,1.7,0.0,0.5,-0.04,0.06,3.5,-1.88,4.0,-0.07,0.81,-0.43,0.5,2.44,-0.19,263.77,294.0,0.0,0.0,0.0,0.0
1776192180394735757,46710,0.0,1.5,0.0,0.1,-0.04,-0.18,3.5,-2.0,4.19,0.05,0.11,-0.16,3.94,1.88,0.0,258.45,293.0,0.0,0.0,0.0,0.0
1776192180497182308,46811,0.0,1.3,0.0,0.3,-0.1,-0.04,3.5,-2.19,4.44,-0.15,0.12,0.32,3.75,2.25,-0.37,257.76,293.0,0.0,0.0,0.0,0.0
1776192180595444884,46911,0.0,1.4,0.0,0.6,-0.02,-0.06,3.38,-2.5,4.19,-0.06,-0.26,-0.14,0.31,-0.37,0.25,262.57,293.0,0.0,0.0,0.0,0.0
1776192180693717812,47010,0.0,1.4,0.0,0.3,-0.04,-0.04,3.38,-2.5,4.19,-0.03,0.03,-0.24,-0.12,-0.56,0.25,263.6,294.0,0.0,0.0,0.0,0.0
1776192180796119900,47111,0.0,1.4,0.0,0.6,-0.04,-0.06,3.38,-2.5,4.19,0.0,-0.17,-0.28,-0.19,-0.37,0.19,263.6,294.0,0.0,0.0,0.0,0.0
1776192180894411791,47212,0.0,1.4,0.0,0.2,-0.06,-0.1,3.38,-2.5,4.19,-0.04,0.04,-0.24,-0.12,-0.5,0.06,258.28,291.0,0.0,0.0,0.0,0.0
1776192180996837490,47311,0.0,1.3,0.0,0.3,-0.04,-0.02,3.31,-2.56,4.25,0.0,-0.0,-0.32,-0.19,-0.75,0.31,259.31,291.0,0.0,0.0,0.0,0.0
1776192181099234661,47412,0.0,1.4,0.0,0.5,0.02,-0.04,3.31,-2.56,4.25,-0.04,0.12,-0.24,-0.0,-0.44,0.25,259.48,291.0,0.0,0.0,0.0,0.0
1776192181197524506,47513,0.0,1.5,0.0,0.2,0.04,-0.1,3.31,-2.56,4.25,0.0,0.09,-0.24,-0.0,-0.56,0.19,259.31,290.0,0.0,0.0,0.0,0.0
1776192181295826165,47612,0.0,1.7,0.0,0.1,-0.04,-0.1,3.31,-2.56,4.25,-0.01,0.07,-0.23,-0.06,-0.25,0.12,258.28,292.0,0.0,0.0,0.0,0.0
1776192181398233633,47712,0.0,1.4,0.0,0.3,0.1,0.04,3.31,-2.63,4.31,-0.03,0.09,-0.22,-0.06,-0.19,0.25,259.48,292.0,0.0,0.0,0.0,0.0
1776192181496523588,47812,0.0,1.4,0.0,0.3,0.08,-0.08,3.31,-2.63,4.31,-0.01,0.02,-0.26,-0.06,-0.0,0.0,258.45,290.0,0.0,0.0,0.0,0.0
1776192181594796803,47911,0.0,1.3,0.0,0.2,0.0,0.04,3.31,-2.63,4.31,-0.03,0.07,-0.25,0.12,-0.12,0.06,259.31,292.0,0.0,0.0,0.0,0.0
1776192181697219864,48012,0.0,1.4,0.0,0.3,-0.02,-0.1,3.31,-2.63,4.31,-0.02,-0.04,-0.26,-0.0,0.19,-0.06,259.48,292.0,0.0,0.0,0.0,0.0
1776192181795451615,48112,0.0,1.4,0.0,0.5,-0.02,-0.04,3.31,-2.63,4.31,-0.06,-0.0,-0.24,-0.0,0.25,-0.06,258.28,288.0,0.0,0.0,0.0,0.0
1776192181897929732,48212,0.0,1.5,0.0,0.1,-0.1,-0.1,3.31,-2.63,4.31,-0.03,-0.08,-0.28,-0.0,0.25,0.06,258.45,288.0,0.0,0.0,0.0,0.0
1776192181996209205,48312,0.0,1.7,0.0,0.5,-0.06,-0.04,3.31,-2.63,4.31,-0.03,-0.07,-0.26,0.06,0.25,-0.06,258.28,290.0,0.0,0.0,0.0,0.0
1776192182098612552,48412,0.0,1.4,0.0,0.5,-0.04,0.02,3.31,-2.63,4.31,-0.04,-0.05,-0.25,0.06,-0.0,0.0,258.28,292.0,0.0,0.0,0.0,0.0
1776192182196925979,48512,0.0,1.5,0.0,0.3,0.1,-0.12,3.31,-2.63,4.31,-0.05,-0.06,-0.26,0.12,-0.0,-0.06,258.28,292.0,0.0,0.0,0.0,0.0
1776192182295201221,48612,0.0,1.6,0.0,0.4,-0.06,0.04,3.31,-2.63,4.31,-0.04,-0.02,-0.24,0.12,-0.12,0.0,258.28,289.0,0.0,0.0,0.0,0.0
1776192182397627013,48711,0.0,1.5,0.0,0.2,0.04,-0.16,3.31,-2.63,4.31,-0.05,-0.06,-0.25,-0.0,-0.12,0.06,259.48,292.0,0.0,0.0,0.0,0.0
1776192182495919236,48811,0.0,1.0,0.0,0.3,-0.06,0.02,3.31,-2.63,4.31,-0.02,-0.0,-0.22,-0.0,-0.12,0.06,258.45,292.0,0.0,0.0,0.0,0.0
1776192182604279538,48911,0.0,1.4,0.0,0.5,-0.04,-0.04,3.31,-2.63,4.31,-0.01,-0.04,-0.25,-0.06,-0.0,0.12,259.48,290.0,0.0,0.0,0.0,0.0
1776192182696614029,49010,0.0,1.4,0.0,0.2,-0.04,-0.16,3.31,-2.63,4.31,-0.01,0.02,-0.25,-0.0,-0.12,-0.06,262.22,291.0,0.0,0.0,0.0,0.0
1776192182794926845,49110,0.0,1.5,0.0,0.6,0.0,-0.06,3.31,-2.63,4.31,-0.03,-0.01,-0.22,-0.06,-0.12,0.06,258.28,291.0,0.0,0.0,0.0,0.0
1776192182893148549,49210,0.0,1.4,0.0,0.1,-0.04,-0.14,3.31,-2.63,4.31,-0.03,0.02,-0.24,-0.0,-0.0,-0.06,258.45,291.0,0.0,0.0,0.0,0.0
1776192182995636008,49309,0.0,1.6,0.0,0.3,-0.12,-0.1,3.31,-2.63,4.31,-0.05,0.01,-0.26,0.06,-0.06,0.06,259.31,291.0,0.0,0.0,0.0,0.0
1776192183093899942,49409,0.0,1.4,0.0,0.1,0.04,-0.04,3.31,-2.63,4.31,-0.06,-0.0,-0.22,-0.0,-0.0,0.0,258.28,289.0,0.0,0.0,0.0,0.0
1776192183202237142,49509,0.0,1.4,0.0,0.5,0.1,-0.14,3.31,-2.63,4.31,-0.04,-0.0,-0.23,-0.0,0.06,0.0,258.45,292.0,0.0,0.0,0.0,0.0
1776192183294602492,49608,0.0,1.5,0.0,0.4,0.0,-0.06,3.31,-2.63,4.31,-0.03,-0.04,-0.25,0.12,0.06,0.0,259.48,292.0,0.0,0.0,0.0,0.0
1776192183392913946,49708,0.0,1.1,0.0,0.2,0.08,-0.08,3.31,-2.63,4.31,-0.04,-0.0,-0.25,-0.0,0.12,-0.06,258.45,292.0,0.0,0.0,0.0,0.0
1776192183495299190,49808,0.0,1.4,0.0,0.1,-0.08,-0.06,3.31,-2.63,4.31,-0.02,-0.04,-0.27,-0.0,0.19,0.0,258.28,291.0,0.0,0.0,0.0,0.0
1776192183593610551,49907,0.0,1.2,0.0,0.6,0.02,-0.14,3.31,-2.63,4.31,-0.04,-0.01,-0.25,-0.0,0.19,-0.06,259.31,291.0,0.0,0.0,0.0,0.0
1776192183695976203,50008,0.0,1.4,0.0,0.2,0.0,0.0,3.31,-2.63,4.31,-0.06,-0.02,-0.22,0.06,-0.06,0.06,259.48,291.0,0.0,0.0,0.0,0.0
1776192183794303601,50108,0.0,1.4,0.0,0.3,-0.08,-0.14,3.31,-2.63,4.31,-0.02,-0.01,-0.22,0.06,0.06,-0.12,258.28,291.0,0.0,0.0,0.0,0.0
1776192183892616258,50207,0.0,1.3,0.0,0.3,0.08,-0.08,3.31,-2.63,4.31,-0.05,-0.02,-0.24,-0.06,-0.19,0.0,258.45,291.0,0.0,0.0,0.0,0.0
1776192183995007318,50307,0.0,1.3,0.0,0.3,0.02,-0.06,3.31,-2.63,4.31,-0.02,-0.02,-0.24,-0.06,0.19,0.0,262.57,291.0,0.0,0.0,0.0,0.0
1776192184093299852,50407,0.0,1.5,0.0,0.3,0.2,-0.02,3.31,-2.63,4.31,-0.03,-0.0,-0.25,0.12,0.12,0.0,258.45,291.0,0.0,0.0,0.0,0.0
1776192184191625610,50506,0.0,1.6,0.0,0.5,0.1,-0.18,3.31,-2.63,4.31,-0.01,-0.02,-0.24,-0.06,0.19,0.0,259.48,291.0,0.0,0.0,0.0,0.0
1776192184293997547,50607,0.0,1.4,0.0,0.1,-0.14,-0.04,3.31,-2.63,4.31,-0.04,-0.0,-0.24,-0.0,-0.06,0.0,259.48,290.0,0.0,0.0,0.0,0.0
1776192184402339441,50708,0.0,1.5,0.0,0.5,0.04,-0.1,3.31,-2.63,4.31,-0.03,-0.0,-0.25,-0.06,-0.12,-0.06,259.48,290.0,0.0,0.0,0.0,0.0
1776192184494701594,50807,0.0,1.4,0.0,0.2,0.12,-0.18,3.31,-2.63,4.31,-0.02,-0.0,-0.24,-0.0,-0.0,-0.06,259.48,290.0,0.0,0.0,0.0,0.0
1776192184603021229,50908,0.0,1.5,0.0,0.5,-0.1,0.02,3.31,-2.63,4.31,-0.02,-0.0,-0.23,-0.06,-0.06,0.0,258.45,291.0,0.0,0.0,0.0,0.0
1776192184695412219,51008,0.0,1.4,0.0,0.6,-0.04,-0.04,3.31,-2.63,4.31,-0.02,-0.01,-0.24,0.06,0.12,0.06,258.28,291.0,0.0,0.0,0.0,0.0
1776192184793684852,51107,0.0,1.4,0.0,0.4,-0.1,-0.04,3.31,-2.63,4.31,-0.02,-0.02,-0.24,-0.0,0.06,0.06,258.28,291.0,0.0,0.0,0.0,0.0
1776192184896113882,51208,0.0,1.3,0.0,0.5,0.12,-0.16,3.31,-2.63,4.31,-0.02,-0.02,-0.23,-0.0,-0.12,-0.06,258.45,292.0,0.0,0.0,0.0,0.0
1776192184994437059,51308,0.0,1.2,0.0,0.5,-0.06,-0.04,3.31,-2.63,4.31,-0.01,-0.01,-0.22,0.12,-0.06,0.0,258.28,292.0,0.0,0.0,0.0,0.0
1776192185092802791,51407,0.0,1.4,0.0,0.2,0.08,0.12,3.31,-2.63,4.31,-0.03,-0.03,-0.23,0.12,-0.12,-0.06,259.48,291.0,0.0,0.0,0.0,0.0
1776192185195321089,51507,0.0,1.3,0.0,0.2,-0.16,0.04,3.31,-2.63,4.31,-0.04,-0.0,-0.23,-0.0,-0.0,0.0,258.45,293.0,0.0,0.0,0.0,0.0
1776192185293738253,51607,0.0,1.5,0.0,0.4,0.08,0.0,3.31,-2.63,4.31,0.0,-0.02,-0.23,-0.0,-0.06,0.12,258.45,293.0,0.0,0.0,0.0,0.0
1776192185392095392,51706,0.0,1.1,0.0,0.3,0.04,-0.06,3.31,-2.63,4.31,-0.04,-0.01,-0.23,0.06,-0.0,-0.06,259.48,291.0,0.0,0.0,0.0,0.0
1776192185494653546,51807,0.0,1.5,0.0,0.5,-0.18,-0.04,3.31,-2.63,4.31,-0.03,-0.0,-0.26,-0.0,0.06,0.06,258.45,291.0,0.0,0.0,0.0,0.0
1776192185603132625,51907,0.0,1.5,0.0,0.4,0.08,-0.1,3.31,-2.63,4.31,-0.03,-0.02,-0.26,0.12,-0.06,0.0,259.31,293.0,0.0,0.0,0.0,0.0
1776192185695554416,52007,0.0,1.5,0.0,0.3,-0.1,-0.06,3.31,-2.63,4.31,0.0,-0.0,-0.25,-0.06,-0.06,0.0,258.45,290.0,0.0,0.0,0.0,0.0
1776192185793889011,52107,0.0,1.4,0.0,0.2,-0.02,0.0,3.31,-2.63,4.31,-0.04,-0.01,-0.24,0.06,-0.06,-0.06,258.45,290.0,0.0,0.0,0.0,0.0
1776192185896467465,52207,0.0,1.5,0.0,1.2,-0.06,-0.16,3.31,-2.63,4.31,-0.04,0.01,-0.25,-0.06,-0.0,0.0,259.48,289.0,0.0,0.0,0.0,0.0
1776192185994865109,52306,0.0,0.2,0.0,1.2,-0.04,-0.04,3.31,-2.63,4.31,-0.05,-0.03,-0.24,0.12,0.06,0.0,259.48,290.0,0.0,0.0,0.0,0.0
1776192186097383599,52406,0.0,0.1,0.0,1.1,-0.18,0.0,3.31,-2.63,4.31,-0.03,-0.0,-0.24,0.06,-0.06,-0.06,259.48,290.0,0.0,0.0,0.0,0.0
1776192186195782648,52507,0.0,0.2,0.0,1.5,0.0,0.04,3.31,-2.63,4.31,-0.04,-0.0,-0.24,0.12,-0.19,0.06,259.48,291.0,0.0,0.0,0.0,0.0
1776192186298281206,52608,0.0,1.3,0.0,0.5,-0.06,-0.02,3.31,-2.63,4.31,-0.01,-0.01,-0.24,0.06,-0.0,0.12,263.6,291.0,0.0,0.0,0.0,0.0
1776192186396667742,52709,0.0,1.4,0.0,0.5,-0.08,-0.02,3.31,-2.63,4.31,-0.03,-0.0,-0.25,-0.0,-0.0,0.0,259.48,290.0,0.0,0.0,0.0,0.0
1776192186499220431,52809,0.0,1.4,0.0,0.0,0.04,-0.04,3.31,-2.63,4.31,-0.02,-0.02,-0.19,0.06,-0.0,-0.12,259.31,291.0,0.0,0.0,0.0,0.0
1776192186597559102,52910,0.0,1.3,0.0,0.2,0.0,-0.04,3.31,-2.63,4.31,-0.04,-0.0,-0.25,-0.0,-0.06,0.0,263.6,291.0,0.0,0.0,0.0,0.0
1776192186700095310,53010,0.0,1.4,0.0,0.0,0.06,0.06,3.31,-2.63,4.31,-0.01,-0.01,-0.23,-0.06,0.12,-0.06,258.45,290.0,0.0,0.0,0.0,0.0
1776192186798409290,53110,0.0,1.2,0.0,0.4,0.06,0.0,3.31,-2.63,4.31,-0.01,-0.0,-0.24,-0.06,-0.0,0.06,258.45,290.0,0.0,0.0,0.0,0.0
1776192186900989358,53211,0.0,1.5,0.0,0.4,-0.08,0.02,3.31,-2.63,4.31,-0.01,-0.0,-0.27,0.06,-0.0,0.0,258.45,290.0,0.0,0.0,0.0,0.0
1776192186999389149,53311,0.0,1.4,0.0,0.5,0.06,-0.16,3.31,-2.63,4.31,-0.02,-0.0,-0.24,0.06,-0.06,-0.06,262.57,291.0,0.0,0.0,0.0,0.0
1776192187101890044,53410,0.0,1.4,0.0,0.2,0.04,0.06,3.31,-2.63,4.31,-0.03,0.01,-0.22,-0.0,-0.06,0.0,258.45,291.0,0.0,0.0,0.0,0.0
1776192187200302934,53510,0.0,1.3,0.0,0.4,0.02,-0.04,3.31,-2.63,4.31,-0.05,-0.01,-0.24,-0.0,-0.12,0.0,258.45,291.0,0.0,0.0,0.0,0.0
1776192187298668573,53610,0.0,1.4,0.0,0.5,-0.04,-0.04,3.31,-2.63,4.31,-0.04,-0.01,-0.24,-0.06,-0.0,0.06,262.57,290.0,0.0,0.0,0.0,0.0
1776192187401196074,53709,0.0,1.4,0.0,0.2,0.06,-0.1,3.31,-2.63,4.31,-0.04,-0.0,-0.22,0.19,-0.12,0.0,263.6,289.0,0.0,0.0,0.0,0.0
1776192187509671367,53810,0.0,1.6,0.0,0.4,-0.02,0.04,3.31,-2.63,4.31,-0.05,-0.0,-0.24,0.12,-0.06,0.06,263.6,289.0,0.0,0.0,0.0,0.0
1776192187602108382,53910,0.0,1.6,0.0,0.2,0.14,0.0,3.31,-2.63,4.31,-0.02,-0.02,-0.23,-0.06,-0.0,-0.06,262.57,291.0,0.0,0.0,0.0,0.0
1776192187700505386,54009,0.0,1.4,0.0,0.3,0.0,-0.12,3.31,-2.63,4.31,-0.04,-0.01,-0.23,0.06,-0.12,0.0,263.6,291.0,0.0,0.0,0.0,0.0
1776192187798827054,54109,0.0,1.3,0.0,0.5,0.04,-0.04,3.31,-2.63,4.31,-0.02,-0.0,-0.22,0.06,-0.0,-0.19,262.57,290.0,0.0,0.0,0.0,0.0
1776192187901401547,54209,0.0,1.4,0.0,0.5,-0.02,-0.02,3.31,-2.63,4.31,-0.01,-0.02,-0.26,0.19,-0.12,0.0,262.57,290.0,0.0,0.0,0.0,0.0
1776192187999850585,54308,0.0,1.3,0.0,0.5,0.0,-0.1,3.31,-2.63,4.31,-0.01,-0.0,-0.26,-0.0,-0.0,0.0,263.77,290.0,0.0,0.0,0.0,0.0
1776192188102303381,54409,0.0,1.3,0.0,0.6,-0.06,-0.06,3.31,-2.63,4.31,-0.05,-0.02,-0.23,0.06,-0.0,0.0,263.6,290.0,0.0,0.0,0.0,0.0
1776192188200701468,54509,0.0,1.6,0.0,0.2,-0.27,-0.04,3.31,-2.63,4.31,-0.03,-0.0,-0.25,0.12,-0.12,-0.06,262.57,291.0,0.0,0.0,0.0,0.0
1776192188299078312,54608,0.0,1.4,0.0,0.3,-0.04,-0.08,3.31,-2.63,4.31,-0.02,-0.01,-0.24,-0.06,-0.06,0.12,263.6,291.0,0.0,0.0,0.0,0.0
1776192188401580200,54708,0.0,0.7,0.0,1.0,-0.1,0.02,3.31,-2.63,4.31,-0.03,-0.01,-0.24,0.06,-0.0,-0.12,262.57,289.0,0.0,0.0,0.0,0.0
1776192188499984497,54808,0.0,1.0,0.0,0.5,0.06,-0.06,3.31,-2.63,4.31,0.0,-0.01,-0.25,-0.0,-0.06,0.0,262.57,292.0,0.0,0.0,0.0,0.0
1776192188602524106,54908,0.0,1.2,0.0,0.2,-0.04,0.06,3.31,-2.63,4.31,-0.05,-0.0,-0.25,-0.0,-0.06,0.0,263.6,292.0,0.0,0.0,0.0,0.0
1776192188704985955,55009,0.0,0.7,0.0,0.4,-0.02,0.0,3.31,-2.63,4.31,-0.05,-0.0,-0.22,0.06,0.06,-0.19,262.57,291.0,0.0,0.0,0.0,0.0
1776192188803338572,55110,0.0,1.1,0.0,0.1,-0.04,-0.02,3.31,-2.63,4.31,-0.02,-0.03,-0.24,0.06,-0.06,-0.06,262.57,291.0,0.0,0.0,0.0,0.0
1776192188901765576,55209,0.0,0.9,0.0,0.4,-0.12,-0.12,3.31,-2.63,4.31,-0.03,-0.0,-0.23,-0.0,-0.0,-0.06,262.39,290.0,0.0,0.0,0.0,0.0
1776192189004267294,55309,0.0,0.9,0.0,0.2,-0.1,-0.04,3.31,-2.63,4.31,-0.01,-0.03,-0.27,-0.0,-0.06,-0.06,262.57,291.0,0.0,0.0,0.0,0.0
1776192189102664733,55409,0.0,0.9,0.0,0.3,-0.02,-0.1,3.31,-2.63,4.31,-0.04,-0.02,-0.24,0.06,0.06,0.12,263.6,291.0,0.0,0.0,0.0,0.0
1776192189201048456,55508,0.0,0.7,0.0,0.3,0.02,0.0,3.31,-2.63,4.31,-0.03,-0.02,-0.24,0.19,0.12,0.0,263.42,290.0,0.0,0.0,0.0,0.0
1776192189303555850,55609,0.0,1.1,0.0,0.4,-0.04,-0.18,3.31,-2.63,4.31,-0.04,-0.01,-0.24,0.06,-0.0,0.0,263.6,290.0,0.0,0.0,0.0,0.0
1776192189401944188,55709,0.0,1.1,0.0,0.3,-0.04,-0.1,3.31,-2.63,4.31,-0.03,-0.01,-0.24,-0.06,0.06,0.06,262.57,290.0,0.0,0.0,0.0,0.0
1776192189504430433,55809,0.0,0.7,0.0,0.5,-0.06,-0.04,3.31,-2.63,4.31,-0.04,-0.0,-0.26,0.06,-0.12,-0.06,262.57,289.0,0.0,0.0,0.0,0.0
1776192189602852432,55909,0.0,0.7,0.0,0.4,0.04,0.06,3.31,-2.63,4.31,-0.02,-0.03,-0.25,-0.06,-0.0,0.0,263.6,291.0,0.0,0.0,0.0,0.0
1776192189701219898,56008,0.0,0.9,0.0,0.5,0.04,-0.04,3.31,-2.63,4.31,-0.02,-0.02,-0.28,-0.0,-0.12,-0.12,262.57,291.0,0.0,0.0,0.0,0.0
1776192189803697635,56108,0.0,0.9,0.0,0.3,-0.02,-0.1,3.31,-2.63,4.31,-0.05,-0.02,-0.24,-0.12,0.06,-0.06,263.6,290.0,0.0,0.0,0.0,0.0
1776192189912159873,56209,0.0,0.9,0.0,0.3,-0.08,-0.02,3.31,-2.63,4.31,-0.05,-0.0,-0.24,0.06,-0.0,0.19,262.57,290.0,0.0,0.0,0.0,0.0
1776192190004605802,56309,0.0,1.2,0.0,0.5,-0.06,-0.02,3.31,-2.63,4.31,-0.03,-0.0,-0.25,-0.0,0.06,0.12,262.57,290.0,0.0,0.0,0.0,0.0
1776192190102998209,56409,0.0,0.8,0.0,0.5,0.04,-0.06,3.31,-2.63,4.31,-0.03,-0.0,-0.26,-0.0,-0.06,0.0,262.57,292.0,0.0,0.0,0.0,0.0
1776192190211422696,56509,0.0,0.9,0.0,0.2,-0.02,-0.12,3.31,-2.63,4.31,-0.03,-0.0,-0.24,-0.06,0.12,0.0,262.57,292.0,0.0,0.0,0.0,0.0
1776192190303881360,56608,0.0,0.9,0.0,1.7,-0.1,0.04,3.31,-2.63,4.31,-0.04,-0.0,-0.25,-0.06,0.06,0.0,263.6,290.0,0.0,0.0,0.0,0.0
1776192190402258882,56708,0.0,1.5,0.0,0.1,-0.08,-0.04,3.31,-2.63,4.31,-0.03,-0.01,-0.28,-0.06,0.19,0.06,263.77,291.0,0.0,0.0,0.0,0.0
1776192190504765585,56808,0.0,1.5,0.0,0.6,-0.06,0.0,3.31,-2.63,4.31,-0.02,-0.02,-0.24,-0.06,0.06,-0.06,262.57,291.0,0.0,0.0,0.0,0.0
1776192190603155675,56907,0.0,1.6,0.0,0.5,0.04,-0.04,3.31,-2.63,4.31,-0.04,-0.0,-0.23,0.06,-0.12,0.0,262.57,289.0,0.0,0.0,0.0,0.0
1776192190701511177,57007,0.0,1.5,0.0,0.2,0.02,-0.2,3.31,-2.63,4.31,-0.03,-0.0,-0.25,-0.06,-0.06,0.06,263.6,291.0,0.0,0.0,0.0,0.0
1776192190804044850,57107,0.0,1.7,0.0,0.0,0.08,-0.06,3.31,-2.63,4.31,-0.04,-0.0,-0.25,-0.0,-0.0,-0.06,263.6,291.0,0.0,0.0,0.0,0.0
1776192190906535965,57208,0.0,1.3,0.0,0.5,0.06,-0.02,3.31,-2.63,4.31,-0.03,-0.03,-0.28,-0.0,-0.06,0.0,263.6,289.0,0.0,0.0,0.0,0.0
1776192191004915672,57309,0.0,1.2,0.0,0.3,-0.02,-0.18,3.31,-2.63,4.31,-0.02,-0.02,-0.25,-0.0,-0.06,-0.06,262.57,289.0,0.0,0.0,0.0,0.0
1776192191103283201,57409,0.0,1.4,0.0,1.1,0.02,0.04,3.31,-2.63,4.31,-0.03,-0.02,-0.26,-0.12,0.12,0.06,262.39,291.0,0.0,0.0,0.0,0.0
1776192191205807721,57508,0.0,1.0,0.0,0.4,0.04,-0.16,3.31,-2.63,4.31,-0.04,-0.02,-0.26,-0.06,0.06,-0.06,262.57,291.0,0.0,0.0,0.0,0.0
1776192191304189189,57608,0.0,1.1,0.0,0.3,0.0,-0.08,3.31,-2.63,4.31,-0.02,-0.0,-0.27,-0.0,-0.12,0.12,262.57,291.0,0.0,0.0,0.0,0.0
1776192191406697861,57708,0.0,1.0,0.0,0.5,0.04,-0.06,3.31,-2.63,4.31,-0.01,-0.0,-0.25,-0.0,0.12,-0.06,263.6,290.0,0.0,0.0,0.0,0.0
1776192191505065149,57807,0.0,1.5,0.0,0.1,-0.14,0.04,3.31,-2.63,4.31,-0.01,-0.01,-0.24,-0.0,-0.0,-0.06,262.57,292.0,0.0,0.0,0.0,0.0
1776192191603434087,57907,0.0,1.4,0.0,0.3,-0.06,-0.16,3.31,-2.63,4.31,-0.02,-0.02,-0.25,-0.0,0.12,0.06,263.6,292.0,0.0,0.0,0.0,0.0
1776192191705944816,58008,0.0,1.1,0.0,0.2,-0.08,0.04,3.31,-2.63,4.31,-0.04,-0.01,-0.24,-0.12,-0.0,-0.12,262.57,290.0,0.0,0.0,0.0,0.0
1776192191804307619,58107,0.0,1.3,0.0,0.3,-0.16,-0.21,3.31,-2.63,4.31,-0.04,-0.01,-0.24,-0.0,-0.0,0.0,263.6,290.0,0.0,0.0,0.0,0.0
1776192191906833918,58208,0.0,1.3,0.0,0.2,-0.14,-0.1,3.31,-2.63,4.31,-0.04,-0.02,-0.24,-0.0,-0.12,-0.19,263.6,290.0,0.0,0.0,0.0,0.0
1776192192005192604,58309,0.0,1.3,0.0,0.6,0.0,0.0,3.31,-2.63,4.31,-0.03,-0.01,-0.26,0.06,0.06,-0.06,262.57,290.0,0.0,0.0,0.0,0.0
1776192192107697876,58408,0.0,1.6,0.0,0.3,-0.21,-0.02,3.31,-2.63,4.31,-0.03,-0.01,-0.27,0.06,0.19,0.0,262.57,291.0,0.0,0.0,0.0,0.0
1776192192206087593,58508,0.0,1.6,0.0,0.3,-0.06,-0.18,3.31,-2.63,4.31,-0.02,-0.02,-0.22,0.06,-0.0,0.0,263.6,291.0,0.0,0.0,0.0,0.0
1776192192308567732,58608,0.0,1.3,0.0,0.5,-0.02,0.08,3.31,-2.63,4.31,-0.02,-0.01,-0.23,-0.12,-0.06,-0.06,263.6,290.0,0.0,0.0,0.0,0.0
1776192192406961971,58708,0.0,1.5,0.0,0.7,-0.1,0.02,3.31,-2.63,4.31,-0.02,-0.01,-0.25,0.06,-0.06,-0.12,263.6,290.0,0.0,0.0,0.0,0.0
1776192192505373465,58808,0.0,1.6,0.0,0.5,-0.04,0.0,3.31,-2.63,4.31,-0.02,-0.0,-0.24,0.06,0.06,-0.06,262.39,290.0,0.0,0.0,0.0,0.0
1776192192607806452,58908,0.0,1.6,0.0,0.3,0.0,-0.08,3.31,-2.63,4.31,-0.02,-0.0,-0.25,0.06,-0.12,0.0,263.6,290.0,0.0,0.0,0.0,0.0
1776192192706224934,59009,0.0,1.5,0.0,0.5,-0.04,-0.1,3.31,-2.63,4.31,-0.03,-0.0,-0.26,-0.06,-0.06,0.06,263.6,290.0,0.0,0.0,0.0,0.0
1776192192808669542,59109,0.0,1.5,0.0,0.2,0.02,0.04,3.31,-2.63,4.31,-0.01,-0.02,-0.25,-0.06,0.06,0.12,262.57,291.0,0.0,0.0,0.0,0.0
1776192192907114677,59208,0.0,1.5,0.0,0.5,0.08,0.0,3.31,-2.63,4.31,-0.03,0.01,-0.23,-0.06,0.19,0.12,262.57,291.0,0.0,0.0,0.0,0.0
1776192193005448657,59308,0.0,1.3,0.0,0.3,-0.12,-0.06,3.31,-2.63,4.31,-0.03,-0.01,-0.23,0.06,0.12,0.0,262.57,291.0,0.0,0.0,0.0,0.0
1776192193107962507,59408,0.0,1.3,0.0,0.1,-0.1,0.0,3.31,-2.63,4.31,0.0,-0.01,-0.23,-0.12,-0.06,0.0,262.57,291.0,0.0,0.0,0.0,0.0
1776192193206419708,59508,0.0,1.4,0.0,0.7,0.02,0.12,3.31,-2.63,4.31,-0.04,-0.0,-0.21,0.06,0.06,-0.06,262.57,291.0,0.0,0.0,0.0,0.0
1776192193308832528,59608,0.0,1.4,0.0,0.5,-0.06,-0.04,3.31,-2.63,4.31,-0.04,-0.02,-0.23,-0.0,-0.0,0.0,263.6,291.0,0.0,0.0,0.0,0.0
1776192193407177077,59709,0.0,1.4,0.0,0.3,0.02,0.0,3.31,-2.63,4.31,-0.03,-0.0,-0.23,-0.0,-0.0,-0.12,262.57,290.0,0.0,0.0,0.0,0.0
1776192193509712094,59809,0.0,1.4,0.0,0.4,-0.02,-0.08,3.31,-2.63,4.31,-0.03,-0.03,-0.24,-0.06,-0.12,-0.06,262.57,290.0,0.0,0.0,0.0,0.0
1776192193608084834,59909,0.0,1.2,0.0,0.2,-0.04,0.06,3.31,-2.63,4.31,-0.03,-0.02,-0.23,0.12,-0.06,-0.06,262.57,290.0,0.0,0.0,0.0,0.0
1776192193710569084,60009,0.0,1.4,0.0,0.2,-0.04,-0.23,3.31,-2.63,4.31,-0.03,-0.01,-0.28,0.06,-0.06,0.06,262.39,291.0,0.0,0.0,0.0,0.0
1776192193808978115,60108,0.0,1.3,0.0,0.5,0.18,-0.06,3.31,-2.63,4.31,-0.03,-0.0,-0.24,-0.0,-0.06,0.12,263.6,291.0,0.0,0.0,0.0,0.0
1776192193907329670,60208,0.0,1.3,0.0,0.3,0.04,-0.04,3.31,-2.63,4.31,-0.04,-0.0,-0.24,-0.0,-0.0,0.0,262.57,292.0,0.0,0.0,0.0,0.0
1776192194009824780,60308,0.0,1.6,0.0,0.2,-0.06,0.0,3.31,-2.63,4.31,-0.02,-0.0,-0.24,-0.0,0.06,0.06,262.39,290.0,0.0,0.0,0.0,0.0
