timestamp_ns,time_ms,voltage_left,current_left_ma,voltage_right,current_right_ma,motor_current_left,motor_current_right,euler_x,euler_y,euler_z,acc_lin_x,acc_lin_y,acc_lin_z,gyro_x,gyro_y,gyro_z,sonar_mm,tof_mm,rpm_left,rpm_right,rotations_left,rotations_right
1775763081704378604,129463,,166071.0,0.0,1.0,0.024,0.1,0.02,0.04,167.81,-7.69,-2.25,0.02,-0.21,0.06,7.06,8.44,-7.63,1346.28,1742.0,0.0,0.0
1775763083353562323,166071,0.0,1.0,0.024,0.1,-0.02,-0.04,-167.81,-2.25,-7.69,0.21,-0.02,-0.06,-7.06,-8.44,-7.63,1346.28,1742.0,0.0,0.0,0.0,
1775763083447569567,1913,0.0,1.0,0.036,0.4,-0.06,0.0,-0.5,-2.44,-9.94,0.05,0.01,0.0,-3.31,-0.0,-0.25,1325.69,2007.0,0.0,0.0,0.0,0.0
1775763083545909495,2013,0.0,1.0,0.032,0.6,-0.02,-0.08,-0.44,-2.31,-10.13,0.0,0.17,-0.12,-0.94,0.25,-0.06,1327.24,3127.0,0.0,0.0,0.0,0.0
1775763083644229647,2113,0.0,1.1,0.028,0.0,-0.1,-0.18,-0.5,-2.31,-10.13,-0.01,-0.0,-0.01,0.94,-0.12,-1.06,1427.74,3127.0,0.0,0.0,0.0,0.0
1775763083746611234,2212,0.0,0.7,0.024,0.2,-0.04,-0.06,-0.63,-2.19,-10.13,-0.03,0.1,0.02,-0.75,-1.0,-1.0,1361.2,1253.0,0.0,0.0,0.0,0.0
1775763083844896998,2313,0.0,1.0,0.024,0.4,0.04,-0.02,-0.63,-2.13,-10.19,0.06,0.1,-0.02,0.12,-0.37,-0.25,1351.76,2566.0,0.0,0.0,0.0,0.0
1775763083947301176,2413,0.0,0.9,0.028,0.3,0.08,-0.08,-0.69,-2.0,-10.13,-0.02,0.09,0.01,0.81,-0.81,-1.12,1357.94,2566.0,0.0,0.0,0.0,0.0
1775763084045601847,2512,0.0,1.0,0.008,0.2,-0.04,-0.14,-0.81,-1.94,-10.0,0.05,0.08,-0.06,1.19,-0.63,-0.81,1340.62,1554.0,0.0,0.0,0.0,0.0
1775763084143890732,2613,0.0,1.0,0.02,0.2,-0.1,-0.02,-0.88,-1.88,-9.88,-0.06,0.17,0.04,1.75,-0.06,-0.81,1337.7,1121.0,0.0,0.0,0.0,0.0
1775763084246292419,2712,0.0,0.9,0.072,0.4,-0.12,-0.12,-0.94,-1.81,-9.69,0.06,0.06,0.04,1.0,0.25,0.12,1350.22,1121.0,0.0,0.0,0.0,0.0
1775763084344577341,2812,0.0,0.5,0.052,0.5,-0.06,-0.04,-0.88,-1.75,-9.63,-0.13,0.15,-0.02,0.75,-1.56,0.69,1349.88,1955.0,0.0,0.0,0.0,0.0
1775763084446926512,2912,0.0,0.8,0.04,0.0,0.08,-0.12,-0.81,-1.63,-9.63,-0.05,0.16,-0.08,-0.12,-1.31,1.63,11961.61,2669.0,0.0,0.0,0.0,0.0
1775763084545259858,3012,0.0,0.7,0.028,0.0,0.0,0.0,-0.56,-1.56,-9.56,0.05,0.16,0.04,1.12,0.06,2.75,1342.67,2669.0,0.0,0.0,0.0,0.0
1775763084645483120,3112,0.0,0.7,0.028,0.5,0.0,-0.1,-0.31,-1.56,-9.44,-0.11,0.09,0.03,0.63,0.25,3.06,11961.78,1769.0,0.0,0.0,0.0,0.0
1775763084745973300,3212,0.0,1.5,0.016,0.3,-0.08,-0.16,-0.0,-1.63,-9.44,-0.05,0.06,0.06,-1.12,1.06,2.81,1337.19,1769.0,0.0,0.0,0.0,0.0
1775763084844253000,3312,0.0,1.2,0.0,1.2,-0.04,-0.18,0.25,-1.63,-9.56,-0.06,0.09,0.02,-2.13,-1.56,2.31,1433.4,584.0,0.0,0.0,0.0,0.0
1775763084944471318,3411,0.0,0.6,0.028,0.5,0.0,-0.08,0.5,-1.56,-9.75,-0.01,0.11,-0.03,-1.5,0.56,2.75,11963.33,1797.0,0.0,0.0,0.0,0.0
1775763085044955942,3511,0.0,1.0,0.02,0.2,-0.08,-0.1,0.75,-1.63,-9.81,0.0,0.05,-0.09,0.06,0.37,3.06,1383.15,1797.0,0.0,0.0,0.0,0.0
1775763085147345453,3612,0.0,0.9,0.032,0.5,0.06,-0.1,1.0,-1.75,-9.69,-0.03,0.01,-0.03,2.38,1.0,2.13,1372.69,1450.0,0.0,0.0,0.0,0.0
1775763085245648867,3712,0.0,1.0,0.064,0.2,0.0,0.02,1.12,-1.88,-9.44,-0.07,0.01,0.04,2.69,1.19,0.75,1338.04,1784.0,0.0,0.0,0.0,0.0
1775763085347982880,3813,0.0,0.9,0.052,0.1,-0.02,0.02,1.06,-1.94,-9.25,-0.02,0.01,0.06,0.5,0.25,-0.94,1333.24,1784.0,0.0,0.0,0.0,0.0
1775763085446285071,3912,0.0,1.0,0.044,0.3,0.06,0.02,0.94,-1.88,-9.25,-0.01,0.08,-0.03,-0.44,0.75,-1.31,1426.88,1979.0,0.0,0.0,0.0,0.0
1775763085548690675,4013,0.0,0.6,0.032,0.1,0.18,-0.12,0.81,-1.94,-9.25,-0.01,0.07,-0.02,-0.25,1.25,-1.25,1438.37,2039.0,0.0,0.0,0.0,0.0
1775763085648935020,4114,0.0,1.0,0.036,0.1,-0.04,-0.06,0.69,-2.06,-9.25,-0.03,0.04,-0.02,0.37,1.19,-2.25,11960.75,2547.0,0.0,0.0,0.0,0.0
1775763085749405136,4214,0.0,0.9,0.024,0.5,0.02,-0.04,0.44,-2.13,-9.25,0.01,0.02,0.0,-0.25,-0.06,-2.25,1323.81,2547.0,0.0,0.0,0.0,0.0
1775763085847707179,4314,0.0,0.6,0.02,0.5,-0.02,-0.06,0.19,-2.06,-9.31,-0.06,0.06,-0.01,-1.56,0.44,-3.38,1354.16,2547.0,0.0,0.0,0.0,0.0
1775763085958081598,4414,0.0,0.7,0.016,0.2,0.16,0.0,-0.12,-2.06,-9.5,0.04,0.05,-0.08,-1.94,-0.12,-2.81,11961.95,2074.0,0.0,0.0,0.0,0.0
1775763086048405890,4514,0.0,0.9,0.02,0.3,-0.04,-0.12,-0.37,-2.06,-9.63,0.0,0.08,-0.08,0.12,0.69,-2.81,1367.54,954.0,0.0,0.0,0.0,0.0
1775763086150801800,4615,0.0,1.1,0.044,0.2,-0.02,0.0,-0.63,-2.0,-9.56,0.06,0.03,-0.01,0.88,-0.19,-1.69,1343.7,954.0,0.0,0.0,0.0,0.0
1775763086249087891,4715,0.0,1.0,0.06,0.2,0.16,-0.04,-0.81,-2.0,-9.44,-0.03,0.12,-0.04,1.06,0.12,-1.44,1332.9,2125.0,0.0,0.0,0.0,0.0
1775763086347414555,4814,0.0,1.1,0.048,0.4,-0.12,-0.02,-0.88,-2.0,-9.38,0.02,0.06,-0.02,1.19,0.69,-0.44,1319.69,1398.0,0.0,0.0,0.0,0.0
1775763086449734745,4915,0.0,0.9,0.032,0.3,-0.1,-0.06,-0.88,-2.0,-9.31,-0.02,0.06,0.01,0.5,0.19,-0.06,1334.61,1398.0,0.0,0.0,0.0,0.0
1775763086548048817,5015,0.0,1.1,0.036,0.3,0.04,-0.02,-0.88,-2.0,-9.31,-0.02,0.08,0.02,-0.0,-0.31,0.5,1342.5,1803.0,0.0,0.0,0.0,0.0
1775763086658397541,5115,0.0,0.7,0.032,0.4,0.12,0.0,-0.81,-2.0,-9.31,0.0,0.04,-0.03,-0.63,0.37,0.25,11961.1,1784.0,0.0,0.0,0.0,0.0
1775763086748774483,5215,0.0,0.9,0.02,0.2,-0.1,-0.1,-0.88,-2.06,-9.31,-0.04,0.01,-0.02,-0.12,0.56,0.19,1333.93,1784.0,0.0,0.0,0.0,0.0
1775763086859058413,5315,0.0,1.0,0.032,0.2,0.1,-0.14,-0.88,-2.06,-9.31,0.03,0.05,-0.01,-0.06,-0.0,0.25,11961.95,2121.0,0.0,0.0,0.0,0.0
1775763086949456947,5415,0.0,0.9,0.02,0.5,-0.04,0.04,-0.88,-2.06,-9.31,-0.04,-0.0,0.0,-0.31,0.81,-0.37,1346.1,2121.0,0.0,0.0,0.0,0.0
1775763087047712750,5515,0.0,0.5,0.008,-0.1,-0.04,0.02,-0.88,-2.06,-9.38,0.02,0.04,0.0,-0.56,-0.12,0.31,1352.79,706.0,0.0,0.0,0.0,0.0
1775763087152044028,5615,0.0,0.9,0.036,0.5,-0.06,-0.04,-0.81,-2.13,-9.38,0.04,0.04,-0.01,0.5,0.37,0.0,11965.55,1658.0,0.0,0.0,0.0,0.0
1775763087248485066,5715,0.0,0.9,0.056,0.2,-0.02,-0.08,-0.81,-2.13,-9.38,-0.03,0.04,0.05,0.63,0.63,0.81,1375.77,1658.0,0.0,0.0,0.0,0.0
1775763087350851542,5815,0.0,0.9,0.044,0.6,-0.14,-0.08,-0.75,-2.25,-9.38,0.03,-0.0,-0.02,-0.88,1.25,1.06,11962.3,3012.0,0.0,0.0,0.0,0.0
1775763087449165051,5915,0.0,0.9,0.04,0.2,-0.02,-0.1,-0.75,-2.25,-9.38,0.05,-0.02,-0.02,0.63,-0.56,-1.06,11961.78,381.0,0.0,0.0,0.0,0.0
1775763087551491381,6016,0.0,0.7,0.032,0.3,-0.06,-0.02,-0.81,-2.19,-9.31,0.01,0.05,-0.06,0.88,-1.12,-1.25,1350.73,381.0,0.0,0.0,0.0,0.0
1775763087661826687,6117,0.0,0.8,0.028,0.1,0.02,-0.14,-0.94,-2.13,-9.19,-0.01,0.12,-0.07,1.0,0.31,-1.12,11961.1,345.0,0.0,0.0,0.0,0.0
1775763087754130852,6217,0.0,1.1,0.016,0.2,-0.04,0.04,-1.0,-2.13,-9.19,0.0,0.08,-0.01,0.25,-0.12,-0.88,11960.07,1361.0,0.0,0.0,0.0,0.0
1775763087850515188,6317,0.0,1.0,0.012,0.4,0.04,-0.04,-1.19,-2.06,-9.19,0.03,0.04,-0.07,0.06,0.5,-1.75,1323.47,1361.0,0.0,0.0,0.0,0.0
1775763087952902405,6417,0.0,1.1,0.016,-0.1,-0.08,0.02,-1.25,-2.06,-9.13,-0.01,0.09,-0.05,1.19,0.06,-0.56,1336.16,1893.0,0.0,0.0,0.0,0.0
1775763088051198525,6516,0.0,1.0,0.012,0.2,0.08,0.0,-1.25,-2.06,-9.06,0.01,0.06,-0.06,0.31,0.19,0.06,1336.67,1893.0,0.0,0.0,0.0,0.0
1775763088153592641,6617,0.0,0.9,0.028,0.1,0.08,-0.06,-1.31,-2.25,-8.94,0.0,0.05,0.02,2.25,3.13,-0.94,1322.09,1415.0,0.0,0.0,0.0,0.0
1775763088251885384,6718,0.0,0.9,0.064,0.2,0.04,-0.18,-1.31,-2.31,-8.88,-0.03,-0.04,0.0,0.06,-1.75,1.44,1320.38,2304.0,0.0,0.0,0.0,0.0
1775763088354293759,6817,0.0,0.9,0.048,0.6,0.04,-0.02,-1.19,-2.19,-8.88,-0.05,0.04,0.0,0.25,-0.81,-0.06,1341.82,2304.0,0.0,0.0,0.0,0.0
1775763088452569225,6917,0.0,0.7,0.036,0.1,0.02,0.02,-1.19,-2.19,-8.88,-0.01,0.06,-0.01,-0.56,-0.25,0.0,1325.69,2125.0,0.0,0.0,0.0,0.0
1775763088562862837,7018,0.0,1.0,0.032,0.5,-0.14,-0.06,-1.25,-2.25,-8.88,-0.05,0.04,-0.04,0.31,1.5,-0.81,11959.72,2700.0,0.0,0.0,0.0,0.0
1775763088653261991,7118,0.0,1.0,0.028,0.2,0.08,-0.14,-1.31,-2.38,-8.88,0.02,0.03,-0.01,1.12,2.13,-0.88,1401.5,2700.0,0.0,0.0,0.0,0.0
1775763088763566936,7218,0.0,1.1,0.02,0.5,-0.08,-0.12,-1.37,-2.5,-8.69,-0.06,0.05,0.0,1.25,-0.12,0.31,11961.61,1744.0,0.0,0.0,0.0,0.0
1775763088853947127,7318,0.0,1.0,0.02,0.3,0.08,-0.14,-1.44,-2.5,-8.69,-0.04,0.04,0.02,-0.44,0.69,-1.06,1402.7,2926.0,0.0,0.0,0.0,0.0
1775763088954172468,7418,0.0,0.9,0.028,0.5,0.1,0.04,-1.44,-2.44,-8.81,-0.02,0.14,-0.08,-1.56,-1.0,-0.25,11959.21,2241.0,0.0,0.0,0.0,0.0
1775763089062651779,7518,0.0,0.8,0.02,0.2,0.0,-0.08,-1.44,-2.44,-8.88,0.0,0.05,-0.09,-0.0,-0.0,0.12,11959.72,2241.0,0.0,0.0,0.0,0.0
1775763089152942802,7618,0.0,0.8,0.028,0.2,-0.06,-0.08,-1.44,-2.44,-8.88,0.0,0.04,-0.05,0.37,-0.25,0.37,1330.33,2241.0,0.0,0.0,0.0,0.0
1775763089255357761,7718,0.0,0.8,0.06,0.4,0.06,-0.08,-1.37,-2.44,-8.81,-0.06,0.09,0.03,0.5,-0.31,1.06,11960.92,498.0,0.0,0.0,0.0,0.0
1775763089353586870,7818,0.0,0.9,0.06,0.8,0.02,-0.04,-1.31,-2.44,-8.81,0.01,0.03,0.0,-0.56,-0.06,0.94,1319.01,1877.0,0.0,0.0,0.0,0.0
1775763089451859034,7918,0.0,1.3,0.04,0.5,0.02,-0.14,-1.25,-2.44,-8.81,-0.05,0.07,-0.08,-0.56,0.19,-0.12,1314.89,1877.0,0.0,0.0,0.0,0.0
1775763089554317862,8017,0.0,1.3,0.028,0.2,-0.02,-0.18,-1.25,-2.44,-8.88,0.0,0.04,-0.05,0.06,-0.5,-0.5,1358.45,589.0,0.0,0.0,0.0,0.0
1775763089652620690,8118,0.0,1.3,0.024,0.5,0.12,-0.08,-1.31,-2.38,-8.88,0.02,0.06,-0.04,-0.06,-0.06,-1.37,1336.67,2095.0,0.0,0.0,0.0,0.0
1775763089750891853,8217,0.0,1.1,0.02,0.3,-0.02,-0.16,-1.44,-2.38,-8.81,0.02,0.06,-0.04,1.5,-0.0,-1.0,1323.98,2095.0,0.0,0.0,0.0,0.0
1775763089853305387,8316,0.0,1.4,0.012,0.2,-0.18,-0.12,-1.5,-2.38,-8.69,0.0,0.09,-0.03,1.37,-0.25,-0.06,1332.04,2731.0,0.0,0.0,0.0,0.0
1775763089951598845,8416,0.0,1.0,0.02,0.2,-0.06,-0.02,-1.5,-2.38,-8.56,0.02,0.09,-0.04,1.06,-0.0,-0.56,1326.72,2373.0,0.0,0.0,0.0,0.0
1775763090049907681,8515,0.0,1.4,0.012,0.2,-0.02,0.04,-1.63,-2.38,-8.56,0.0,0.07,-0.02,-0.88,-0.31,-1.19,1311.46,2373.0,0.0,0.0,0.0,0.0
1775763090160227459,8614,0.0,1.4,0.028,0.4,-0.14,0.0,-1.75,-2.25,-8.69,0.05,0.04,-0.13,-0.75,-1.06,-1.56,11961.78,1949.0,0.0,0.0,0.0,0.0
1775763090250593586,8714,0.0,1.2,0.06,0.4,0.0,-0.18,-1.88,-2.13,-8.69,0.0,0.13,-0.05,0.06,-1.25,-1.63,1453.63,1949.0,0.0,0.0,0.0,0.0
1775763090348871669,8814,0.0,1.5,0.056,0.3,-0.04,-0.1,-2.0,-2.0,-8.63,0.0,0.11,-0.01,0.75,-0.94,-1.25,1330.15,2483.0,0.0,0.0,0.0,0.0
1775763090451244160,8913,0.0,1.1,0.028,0.3,0.0,-0.2,-2.0,-1.94,-8.63,0.0,0.13,0.03,-0.0,-0.5,0.56,1331.7,1690.0,0.0,0.0,0.0,0.0
1775763090549510780,9014,0.0,1.3,0.028,0.5,0.1,-0.04,-1.94,-1.94,-8.63,0.05,0.14,-0.07,-0.75,-0.44,1.94,1318.32,1690.0,0.0,0.0,0.0,0.0
1775763090651970174,9115,0.0,1.5,0.028,0.4,-0.1,0.0,-1.63,-2.0,-8.63,-0.01,0.09,-0.12,1.75,2.25,3.13,1333.76,2581.0,0.0,0.0,0.0,0.0
1775763090750254979,9214,0.0,1.4,0.028,0.3,-0.16,0.0,-1.44,-2.19,-8.5,-0.01,-0.0,-0.03,0.88,0.44,1.75,1319.69,1421.0,0.0,0.0,0.0,0.0
1775763090858587569,9314,0.0,0.6,0.02,0.7,0.02,-0.16,-1.25,-2.25,-8.44,-0.01,0.12,0.0,0.88,1.12,2.0,1333.07,1421.0,0.0,0.0,0.0,0.0
1775763090950959513,9414,0.0,0.9,0.02,0.3,-0.06,-0.02,-1.12,-2.31,-8.38,0.02,0.06,0.0,0.06,0.44,1.19,1414.36,778.0,0.0,0.0,0.0,0.0
1775763091049224159,9513,0.0,0.7,0.02,0.3,0.0,-0.06,-1.06,-2.44,-8.38,0.0,0.01,-0.01,0.56,1.06,-0.37,1350.56,1543.0,0.0,0.0,0.0,0.0
1775763091151636808,9614,0.0,0.7,0.024,0.4,-0.02,-0.06,-1.19,-2.44,-8.38,-0.01,-0.0,-0.05,0.25,0.25,-2.56,1459.46,1543.0,0.0,0.0,0.0,0.0
1775763091249935217,9713,0.0,0.9,0.052,0.6,-0.1,0.04,-1.44,-2.44,-8.31,0.01,0.11,-0.06,1.37,-0.5,-2.88,1326.21,1967.0,0.0,0.0,0.0,0.0
1775763091352317960,9814,0.0,1.0,0.052,0.3,0.0,-0.14,-1.75,-2.38,-8.19,-0.04,0.13,-0.01,1.31,0.69,-3.5,1321.06,1967.0,0.0,0.0,0.0,0.0
1775763091450585093,9914,0.0,1.2,0.04,0.6,-0.04,-0.14,-2.06,-2.38,-8.13,-0.04,0.16,-0.04,-0.06,0.25,-2.56,1319.86,1156.0,0.0,0.0,0.0,0.0
1775763091548916353,10013,0.0,1.2,0.032,0.2,0.08,-0.04,-2.25,-2.38,-8.19,-0.02,0.13,0.0,-0.88,0.06,-1.25,1316.26,1345.0,0.0,0.0,0.0,0.0
1775763091651328354,10113,0.0,1.1,0.028,0.3,-0.06,-0.16,-2.38,-2.31,-8.25,0.0,0.15,-0.07,-0.12,-0.25,-0.94,1342.84,1345.0,0.0,0.0,0.0,0.0
1775763091749613449,10213,0.0,0.8,0.02,0.3,0.02,-0.06,-2.38,-2.31,-8.19,0.02,0.14,0.0,1.31,0.06,-0.37,1328.1,1302.0,0.0,0.0,0.0,0.0
1775763091847974949,10312,0.0,0.9,0.024,0.3,0.04,0.14,-2.38,-2.31,-8.13,0.0,0.15,0.06,0.56,-0.25,0.31,1345.76,1496.0,0.0,0.0,0.0,0.0
1775763091950314619,10413,0.0,0.9,0.02,0.2,-0.06,-0.08,-2.31,-2.38,-8.0,-0.02,0.15,-0.04,0.88,0.75,1.12,1310.6,1496.0,0.0,0.0,0.0,0.0
1775763092048572556,10513,0.0,0.9,0.012,0.2,0.04,-0.02,-2.25,-2.38,-7.94,0.07,0.05,-0.02,1.06,-1.12,-0.25,1324.84,1029.0,0.0,0.0,0.0,0.0
1775763092151012475,10613,0.0,1.0,0.028,0.1,0.06,0.04,-2.25,-2.25,-7.81,-0.06,0.08,-0.04,1.5,-0.75,-0.06,1336.67,2129.0,0.0,0.0,0.0,0.0
1775763092249291639,10713,0.0,0.7,0.072,0.2,-0.06,-0.16,-2.19,-2.19,-7.75,0.05,0.12,0.09,0.12,-1.69,0.88,1321.24,2129.0,0.0,0.0,0.0,0.0
1775763092351689189,10814,0.0,0.9,0.052,0.0,0.1,-0.16,-2.06,-1.94,-7.75,-0.06,0.18,0.0,-0.69,-1.94,1.69,1325.01,1967.0,0.0,0.0,0.0,0.0
1775763092455963486,10913,0.0,1.0,0.04,0.3,-0.06,0.04,-1.88,-1.88,-7.81,0.01,0.03,-0.06,-0.44,-0.37,2.19,11961.1,2224.0,0.0,0.0,0.0,0.0
1775763092552352145,11013,0.0,0.9,0.036,0.2,0.02,-0.14,-1.81,-1.88,-7.75,0.05,0.04,-0.05,0.81,-0.0,-0.06,1324.67,2224.0,0.0,0.0,0.0,0.0
1775763092650685085,11113,0.0,0.7,0.028,0.3,-0.04,-0.02,-1.81,-1.88,-7.69,-0.02,0.11,0.04,1.0,0.25,-0.69,1404.76,1381.0,0.0,0.0,0.0,0.0
1775763092748962082,11213,0.0,1.4,0.02,0.7,-0.1,-0.12,-1.88,-1.94,-7.69,0.08,0.1,0.1,-0.81,1.63,-0.06,1362.57,1381.0,0.0,0.0,0.0,0.0
1775763092851363262,11313,0.0,1.3,0.0,1.0,-0.14,-0.08,-1.88,-2.06,-7.81,-0.06,0.06,0.0,-1.88,1.63,-0.37,1369.43,1759.0,0.0,0.0,0.0,0.0
1775763092959684373,11414,0.0,0.1,0.012,0.1,0.08,-0.16,-2.0,-2.13,-8.0,0.03,0.04,-0.04,-2.13,-0.0,-1.19,1407.67,726.0,0.0,0.0,0.0,0.0
1775763093052106752,11514,0.0,1.1,0.016,0.2,-0.1,-0.02,-2.0,-2.13,-8.06,-0.02,0.13,-0.08,-0.0,-0.5,-0.63,1403.56,726.0,0.0,0.0,0.0,0.0
1775763093160377728,11615,0.0,0.9,0.028,0.5,-0.02,-0.06,-2.06,-2.06,-8.06,0.04,0.05,-0.01,0.56,-0.25,-0.69,1330.67,1925.0,0.0,0.0,0.0,0.0
1775763093252750826,11714,0.0,1.0,0.06,0.3,0.1,-0.04,-2.13,-2.0,-8.06,0.18,0.23,-0.28,1.37,-0.81,-0.06,1313.52,2208.0,0.0,0.0,0.0,0.0
1775763093351008782,11814,0.0,1.1,0.048,0.2,0.0,0.0,-2.13,-1.88,-8.0,0.04,0.1,-0.06,1.06,-0.0,0.06,1325.52,2208.0,0.0,0.0,0.0,0.0
1775763093453391660,11915,0.0,0.9,0.036,0.3,0.0,0.04,-2.13,-1.88,-7.88,0.05,0.09,0.0,1.25,0.12,0.0,1327.41,1360.0,0.0,0.0,0.0,0.0
1775763093551736484,12014,0.0,0.7,0.04,0.4,0.04,-0.06,-2.13,-1.94,-7.75,-0.01,0.1,0.0,1.81,1.0,0.06,1326.72,1360.0,0.0,0.0,0.0,0.0
1775763093654167916,12114,0.0,1.0,0.028,0.3,-0.08,0.08,-2.13,-2.0,-7.56,-0.05,0.1,0.0,1.31,0.88,0.19,1308.2,298.0,0.0,0.0,0.0,0.0
1775763093752412650,12215,0.0,0.8,0.028,0.5,0.0,-0.1,-2.13,-2.13,-7.56,0.01,-0.0,-0.02,0.06,0.44,0.31,1327.58,1043.0,0.0,0.0,0.0,0.0
1775763093850718956,12314,0.0,1.2,0.012,0.1,-0.02,-0.02,-2.13,-2.13,-7.56,0.0,0.07,-0.01,0.56,0.81,-0.5,1323.12,1043.0,0.0,0.0,0.0,0.0
1775763093953109352,12413,0.0,1.2,0.02,0.3,0.16,-0.12,-2.19,-2.13,-7.38,0.01,0.04,0.0,1.0,-0.25,-1.44,1323.47,2223.0,0.0,0.0,0.0,0.0
1775763094051402185,12514,0.0,0.9,0.02,1.3,0.02,0.0,-2.38,-2.13,-7.31,-0.04,0.12,0.02,0.94,0.06,-2.19,1308.89,1557.0,0.0,0.0,0.0,0.0
1775763094149681487,12613,0.0,1.2,0.032,0.4,-0.1,-0.23,-2.56,-2.06,-7.25,-0.01,0.15,0.01,0.25,-0.56,-1.63,1332.21,1557.0,0.0,0.0,0.0,0.0
1775763094252086729,12713,0.0,1.3,0.048,0.3,-0.1,-0.04,-2.75,-2.06,-7.31,0.05,0.14,0.03,-0.12,-0.5,-1.37,1348.33,1558.0,0.0,0.0,0.0,0.0
1775763094350386253,12813,0.0,1.2,0.052,0.3,0.06,-0.06,-2.75,-2.0,-7.31,0.0,0.23,-0.01,-0.25,-0.31,-0.44,1326.38,868.0,0.0,0.0,0.0,0.0
1775763094448600984,12912,0.0,1.4,0.04,0.4,0.06,-0.14,-2.75,-1.94,-7.25,-0.03,0.06,-0.04,-0.31,0.31,-0.5,1329.13,868.0,0.0,0.0,0.0,0.0
1775763094551038299,13012,0.0,0.1,0.0,1.1,-0.06,0.06,-2.75,-1.94,-7.31,0.0,0.11,-0.02,-0.5,-0.12,-0.31,1354.51,1053.0,0.0,0.0,0.0,0.0
1775763094649324731,13112,0.0,0.9,0.024,0.4,-0.02,-0.02,-2.75,-1.88,-7.38,0.0,0.18,-0.09,-0.56,0.19,0.12,1341.82,1053.0,0.0,0.0,0.0,0.0
1775763094751771249,13213,0.0,0.9,0.036,0.2,-0.16,0.04,-2.69,-1.88,-7.38,0.09,0.05,-0.06,0.69,0.12,1.06,1317.12,843.0,0.0,0.0,0.0,0.0
1775763094854165325,13314,0.0,0.7,0.024,0.2,0.06,-0.02,-2.56,-1.88,-7.25,-0.04,0.1,-0.03,0.75,-0.31,1.63,1323.81,1268.0,0.0,0.0,0.0,0.0
1775763094952451997,13414,0.0,0.9,0.024,0.3,0.1,-0.1,-2.44,-1.88,-7.25,0.05,0.04,-0.01,-0.06,0.5,1.5,1323.29,1268.0,0.0,0.0,0.0,0.0
1775763095050757806,13513,0.0,0.7,0.024,0.2,0.02,-0.02,-2.31,-1.88,-7.25,0.01,0.03,-0.06,-0.19,0.63,1.12,1302.89,1323.0,0.0,0.0,0.0,0.0
1775763095153147433,13614,0.0,1.1,0.024,0.5,0.14,-0.02,-2.25,-1.94,-7.25,0.02,0.04,-0.01,0.75,0.63,0.31,1296.2,2047.0,0.0,0.0,0.0,0.0
1775763095255565984,13715,0.0,0.9,0.06,0.6,0.1,-0.08,-2.25,-2.0,-7.19,-0.01,0.03,-0.01,0.81,0.94,-0.63,1325.18,2047.0,0.0,0.0,0.0,0.0
1775763095353842189,13814,0.0,1.0,0.052,0.3,-0.02,-0.04,-2.38,-2.0,-7.13,0.04,0.01,-0.02,0.06,0.5,-1.06,1304.26,1311.0,0.0,0.0,0.0,0.0
1775763095452073859,13914,0.0,0.9,0.04,0.3,0.1,-0.1,-2.5,-2.0,-7.13,0.0,0.15,0.01,0.81,0.56,-1.25,1316.78,1618.0,0.0,0.0,0.0,0.0
1775763095554491985,14015,0.0,1.1,0.024,0.3,-0.02,-0.12,-2.56,-2.13,-7.06,0.0,0.06,0.02,0.37,1.69,-0.44,1365.83,1618.0,0.0,0.0,0.0,0.0
1775763095652822521,14114,0.0,0.9,0.028,0.3,0.0,-0.25,-2.56,-2.25,-7.13,-0.02,0.07,0.0,-0.94,1.06,-0.06,1352.62,1847.0,0.0,0.0,0.0,0.0
1775763095755211259,14214,0.0,0.8,0.024,0.5,-0.08,-0.06,-2.56,-2.31,-7.19,-0.09,0.1,-0.03,0.06,-1.25,0.12,1513.14,1086.0,0.0,0.0,0.0,0.0
1775763095853507815,14315,0.0,0.7,0.016,0.3,0.02,0.06,-2.63,-2.38,-7.31,0.06,0.19,0.01,-3.25,2.94,-1.37,1341.82,1086.0,0.0,0.0,0.0,0.0
1775763095951763522,14414,0.0,0.8,0.02,0.4,0.12,-0.02,-2.81,-2.63,-7.56,0.02,0.08,0.01,-1.12,2.63,-1.63,1309.57,1677.0,0.0,0.0,0.0,0.0
1775763096056106472,14515,0.0,0.3,0.0,1.5,-0.02,-0.04,-2.88,-2.81,-7.75,0.0,0.01,0.01,-2.81,0.44,0.56,11959.9,1940.0,0.0,0.0,0.0,0.0
1775763096152466505,14615,0.0,1.3,0.032,0.3,-0.12,-0.14,-2.81,-2.81,-8.0,0.0,0.04,-0.14,-3.06,-1.25,0.12,1408.53,1940.0,0.0,0.0,0.0,0.0
1775763096254893458,14715,0.0,1.4,0.06,0.3,-0.14,-0.12,-2.81,-2.75,-8.38,-0.06,0.1,-0.08,-3.13,2.13,-1.5,1423.96,1999.0,0.0,0.0,0.0,0.0
1775763096353183603,14815,0.0,1.2,0.048,0.3,0.14,-0.18,-2.88,-2.94,-8.56,0.13,-0.03,-0.17,-3.0,-0.06,0.5,1323.29,1999.0,0.0,0.0,0.0,0.0
1775763096461535612,14915,0.0,1.5,0.044,0.3,-0.02,-0.04,-2.88,-2.75,-9.0,-0.04,-0.05,0.06,-6.44,-3.31,-0.44,11960.75,1070.0,0.0,0.0,0.0,0.0
1775763096555742374,15015,0.0,1.1,0.028,0.3,0.06,0.06,-3.0,-2.5,-9.75,-0.14,-0.01,0.05,-8.5,-1.12,-2.06,11960.24,2098.0,0.0,0.0,0.0,0.0
1775763096658179919,15115,0.0,1.2,0.028,0.5,-0.04,0.0,-3.19,-2.31,-10.5,0.0,-0.01,-0.11,-5.94,-1.06,-2.38,11958.87,1883.0,0.0,0.0,0.0,0.0
1775763096756492212,15215,0.0,1.3,0.016,0.5,-0.1,-0.02,-3.19,-1.94,-10.94,0.19,0.1,-0.08,-3.88,-4.13,0.94,11960.07,1883.0,0.0,0.0,0.0,0.0
1775763096858865334,15315,0.0,1.3,0.016,0.1,0.06,-0.1,-3.25,-1.75,-11.19,0.02,0.24,-0.01,-1.06,0.25,-2.0,11957.84,2372.0,0.0,0.0,0.0,0.0
1775763096957159646,15415,0.0,1.2,0.012,0.3,-0.06,0.0,-3.38,-1.94,-11.31,0.06,0.07,-0.02,-1.25,2.19,-0.44,11956.64,990.0,0.0,0.0,0.0,0.0
1775763097053529826,15515,0.0,1.3,0.004,0.7,0.04,0.04,-3.31,-1.94,-11.5,0.13,-0.0,-0.21,-3.06,-2.56,0.94,1491.36,990.0,0.0,0.0,0.0,0.0
1775763097155941053,15616,0.0,1.2,0.032,0.6,0.1,-0.12,-3.25,-1.81,-11.69,-0.12,0.22,-0.07,-1.63,-0.5,-1.19,1483.47,990.0,0.0,0.0,0.0,0.0
1775763097258334540,15717,0.0,1.3,0.056,0.3,0.08,-0.08,-3.38,-1.94,-11.69,0.11,-0.02,-0.04,2.06,0.94,-1.63,1368.23,2568.0,0.0,0.0,0.0,0.0
1775763097356618423,15816,0.0,1.3,0.028,0.3,0.04,-0.06,-3.5,-1.81,-11.44,0.0,0.04,-0.03,3.44,-1.5,-1.19,1371.14,2644.0,0.0,0.0,0.0,0.0
1775763097454888288,15916,0.0,1.5,0.036,0.5,-0.16,0.0,-3.56,-1.69,-11.0,-0.06,0.02,-0.06,4.44,-2.44,0.69,1407.5,2644.0,0.0,0.0,0.0,0.0
1775763097557294497,16016,0.0,1.3,0.032,0.3,0.16,-0.02,-3.5,-1.44,-10.88,-0.14,0.13,0.0,-2.94,0.81,0.56,1425.17,916.0,0.0,0.0,0.0,0.0
1775763097655615545,16115,0.0,1.3,0.028,0.6,-0.12,-0.02,-3.38,-1.56,-11.13,-0.05,0.17,0.03,-2.31,0.88,1.81,1417.96,2987.0,0.0,0.0,0.0,0.0
1775763097758014365,16216,0.0,1.4,0.02,0.5,-0.1,-0.14,-3.25,-1.56,-11.38,0.0,0.09,-0.12,-2.38,-0.31,-0.31,1380.92,2987.0,0.0,0.0,0.0,0.0
1775763097856303655,16316,0.0,1.2,0.012,0.5,0.04,-0.1,-3.31,-1.63,-11.56,0.08,-0.0,-0.01,-1.19,2.19,-1.06,1411.44,1898.0,0.0,0.0,0.0,0.0
1775763097956516835,16416,0.0,1.1,0.02,0.2,0.06,-0.06,-3.44,-1.75,-11.69,-0.07,0.07,0.0,-0.31,1.25,-1.12,11957.49,1582.0,0.0,0.0,0.0,0.0
1775763098058905793,16516,0.0,1.2,0.016,0.4,-0.06,0.1,-3.5,-1.69,-11.63,0.08,0.05,-0.1,1.94,-1.56,-0.19,11956.81,2065.0,0.0,0.0,0.0,0.0
1775763098157292465,16616,0.0,1.1,0.028,0.5,0.18,-0.08,-3.5,-1.56,-11.44,0.08,-0.17,0.0,3.75,-3.0,0.88,11960.41,2065.0,0.0,0.0,0.0,0.0
1775763098257687246,16716,0.0,1.3,0.064,0.1,0.08,-0.16,-3.31,-1.31,-11.0,-0.03,0.29,-0.15,3.0,-1.25,2.5,1354.51,2065.0,0.0,0.0,0.0,0.0
1775763098355966588,16816,0.0,1.3,0.048,0.3,0.04,-0.08,-3.06,-1.44,-10.88,-0.09,0.07,-0.15,-0.81,3.94,5.5,1335.13,2353.0,0.0,0.0,0.0,0.0
1775763098458329054,16917,0.0,1.2,0.036,0.2,-0.14,-0.08,-2.56,-1.81,-10.88,0.1,-0.16,-0.04,0.88,1.0,3.31,1333.24,1990.0,0.0,0.0,0.0,0.0
1775763098556654821,17016,0.0,1.2,0.028,0.5,0.04,-0.02,-2.44,-1.94,-10.69,0.0,-0.29,0.0,2.25,-0.56,-0.31,1336.33,1990.0,0.0,0.0,0.0,0.0
1775763098654960607,17116,0.0,1.2,0.028,0.1,-0.02,-0.12,-2.5,-1.56,-10.69,0.0,0.04,0.15,-1.63,-6.31,-0.19,1349.88,1752.0,0.0,0.0,0.0,0.0
1775763098757357849,17216,0.0,1.1,0.008,0.5,0.1,-0.14,-2.38,-1.31,-10.88,-0.08,0.43,0.14,-0.81,1.12,1.81,1342.5,1308.0,0.0,0.0,0.0,0.0
1775763098855715466,17315,0.0,1.3,0.016,0.5,0.08,-0.16,-2.06,-1.63,-10.94,0.17,-0.06,-0.2,-1.37,3.13,4.94,1356.56,1308.0,0.0,0.0,0.0,0.0
1775763098965966095,17416,0.0,1.2,0.016,0.5,0.02,-0.14,-1.5,-2.13,-10.56,0.05,-0.06,-0.1,7.63,6.56,6.56,11958.52,897.0,0.0,0.0,0.0,0.0
1775763099056345064,17516,0.0,1.2,0.0,0.3,-0.02,-0.08,-1.25,-2.94,-9.44,0.0,-0.27,-0.26,13.44,6.06,0.37,1342.84,897.0,0.0,0.0,0.0,0.0
1775763099154656310,17615,0.0,1.2,0.04,0.3,-0.02,-0.08,-1.19,-3.0,-8.25,-0.19,0.05,-0.15,13.13,-6.5,2.63,1339.24,1960.0,0.0,0.0,0.0,0.0
1775763099257043289,17715,0.0,1.3,0.056,0.2,-0.08,-0.14,-1.0,-2.44,-7.25,-0.38,0.27,0.12,7.69,-3.19,-1.06,1338.39,513.0,0.0,0.0,0.0,0.0
1775763099355301037,17816,0.0,1.5,0.048,0.3,0.02,-0.12,-1.56,-2.5,-6.88,-0.18,-0.07,0.26,-4.88,7.88,-8.81,1319.52,513.0,0.0,0.0,0.0,0.0
1775763099457736255,17915,0.0,1.3,0.032,0.3,-0.12,0.0,-2.38,-2.94,-7.56,0.21,-0.12,0.09,-8.0,2.13,-5.25,1338.04,1927.0,0.0,0.0,0.0,0.0
1775763099556006447,18016,0.0,1.0,0.036,0.5,0.18,-0.06,-2.31,-2.75,-8.5,-0.22,0.31,-0.14,-12.25,-4.88,5.06,1368.91,2239.0,0.0,0.0,0.0,0.0
1775763099654278491,18115,0.0,1.2,0.0,1.1,-0.14,0.06,-1.69,-2.44,-9.75,-0.03,0.07,-0.02,-12.0,-2.69,6.69,1331.87,2239.0,0.0,0.0,0.0,0.0
1775763099756701247,18215,0.0,1.0,0.028,0.0,-0.1,-0.06,-1.0,-2.5,-10.69,0.15,0.09,-0.06,-7.88,2.94,5.38,1371.49,1823.0,0.0,0.0,0.0,0.0
1775763099854994234,18316,0.0,0.8,0.012,0.3,-0.12,-0.08,-0.94,-3.06,-11.31,0.37,-0.14,0.1,-1.69,8.38,-1.81,1371.49,1638.0,0.0,0.0,0.0,0.0
1775763099957388620,18415,0.0,0.9,0.02,0.3,-0.08,-0.02,-1.06,-3.63,-11.44,-0.04,-0.32,-0.28,0.56,-0.19,1.56,1390.69,1638.0,0.0,0.0,0.0,0.0
1775763100055685190,18515,0.0,0.9,0.024,0.3,0.0,-0.08,-0.75,-3.25,-11.38,0.01,-0.0,-0.17,1.69,-7.25,2.88,1369.77,1263.0,0.0,0.0,0.0,0.0
1775763100158081240,18616,0.0,0.9,0.032,0.3,0.06,0.06,-0.56,-2.88,-11.06,0.1,0.16,-0.02,4.19,0.5,0.69,1392.58,2240.0,0.0,0.0,0.0,0.0
1775763100256377335,18716,0.052,-0.1,0.056,0.3,0.12,0.0,-0.56,-3.0,-10.75,0.06,0.08,0.04,2.44,-1.06,2.56,1353.65,2240.0,0.0,0.0,0.0,0.0
1775763100358764978,18817,0.0,1.3,0.032,0.3,-0.21,0.0,-0.25,-3.0,-10.5,0.0,0.19,-0.06,4.0,0.37,2.56,1361.71,1228.0,0.0,0.0,0.0,0.0
1775763100461130732,18918,0.0,1.0,0.036,0.6,0.14,-0.14,0.06,-2.94,-10.13,-0.15,-0.04,0.01,0.37,-2.88,4.25,1364.11,1228.0,0.0,0.0,0.0,0.0
1775763100559422995,19018,0.0,1.3,0.024,0.2,-0.04,0.0,0.31,-2.75,-10.31,-0.05,0.08,0.14,-8.0,-0.25,-2.19,1367.37,2083.0,0.0,0.0,0.0,0.0
1775763100661907930,19119,0.0,1.3,0.012,0.5,-0.06,0.02,-0.0,-2.81,-11.19,0.38,0.06,0.12,-8.25,2.94,-2.63,1372.17,1023.0,0.0,0.0,0.0,0.0
1775763100760160120,19220,0.0,1.1,0.016,0.2,0.02,-0.14,-0.12,-3.13,-11.81,0.07,0.35,-0.15,-3.63,4.0,-0.06,1387.61,1023.0,0.0,0.0,0.0,0.0
1775763100862519263,19319,0.0,1.1,0.02,0.2,0.14,-0.04,-0.06,-3.31,-12.0,0.07,-0.2,-0.09,0.81,-1.94,3.0,1375.09,2525.0,0.0,0.0,0.0,0.0
1775763100960839191,19419,0.0,1.2,0.016,0.5,0.0,0.02,0.31,-3.06,-11.94,-0.16,0.14,0.11,-0.56,-4.13,2.88,1388.46,1430.0,0.0,0.0,0.0,0.0
1775763101059136685,19518,0.0,1.2,0.012,0.2,0.1,-0.21,0.37,-2.88,-12.13,-0.05,0.08,0.01,-4.25,0.25,-1.31,1373.71,1430.0,0.0,0.0,0.0,0.0
1775763101157419094,19617,0.0,1.3,0.036,0.2,0.04,-0.08,0.25,-2.88,-12.38,-0.11,-0.08,-0.18,-0.88,-1.5,-0.81,1362.57,1301.0,0.0,0.0,0.0,0.0
1775763101259821807,19718,0.0,1.4,0.056,0.3,0.0,-0.1,0.25,-2.63,-12.44,-0.07,0.07,-0.03,-0.37,-2.06,-0.5,1476.61,1102.0,0.0,0.0,0.0,0.0
1775763101362191632,19819,0.0,1.4,0.056,0.1,0.02,-0.04,0.12,-2.56,-12.44,0.22,-0.02,0.08,1.56,1.25,-1.63,1468.21,1102.0,0.0,0.0,0.0,0.0
1775763101460480707,19919,0.0,1.2,0.028,0.5,-0.16,-0.06,-0.06,-2.63,-12.19,-0.16,-0.07,-0.04,3.0,-0.25,-2.13,1385.38,1898.0,0.0,0.0,0.0,0.0
1775763101562878457,20019,0.0,1.4,0.024,0.3,0.08,-0.1,-0.31,-2.56,-12.0,-0.03,-0.0,-0.08,0.75,0.12,-3.19,1430.14,1898.0,0.0,0.0,0.0,0.0
1775763101669108985,20119,0.0,1.4,0.024,0.5,0.0,-0.16,-0.75,-2.38,-12.06,0.21,-0.02,-0.1,0.81,-1.94,-5.31,11961.78,1749.0,0.0,0.0,0.0,0.0
1775763101769585680,20219,0.0,1.4,0.008,0.3,-0.1,0.0,-1.12,-2.13,-11.81,0.09,0.15,0.12,5.44,-0.75,-2.31,1518.8,2531.0,0.0,0.0,0.0,0.0
1775763101869834790,20320,0.0,1.2,0.02,0.3,0.12,0.0,-1.25,-2.06,-11.44,-0.11,0.11,0.1,1.75,0.12,-0.44,11958.52,2276.0,0.0,0.0,0.0,0.0
1775763101964262200,20420,0.0,1.3,0.016,0.2,-0.1,-0.1,-1.25,-2.13,-11.38,0.04,0.11,0.03,-0.88,1.88,-0.37,11959.9,2276.0,0.0,0.0,0.0,0.0
1775763102062547412,20520,0.0,1.4,0.016,0.3,0.0,-0.02,-1.25,-2.31,-11.38,0.04,-0.0,-0.17,2.19,0.75,1.12,1370.29,856.0,0.0,0.0,0.0,0.0
1775763102160843985,20620,0.0,1.2,0.036,0.4,0.0,-0.04,-1.12,-2.25,-11.13,-0.24,0.03,-0.19,1.19,-1.94,2.25,1356.05,856.0,0.0,0.0,0.0,0.0
1775763102263276175,20720,0.0,1.2,0.068,0.5,-0.06,0.0,-0.88,-2.25,-11.0,0.16,0.12,0.03,1.37,0.37,1.88,1349.53,1946.0,0.0,0.0,0.0,0.0
1775763102361533602,20820,0.0,1.2,0.044,0.7,-0.14,-0.04,-0.63,-2.31,-10.88,0.0,-0.07,0.04,2.38,-0.0,3.81,1339.24,738.0,0.0,0.0,0.0,0.0
1775763102463928664,20921,0.0,1.1,0.032,0.4,0.0,0.02,-0.31,-2.31,-10.75,-0.15,-0.0,0.0,-0.37,-0.69,2.56,1420.02,738.0,0.0,0.0,0.0,0.0
1775763102566322226,21022,0.0,1.3,0.048,0.6,0.0,-0.08,-0.12,-2.44,-10.75,0.02,-0.05,0.01,0.12,1.12,1.56,1424.14,1971.0,0.0,0.0,0.0,0.0
1775763102664618095,21123,0.0,1.2,0.024,0.2,-0.02,-0.06,-0.06,-2.5,-10.75,0.01,-0.03,0.01,-0.44,-1.12,0.12,1399.61,1971.0,0.0,0.0,0.0,0.0
1775763102767019990,21224,0.0,1.2,0.028,0.3,0.0,-0.2,-0.06,-2.38,-10.75,-0.08,0.05,-0.08,-0.5,0.12,-1.0,1357.94,1004.0,0.0,0.0,0.0,0.0
1775763102865305490,21324,0.0,1.2,0.02,0.3,-0.08,-0.14,-0.25,-2.44,-10.81,0.13,-0.03,0.04,2.06,1.63,-1.81,1356.56,1811.0,0.0,0.0,0.0,0.0
1775763102967729791,21425,0.0,1.5,0.016,0.4,0.04,0.1,-0.37,-2.44,-10.56,-0.2,0.17,0.08,0.81,-0.94,-0.94,1333.24,1811.0,0.0,0.0,0.0,0.0
1775763103076069293,21525,0.0,1.2,0.012,0.3,0.06,-0.04,-0.56,-2.5,-10.63,0.09,-0.13,0.0,-2.69,3.06,-2.06,1335.3,2128.0,0.0,0.0,0.0,0.0
1775763103168414300,21625,0.0,1.2,0.044,0.3,-0.1,-0.06,-0.75,-2.56,-10.88,0.19,0.12,-0.01,0.12,-1.06,-3.31,1347.65,2088.0,0.0,0.0,0.0,0.0
1775763103270821137,21726,0.0,1.1,0.056,0.2,0.06,0.02,-1.12,-2.44,-10.69,-0.06,0.08,-0.04,1.94,0.56,-3.69,1430.48,2088.0,0.0,0.0,0.0,0.0
1775763103369088099,21826,0.0,1.4,0.048,0.2,-0.06,0.02,-1.37,-2.44,-10.69,-0.07,0.16,-0.01,-1.88,1.37,-1.69,1384.69,2767.0,0.0,0.0,0.0,0.0
1775763103471457733,21926,0.0,1.2,0.0,1.2,-0.14,0.06,-1.56,-2.56,-10.88,0.18,0.05,0.05,-0.19,1.75,-2.63,1384.35,1474.0,0.0,0.0,0.0,0.0
1775763103569793673,22027,0.0,1.0,0.032,0.6,0.18,-0.1,-1.94,-2.63,-11.06,-0.08,0.08,0.01,-4.31,1.0,-4.13,1335.98,1474.0,0.0,0.0,0.0,0.0
1775763103672219732,22128,0.0,0.7,0.032,0.6,0.06,-0.12,-2.13,-2.63,-11.44,0.01,0.07,-0.04,-2.44,-1.88,0.75,1388.29,1706.0,0.0,0.0,0.0,0.0
1775763103770489952,22228,0.0,1.2,0.024,0.1,0.02,-0.1,-1.88,-2.31,-11.75,0.17,0.17,-0.04,-4.31,-1.63,2.13,1425.17,1706.0,0.0,0.0,0.0,0.0
1775763103880831646,22328,0.0,1.3,0.016,0.3,-0.1,-0.1,-1.69,-2.38,-12.06,0.01,0.09,-0.03,-1.37,1.69,2.13,11959.9,2373.0,0.0,0.0,0.0,0.0
1775763103971156621,22428,0.0,1.3,0.016,0.2,-0.1,-0.02,-1.37,-2.63,-12.19,0.05,-0.07,0.04,-0.75,0.88,3.25,1384.18,915.0,0.0,0.0,0.0,0.0
1775763104081487004,22529,0.0,1.1,0.008,0.3,0.08,-0.06,-1.19,-2.75,-12.13,-0.1,-0.17,-0.07,-1.06,-0.56,1.88,11957.49,1186.0,0.0,0.0,0.0,0.0
1775763104171874792,22629,0.0,1.2,0.044,0.1,0.0,-0.23,-0.81,-2.63,-12.38,0.05,0.05,0.07,-3.88,-1.5,5.38,1408.53,1186.0,0.0,0.0,0.0,0.0
1775763104270119086,22728,0.0,1.3,0.06,0.6,0.08,-0.16,-0.37,-2.75,-12.81,-0.01,0.05,-0.22,-6.44,2.19,3.25,1409.22,2504.0,0.0,0.0,0.0,0.0
1775763104372506384,22829,0.0,1.4,0.056,0.5,-0.02,-0.1,-0.19,-2.94,-13.06,0.39,-0.12,-0.2,2.19,0.75,1.81,11957.49,1250.0,0.0,0.0,0.0,0.0
1775763104470787807,22929,0.0,1.4,0.036,0.1,-0.06,-0.25,0.19,-2.94,-12.69,-0.05,0.1,0.0,5.44,-2.81,5.0,1435.28,1250.0,0.0,0.0,0.0,0.0
1775763104573201308,23029,0.0,1.4,0.028,0.3,-0.02,-0.04,0.94,-2.81,-12.31,-0.06,0.11,0.17,3.13,-2.31,8.38,1442.66,1911.0,0.0,0.0,0.0,0.0
1775763104673446709,23130,0.0,1.5,0.0,1.0,0.0,-0.16,1.5,-2.88,-11.94,-0.1,-0.0,0.19,2.5,1.25,3.56,11960.75,1754.0,0.0,0.0,0.0,0.0
1775763104773938841,23230,0.0,0.9,0.02,0.3,-0.1,-0.12,1.75,-3.19,-11.69,-0.15,-0.05,-0.1,1.56,2.0,0.25,1361.71,1754.0,0.0,0.0,0.0,0.0
1775763104874133744,23329,0.0,1.6,0.02,0.3,0.04,-0.06,1.69,-3.19,-11.5,0.21,-0.02,-0.08,5.13,-1.81,-0.88,11960.75,1666.0,0.0,0.0,0.0,0.0
1775763104974618932,23429,0.0,1.2,0.012,0.5,-0.14,-0.08,1.75,-3.0,-10.69,-0.13,0.1,0.18,8.19,0.56,0.5,1340.96,1666.0,0.0,0.0,0.0,0.0
1775763105072909859,23530,0.0,0.9,0.016,0.4,0.08,-0.14,1.75,-3.13,-10.19,0.06,-0.03,0.05,3.81,-0.37,1.44,1328.78,1577.0,0.0,0.0,0.0,0.0
1775763105181272272,23629,0.0,1.1,0.044,0.1,0.16,-0.04,1.88,-3.13,-9.88,-0.11,0.07,0.0,2.63,1.06,1.12,1324.67,1577.0,0.0,0.0,0.0,0.0
1775763105273589225,23730,0.0,1.1,0.068,0.3,-0.08,-0.14,1.81,-3.25,-9.63,-0.03,-0.12,-0.04,2.5,1.19,-0.81,1339.93,1484.0,0.0,0.0,0.0,0.0
1775763105375952022,23830,0.0,0.7,0.052,0.3,-0.12,-0.12,1.75,-3.25,-9.5,-0.11,0.03,-0.01,0.56,-1.06,-1.12,1340.96,1883.0,0.0,0.0,0.0,0.0
1775763105474249258,23930,0.0,0.9,0.032,0.5,-0.04,0.02,1.5,-3.13,-9.5,0.08,0.03,-0.04,-0.19,0.44,-3.06,1331.35,1883.0,0.0,0.0,0.0,0.0
1775763105572558123,24030,0.0,1.2,0.028,0.6,0.04,-0.06,1.25,-3.19,-9.5,-0.05,0.03,-0.07,-0.31,1.12,-2.88,1349.36,1013.0,0.0,0.0,0.0,0.0
1775763105674993177,24130,0.0,1.2,0.028,0.2,0.0,0.0,0.94,-3.19,-9.56,0.01,-0.0,-0.02,-0.25,0.12,-2.81,1385.72,1013.0,0.0,0.0,0.0,0.0
1775763105773265729,24230,0.0,0.9,0.012,0.3,-0.08,-0.08,0.69,-3.13,-9.63,0.1,0.02,-0.09,-0.06,-1.88,-2.19,1427.39,1424.0,0.0,0.0,0.0,0.0
1775763105875680987,24331,0.0,0.9,0.016,0.3,0.0,-0.18,0.63,-2.88,-9.56,0.03,-0.0,-0.17,1.19,-2.94,1.75,1447.63,2115.0,0.0,0.0,0.0,0.0
1775763105973963575,24431,0.0,1.0,0.016,0.0,-0.08,-0.1,1.0,-2.75,-9.31,0.08,-0.26,-0.35,5.13,-0.75,4.63,1354.68,2115.0,0.0,0.0,0.0,0.0
1775763106076369190,24531,0.0,0.8,0.016,0.3,-0.08,-0.2,1.25,-2.94,-8.69,0.29,-0.21,-0.43,14.69,-2.19,0.37,1334.44,890.0,0.0,0.0,0.0,0.0
1775763106174657833,24631,0.0,1.0,0.052,0.1,-0.08,-0.06,1.19,-2.94,-7.13,0.28,-0.01,-0.14,23.44,2.0,-0.19,1330.33,1672.0,0.0,0.0,0.0,0.0
1775763106277054479,24731,0.0,1.0,0.06,0.4,0.04,-0.12,1.06,-3.44,-4.88,0.32,-0.17,-0.12,25.06,6.19,0.0,1267.56,1672.0,0.0,0.0,0.0,0.0
1775763106375361732,24830,0.0,1.3,0.048,0.1,-0.02,-0.06,0.63,-4.0,-2.56,0.0,-0.35,-0.18,28.37,3.88,-4.75,1259.32,2248.0,0.0,0.0,0.0,0.0
1775763106473599377,24930,0.0,1.3,0.044,0.3,0.08,-0.08,0.12,-4.06,0.37,-0.19,-0.07,-0.34,32.31,-2.0,-2.13,1258.12,1961.0,0.0,0.0,0.0,0.0
1775763106583916006,25029,0.0,0.9,0.024,0.3,-0.1,-0.06,0.12,-3.69,3.19,-0.42,0.65,0.03,23.56,-2.13,1.69,11958.69,1945.0,0.0,0.0,0.0,0.0
1775763106674323332,25129,0.0,1.2,0.02,0.6,0.04,0.1,-0.0,-3.88,4.69,-0.44,0.4,0.49,8.69,2.69,-1.69,1175.46,1945.0,0.0,0.0,0.0,0.0
1775763106772614159,25230,0.0,1.4,0.0,1.0,-0.1,-0.1,0.44,-3.63,5.0,-0.15,0.56,0.44,-2.63,-0.56,11.63,1179.06,2775.0,0.0,0.0,0.0,0.0
1775763106875030435,25329,0.0,1.0,0.024,0.5,0.06,-0.04,2.06,-3.5,4.5,-0.5,0.28,0.08,-9.5,5.19,16.75,1209.25,2775.0,0.0,0.0,0.0,0.0
1775763106973309207,25428,0.0,1.2,0.016,0.2,0.04,-0.04,3.38,-3.81,3.44,0.02,-0.48,0.0,-13.25,0.75,8.69,1220.57,1731.0,0.0,0.0,0.0,0.0
1775763107075714562,25529,0.0,0.6,0.028,0.4,0.02,0.06,4.31,-3.19,2.25,0.27,0.1,0.11,-11.88,-10.5,9.94,1191.58,1731.0,0.0,0.0,0.0,0.0
1775763107174003130,25629,0.0,1.1,0.036,0.4,-0.1,-0.12,5.06,-2.38,1.5,0.59,0.54,0.24,-4.63,-1.94,4.63,1213.71,801.0,0.0,0.0,0.0,0.0
1775763107276391165,25729,0.0,0.9,0.048,0.6,-0.02,-0.06,4.88,-2.31,0.63,0.13,0.22,-0.16,-5.5,5.56,-7.0,1240.63,1996.0,0.0,0.0,0.0,0.0
1775763107374663530,25830,0.0,1.0,0.048,0.3,-0.04,-0.04,3.75,-2.5,-0.56,0.15,0.34,-0.12,-15.31,0.88,-13.19,1254.52,1996.0,0.0,0.0,0.0,0.0
1775763107472956987,25929,0.0,1.0,0.04,0.2,-0.08,-0.04,2.44,-2.63,-2.19,1.05,0.81,-0.53,-18.94,3.31,-18.31,1294.31,1901.0,0.0,0.0,0.0,0.0
1775763107575377946,26030,0.0,1.0,0.032,0.9,-0.08,-0.06,0.69,-2.75,-4.06,1.34,0.67,-0.01,-7.56,8.94,-14.06,1259.15,1543.0,0.0,0.0,0.0,0.0
1775763107685702369,26131,0.0,1.2,0.024,0.1,0.0,-0.04,-0.5,-3.25,-5.31,0.41,0.45,0.55,-5.75,10.5,-12.56,11955.95,1271.0,0.0,0.0,0.0,0.0
1775763107776081455,26231,0.0,1.2,0.02,0.5,-0.04,-0.1,-2.0,-3.81,-6.06,-0.51,-0.11,0.84,-2.0,2.25,-13.13,1263.78,1271.0,0.0,0.0,0.0,0.0
1775763107886382508,26331,0.0,1.2,0.016,0.3,-0.14,-0.02,-2.75,-3.63,-5.44,-0.53,-0.24,0.16,10.5,-6.44,-9.5,11960.07,1150.0,0.0,0.0,0.0,0.0
1775763107976758818,26431,0.0,1.3,0.012,0.5,-0.06,0.04,-4.38,-2.38,-5.13,-1.51,-0.86,-0.8,-7.88,-11.75,-23.31,1336.5,1150.0,0.0,0.0,0.0,0.0
1775763108075059446,26530,0.0,1.5,0.024,0.5,-0.02,0.04,-5.94,-1.31,-6.88,-0.46,-0.7,0.1,-19.19,-2.13,-3.81,1298.77,2550.0,0.0,0.0,0.0,0.0
1775763108179361718,26630,0.0,1.5,0.048,0.1,0.1,-0.16,-5.44,-2.06,-7.25,0.12,-0.42,-0.2,4.81,7.25,4.5,11956.98,888.0,0.0,0.0,0.0,0.0
1775763108275843451,26730,0.0,1.4,0.052,0.2,-0.04,-0.14,-5.75,-1.94,-7.56,-0.46,-0.54,-0.58,-11.31,-6.5,-8.94,11956.98,656.0,0.0,0.0,0.0,0.0
1775763108374004987,26830,0.0,1.4,0.044,0.3,-0.02,-0.12,-5.94,-1.63,-8.56,0.28,-0.27,-0.55,-6.69,0.06,4.38,1345.59,656.0,0.0,0.0,0.0,0.0
1775763108476407409,26931,0.0,1.3,0.028,0.2,0.04,-0.06,-5.19,-1.94,-9.25,0.3,-0.41,-0.58,-3.19,-4.0,10.0,1332.55,656.0,0.0,0.0,0.0,0.0
1775763108584824406,27031,0.0,1.0,0.028,0.3,-0.04,-0.14,-3.63,-2.19,-9.94,0.41,-0.29,-0.4,-2.88,-4.81,15.81,1321.58,2392.0,0.0,0.0,0.0,0.0
1775763108677129639,27131,0.0,1.5,0.02,0.5,0.0,0.0,-2.88,-1.81,-9.88,1.12,-0.43,1.09,5.13,-8.19,0.94,1314.38,1533.0,0.0,0.0,0.0,0.0
1775763108779517673,27232,0.0,1.1,0.028,0.3,0.02,-0.06,-2.38,-1.19,-8.56,-0.8,-0.07,0.97,16.94,-3.63,9.06,1299.11,1533.0,0.0,0.0,0.0,0.0
1775763108877812593,27332,0.0,1.1,0.012,0.2,-0.08,0.04,-2.0,-1.19,-8.19,-1.07,-0.12,0.23,-9.69,-2.5,2.63,1357.59,1164.0,0.0,0.0,0.0,0.0
1775763108978017732,27431,0.0,1.3,0.012,0.3,0.0,-0.08,-0.88,-0.81,-9.38,-1.7,0.62,0.09,-9.56,-5.69,16.87,11958.52,1104.0,0.0,0.0,0.0,0.0
1775763109078507662,27531,0.0,1.3,0.016,0.2,-0.02,-0.12,0.31,-0.94,-9.31,-0.52,0.28,-0.49,7.13,1.63,5.75,1312.32,1104.0,0.0,0.0,0.0,0.0
1775763109178706894,27631,0.0,1.3,0.048,0.3,0.18,-0.08,0.56,-0.88,-8.69,-0.72,0.33,-0.32,-3.44,0.12,1.63,11957.49,1681.0,0.0,0.0,0.0,0.0
1775763109275081984,27731,0.0,1.3,0.056,0.5,-0.02,-0.04,0.37,-1.37,-8.94,-0.15,0.13,-0.23,-1.37,8.69,-6.75,1333.58,1681.0,0.0,0.0,0.0,0.0
1775763109377451943,27831,0.0,1.4,0.04,0.3,-0.02,-0.08,-1.12,-1.81,-9.63,-0.19,0.33,-0.29,-12.56,4.63,-20.87,1326.72,1725.0,0.0,0.0,0.0,0.0
1775763109475780436,27931,0.0,1.4,0.036,0.7,0.0,-0.06,-3.06,-1.37,-11.06,0.47,0.84,0.02,-14.31,0.06,-19.37,1369.94,1251.0,0.0,0.0,0.0,0.0
1775763109575983150,28030,0.0,1.0,0.032,0.2,-0.08,-0.02,-4.69,-1.69,-11.75,0.91,0.83,0.4,0.63,15.81,-14.19,11959.21,597.0,0.0,0.0,0.0,0.0
1775763109676474852,28130,0.0,1.1,0.032,0.5,-0.06,-0.14,-6.44,-2.56,-12.19,-0.51,-0.27,1.36,-1.88,7.06,-19.94,1325.18,597.0,0.0,0.0,0.0,0.0
1775763109774744606,28229,0.0,1.2,0.024,0.1,-0.08,0.04,-8.19,-2.19,-11.63,-1.92,-0.59,-0.48,10.0,-7.38,-14.31,1330.33,2424.0,0.0,0.0,0.0,0.0
1775763109877215266,28329,0.0,1.1,0.02,0.2,0.06,-0.02,-9.44,-1.0,-11.63,-0.54,-0.73,-0.09,-6.25,-7.69,-9.56,1406.3,2424.0,0.0,0.0,0.0,0.0
1775763109975466854,28429,0.0,1.0,0.016,0.3,-0.18,-0.1,-9.69,-0.75,-11.25,-0.52,-0.55,-0.48,12.5,0.81,1.5,1393.27,1327.0,0.0,0.0,0.0,0.0
1775763110073718411,28529,0.0,0.9,0.028,0.5,-0.08,-0.14,-9.94,-0.63,-10.25,-0.27,-0.47,-0.17,4.94,-5.13,-5.13,1327.07,2326.0,0.0,0.0,0.0,0.0
1775763110176133795,28630,0.0,1.0,0.056,0.5,-0.06,-0.04,-10.0,-0.19,-10.06,0.2,-0.18,-0.26,-1.19,-6.88,1.12,1317.29,2326.0,0.0,0.0,0.0,0.0
1775763110278543234,28731,0.0,1.0,0.064,0.2,-0.02,-0.04,-9.5,0.31,-10.38,0.5,-0.25,0.04,-0.88,-6.56,6.81,1308.54,2487.0,0.0,0.0,0.0,0.0
1775763110376805285,28831,0.0,1.1,0.044,0.2,-0.06,-0.08,-8.63,0.44,-11.13,0.53,-0.27,-0.29,-4.69,-4.06,9.56,1362.74,2487.0,0.0,0.0,0.0,0.0
1775763110479188226,28931,0.0,0.6,0.048,0.3,-0.02,-0.06,-7.94,0.06,-11.75,0.49,-0.57,0.02,2.88,2.69,0.94,1311.63,2586.0,0.0,0.0,0.0,0.0
1775763110579416698,29032,0.0,0.7,0.02,0.3,0.16,-0.12,-7.75,-0.25,-10.31,-0.92,-0.19,1.27,22.5,6.31,8.69,11956.98,2177.0,0.0,0.0,0.0,0.0
1775763110679950880,29132,0.0,0.7,0.024,0.6,-0.08,-0.1,-6.81,-1.06,-9.56,-2.15,0.28,0.69,-8.88,4.88,9.25,1305.63,2177.0,0.0,0.0,0.0,0.0
1775763110778214524,29232,0.0,0.9,0.02,0.1,0.0,-0.02,-5.94,-1.5,-10.25,-1.33,0.4,0.41,-3.94,4.0,7.63,1323.47,1202.0,0.0,0.0,0.0,0.0
1775763110880617334,29333,0.0,0.8,0.02,0.6,0.04,-0.04,-5.63,-1.88,-9.94,-1.06,0.1,-0.86,1.63,1.44,1.19,1340.44,2380.0,0.0,0.0,0.0,0.0
1775763110978876422,29432,0.0,1.0,0.032,0.6,-0.04,-0.12,-5.63,-1.81,-8.69,-1.0,0.14,-0.53,-0.81,0.56,-1.25,1396.35,2380.0,0.0,0.0,0.0,0.0
1775763111081310755,29532,0.0,0.8,0.012,0.3,0.04,-0.18,-6.19,-1.69,-7.81,0.08,0.34,-0.31,5.63,3.0,-8.56,1332.73,1788.0,0.0,0.0,0.0,0.0
1775763111179596769,29632,0.0,0.6,0.044,0.5,-0.04,-0.04,-7.06,-1.75,-7.75,0.37,0.51,-0.19,0.06,3.69,-7.19,1334.78,2040.0,0.0,0.0,0.0,0.0
1775763111277880024,29732,0.0,0.8,0.068,0.2,-0.02,-0.06,-8.0,-1.56,-7.94,0.43,0.55,0.18,2.88,3.81,-11.31,1399.1,2040.0,0.0,0.0,0.0,0.0
1775763111380246057,29833,0.0,0.7,0.052,0.3,0.04,-0.02,-9.19,-1.19,-8.31,0.4,0.17,0.65,1.75,2.25,-11.13,1279.73,2184.0,0.0,0.0,0.0,0.0
1775763111484596363,29932,0.0,1.1,0.04,0.8,0.02,0.1,-10.0,-0.94,-8.31,-0.42,0.24,0.54,-1.63,-7.69,-8.19,11959.9,819.0,0.0,0.0,0.0,0.0
1775763111581031656,30032,0.0,0.7,0.032,0.4,-0.16,-0.02,-10.63,0.56,-7.94,-1.01,-0.17,0.03,1.44,-23.5,-4.94,1339.42,819.0,0.0,0.0,0.0,0.0
1775763111679274560,30132,0.0,0.9,0.028,0.1,0.02,-0.08,-10.38,2.81,-8.44,-0.83,-0.77,0.09,-17.31,-17.69,11.63,1323.47,1985.0,0.0,0.0,0.0,0.0
1775763111777525668,30232,0.0,0.6,0.024,0.2,0.0,-0.27,-8.69,2.69,-9.19,-0.15,-0.86,-0.21,9.44,13.0,15.5,1324.15,1985.0,0.0,0.0,0.0,0.0
1775763111879949218,30332,0.0,0.8,0.036,0.2,0.06,0.0,-7.94,1.25,-8.13,-0.17,-0.83,-0.49,5.88,4.75,5.25,1311.12,1837.0,0.0,0.0,0.0,0.0
1775763111978216974,30433,0.0,0.7,0.016,0.2,-0.08,-0.18,-7.06,0.19,-7.94,0.0,-0.49,-0.47,-1.0,-0.75,8.75,1307.34,1159.0,0.0,0.0,0.0,0.0
1775763112082554007,30532,0.0,0.9,0.02,0.5,-0.06,-0.02,-6.75,0.06,-8.44,0.5,-0.32,-0.35,-5.06,-6.75,-1.63,11958.35,1067.0,0.0,0.0,0.0,0.0
1775763112178935414,30632,0.0,0.9,0.048,0.5,-0.2,-0.12,-6.31,0.88,-8.56,0.89,-0.21,0.18,6.63,-9.25,10.81,1317.12,1067.0,0.0,0.0,0.0,0.0
1775763112281333966,30733,0.0,0.9,0.064,0.6,0.0,-0.04,-5.25,1.31,-8.0,-0.15,-0.13,0.61,15.06,-1.37,9.69,1290.02,1972.0,0.0,0.0,0.0,0.0
1775763112379624184,30832,0.0,0.6,0.048,0.5,0.02,-0.16,-4.31,0.75,-6.5,-0.45,-0.21,0.28,11.81,7.44,8.81,1343.36,1972.0,0.0,0.0,0.0,0.0
1775763112477850109,30932,0.0,0.9,0.036,0.6,0.08,0.02,-3.38,0.19,-6.19,-1.07,0.17,0.49,-6.63,2.56,14.63,1323.81,1202.0,0.0,0.0,0.0,0.0
1775763112580302769,31032,0.0,0.9,0.02,0.5,-0.02,0.04,-2.06,-0.44,-6.75,-1.87,0.81,-0.08,-3.06,5.13,8.75,1309.92,1202.0,0.0,0.0,0.0,0.0
1775763112678610432,31131,0.0,0.7,0.024,0.5,0.06,-0.02,-1.75,-0.75,-6.94,-0.33,0.45,-0.1,0.5,3.31,3.06,1301.86,1236.0,0.0,0.0,0.0,0.0
1775763112776895243,31230,0.0,0.9,0.032,0.3,-0.1,-0.12,-1.0,-1.0,-6.5,-0.5,0.38,-0.34,0.88,4.13,9.81,1326.04,1497.0,0.0,0.0,0.0,0.0
1775763112879297239,31331,0.0,1.1,0.016,0.5,-0.08,0.06,-0.63,-1.12,-5.88,-0.07,0.28,-0.38,2.81,6.38,-1.5,1301.0,1497.0,0.0,0.0,0.0,0.0
1775763112977600272,31431,0.0,0.9,0.02,0.3,-0.08,-0.06,-1.19,-1.69,-5.63,0.46,0.29,-0.25,1.12,8.56,-6.5,1286.42,2017.0,0.0,0.0,0.0,0.0
1775763113079991236,31531,0.0,1.0,0.02,0.3,-0.02,0.0,-2.19,-2.19,-6.31,0.36,0.24,-0.08,-3.75,10.38,-16.44,1273.04,3069.0,0.0,0.0,0.0,0.0
1775763113178290715,31632,0.0,0.9,0.056,0.5,-0.02,-0.04,-4.13,-2.63,-7.25,0.51,0.52,0.31,-7.38,10.81,-21.31,1268.24,3069.0,0.0,0.0,0.0,0.0
1775763113280680416,31731,0.0,1.1,0.048,0.5,-0.1,-0.1,-6.63,-2.63,-8.94,0.06,0.11,1.01,-16.69,-0.63,-29.94,11959.72,1465.0,0.0,0.0,0.0,0.0
1775763113378957414,31832,0.0,1.0,0.048,0.6,0.12,0.1,-9.25,-2.19,-9.5,-1.32,-0.49,-0.07,11.75,1.31,-20.12,1332.9,799.0,0.0,0.0,0.0,0.0
1775763113481329837,31932,0.0,0.6,0.036,0.0,0.06,-0.04,-10.69,-1.88,-8.38,-0.56,-0.87,-0.12,5.88,-0.88,-10.63,1313.0,799.0,0.0,0.0,0.0,0.0
1775763113579667111,32031,0.0,0.9,0.024,0.3,-0.08,0.04,-11.38,-2.06,-7.88,-0.82,-0.69,0.0,4.88,4.31,-3.81,1316.43,2235.0,0.0,0.0,0.0,0.0
1775763113682056200,32132,0.0,1.1,0.024,0.1,-0.02,0.02,-11.75,-2.44,-7.94,-0.47,-0.64,-0.5,-5.25,2.44,-4.88,1302.71,2535.0,0.0,0.0,0.0,0.0
1775763113780352994,32232,0.0,0.9,0.016,0.2,0.06,0.0,-12.13,-2.44,-8.13,0.28,-0.38,-0.49,2.06,-1.12,0.88,1324.67,2535.0,0.0,0.0,0.0,0.0
1775763113878651195,32331,0.0,1.2,0.024,0.3,-0.08,0.0,-11.31,-2.88,-8.06,0.44,-0.31,-0.41,6.5,0.94,11.63,1305.97,1762.0,0.0,0.0,0.0,0.0
1775763113988961090,32432,0.0,0.9,0.02,0.3,0.0,-0.06,-10.06,-3.31,-8.06,0.29,-0.45,-0.16,-0.94,-5.44,13.63,11954.75,1593.0,0.0,0.0,0.0,0.0
1775763114079333750,32532,0.0,1.1,0.012,0.4,0.0,-0.08,-8.63,-2.88,-8.81,0.7,-0.02,0.77,-9.38,-9.75,12.94,1267.21,1593.0,0.0,0.0,0.0,0.0
1775763114181730988,32632,0.0,0.6,0.044,0.5,0.06,-0.18,-7.19,-2.44,-9.25,-0.85,0.01,1.45,1.31,-4.81,20.44,1297.91,1614.0,0.0,0.0,0.0,0.0
1775763114280002970,32733,0.0,1.2,0.052,0.2,0.04,-0.1,-4.69,-2.75,-8.44,-2.0,0.07,-0.22,2.38,-0.44,27.69,1282.31,1614.0,0.0,0.0,0.0,0.0
1775763114382372246,32833,0.0,0.6,0.044,0.3,0.08,-0.18,-2.38,-2.94,-8.69,-1.6,0.53,0.11,-7.31,-1.63,19.5,1307.34,1724.0,0.0,0.0,0.0,0.0
1775763114486718737,32932,0.0,1.0,0.036,0.4,0.06,-0.14,-1.0,-3.0,-8.38,-0.89,0.28,-0.69,5.63,-1.94,11.75,11956.29,2125.0,0.0,0.0,0.0,0.0
1775763114578968874,33032,0.0,0.9,0.032,0.3,0.0,-0.14,0.12,-2.75,-7.31,-0.87,0.59,-0.1,3.56,3.44,12.0,1352.79,2125.0,0.0,0.0,0.0,0.0
1775763114689363542,33132,0.0,1.1,0.02,0.2,0.08,-0.02,0.81,-2.81,-5.88,-0.11,0.22,-0.3,5.13,6.06,3.81,11956.64,525.0,0.0,0.0,0.0,0.0
1775763114779687147,33232,0.0,0.9,0.02,0.2,0.06,-0.1,1.06,-3.31,-5.56,0.15,0.28,0.0,3.25,6.75,3.19,1453.63,525.0,0.0,0.0,0.0,0.0
1775763114890022985,33333,0.0,0.1,0.0,1.4,0.04,0.0,1.0,-3.94,-5.56,0.22,0.25,-0.01,-1.94,9.06,-4.44,11960.58,2397.0,0.0,0.0,0.0,0.0
1775763114980394254,33433,0.0,1.4,0.012,0.2,0.1,-0.16,0.12,-4.19,-6.25,0.29,0.5,0.17,-4.56,4.69,-10.06,1344.9,1059.0,0.0,0.0,0.0,0.0
1775763115082777535,33532,0.0,1.1,0.012,0.1,-0.04,0.08,-1.0,-4.56,-6.5,-0.56,-0.32,0.49,3.0,4.25,-11.19,1255.04,1059.0,0.0,0.0,0.0,0.0
1775763115181095923,33632,0.0,1.1,0.06,0.3,-0.04,-0.1,-1.25,-4.25,-5.75,-0.69,-0.29,0.72,10.63,-2.25,4.81,1297.57,1972.0,0.0,0.0,0.0,0.0
1775763115279431330,33732,0.0,1.3,0.032,1.2,0.04,-0.04,-1.06,-4.38,-5.31,-1.46,-1.05,0.0,-6.38,2.94,-0.56,11957.32,771.0,0.0,0.0,0.0,0.0
1775763115381737055,33832,0.0,1.0,0.044,0.2,0.06,-0.2,-1.06,-4.69,-6.31,-0.49,-0.86,0.02,-8.0,0.56,1.44,1319.52,771.0,0.0,0.0,0.0,0.0
1775763115480022315,33932,0.0,1.3,0.04,0.6,0.1,-0.21,-0.75,-4.25,-7.0,-0.59,-0.61,-0.6,-8.31,-9.25,3.81,1307.0,1356.0,0.0,0.0,0.0,0.0
1775763115582426406,34031,0.0,1.3,0.024,0.2,-0.06,-0.12,-0.12,-4.38,-7.19,-0.22,-0.14,-0.38,-8.25,-5.81,5.25,1328.27,2193.0,0.0,0.0,0.0,0.0
1775763115680746239,34131,0.0,1.2,0.024,0.4,-0.2,-0.1,0.63,-4.13,-7.63,0.0,-0.47,-0.16,-6.13,-6.19,10.44,1338.9,2193.0,0.0,0.0,0.0,0.0
1775763115779042055,34231,0.0,1.5,0.016,0.3,-0.04,-0.1,2.38,-3.56,-8.0,-0.31,-0.35,0.09,-6.81,-16.12,19.75,1430.82,1427.0,0.0,0.0,0.0,0.0
1775763115881524976,34331,0.0,1.2,0.016,0.2,0.04,-0.06,4.5,-2.44,-8.5,-0.38,-0.13,0.09,-6.88,-12.31,22.44,1363.6,1427.0,0.0,0.0,0.0,0.0
1775763115979739850,34430,0.0,1.3,0.008,0.6,0.14,-0.02,6.94,-2.13,-8.69,-0.32,0.06,-0.06,-3.5,-4.19,22.5,1374.4,2176.0,0.0,0.0,0.0,0.0
1775763116090046583,34531,0.0,1.5,0.016,0.3,0.06,-0.12,8.75,-1.88,-8.88,-0.36,0.09,0.11,-5.88,-6.19,15.38,11957.67,1164.0,0.0,0.0,0.0,0.0
1775763116180401286,34631,0.0,1.2,0.04,0.2,-0.1,-0.2,10.25,-1.37,-9.31,-0.26,0.44,0.02,-7.75,-3.5,15.56,1427.05,1164.0,0.0,0.0,0.0,0.0
1775763116280629190,34731,0.0,1.2,0.06,0.3,-0.02,-0.18,11.44,-1.44,-9.75,-0.2,0.22,-0.09,-5.56,5.94,9.0,11957.67,1145.0,0.0,0.0,0.0,0.0
1775763116381096696,34831,0.0,1.6,0.0,1.0,-0.06,-0.04,12.06,-2.0,-10.13,-0.03,-0.13,-0.13,-3.19,2.63,4.81,1410.07,1782.0,0.0,0.0,0.0,0.0
1775763116485373340,34931,0.0,0.9,0.036,0.3,0.1,0.02,12.31,-2.0,-10.19,-0.09,-0.08,-0.1,1.75,-3.44,0.81,11957.32,1517.0,0.0,0.0,0.0,0.0
1775763116581769922,35032,0.0,0.8,0.02,0.4,0.1,0.0,12.19,-1.5,-9.94,-0.16,-0.0,0.06,2.19,-4.75,-4.13,1454.49,1517.0,0.0,0.0,0.0,0.0
1775763116682022529,35132,0.0,0.7,0.028,0.6,-0.14,0.0,11.75,-1.06,-9.75,-0.16,-0.01,0.25,0.06,-3.81,-3.69,11957.32,1929.0,0.0,0.0,0.0,0.0
1775763116790401503,35232,0.0,0.8,0.016,0.3,-0.06,-0.02,11.44,-0.69,-10.13,0.06,0.14,0.04,-6.81,-1.19,-5.44,11958.87,347.0,0.0,0.0,0.0,0.0
1775763116882784788,35332,0.0,0.9,0.016,0.1,-0.02,-0.2,10.69,-0.56,-10.63,0.14,-0.0,-0.19,-4.63,0.88,-9.31,11961.27,347.0,0.0,0.0,0.0,0.0
1775763116983177815,35432,0.0,1.1,0.02,0.5,0.02,-0.16,9.75,-0.5,-10.94,0.13,-0.03,-0.07,0.31,0.63,-9.81,1375.94,347.0,0.0,0.0,0.0,0.0
1775763117083385689,35532,0.0,0.7,0.008,0.4,0.12,0.02,8.94,-0.19,-10.81,0.05,0.05,-0.04,2.19,-4.25,-7.38,11960.75,2081.0,0.0,0.0,0.0,0.0
1775763117183859863,35632,0.0,0.9,0.052,0.3,-0.12,-0.06,8.19,0.25,-10.63,0.11,0.07,0.17,2.0,-1.94,-8.94,1390.35,1018.0,0.0,0.0,0.0,0.0
1775763117282176997,35732,0.0,0.8,0.06,0.4,-0.02,-0.16,7.31,0.44,-10.56,0.19,-0.0,0.02,-1.25,-0.19,-9.63,1400.81,1018.0,0.0,0.0,0.0,0.0
1775763117380489594,35832,0.0,1.4,0.048,0.2,-0.08,0.02,6.31,0.56,-10.75,0.18,0.04,-0.08,-0.06,2.31,-9.88,11961.95,1999.0,0.0,0.0,0.0,0.0
1775763117482810210,35932,0.0,1.2,0.036,0.4,0.14,-0.06,5.44,0.44,-10.63,0.11,-0.0,-0.13,3.56,4.88,-7.63,1383.83,1190.0,0.0,0.0,0.0,0.0
1775763117581123677,36031,0.0,1.3,0.036,0.3,-0.04,-0.16,4.69,0.12,-10.19,0.03,-0.09,-0.17,5.56,4.06,-7.0,1363.25,1190.0,0.0,0.0,0.0,0.0
1775763117683540271,36131,0.0,1.3,0.032,0.5,0.06,-0.1,4.13,-0.0,-9.56,0.13,0.07,0.07,7.13,1.81,-4.56,1375.43,1236.0,0.0,0.0,0.0,0.0
1775763117781835332,36232,0.0,1.3,0.02,0.5,0.06,-0.1,3.75,-0.06,-9.0,-0.11,-0.09,0.14,3.81,-0.44,-3.06,1376.46,1266.0,0.0,0.0,0.0,0.0
1775763117880125967,36331,0.0,1.2,0.024,0.5,0.08,0.04,3.63,0.19,-8.94,-0.04,0.12,0.06,-2.31,-3.38,-0.25,1358.11,1266.0,0.0,0.0,0.0,0.0
1775763117988477795,36430,0.0,1.5,0.024,0.6,-0.06,0.0,3.75,0.31,-9.25,0.09,0.05,-0.11,-2.81,-0.63,2.25,1355.19,1374.0,0.0,0.0,0.0,0.0
1775763118080828738,36530,0.0,1.4,0.008,0.4,-0.02,-0.14,4.06,0.37,-9.38,0.0,-0.01,-0.09,-0.25,-1.75,3.44,1360.85,1374.0,0.0,0.0,0.0,0.0
1775763118183215075,36631,0.0,1.2,0.052,0.3,-0.04,0.02,4.5,0.5,-9.44,0.03,0.03,0.0,-0.94,-1.12,3.88,1372.34,1457.0,0.0,0.0,0.0,0.0
1775763118281501473,36730,0.0,1.2,0.04,0.2,-0.1,0.12,4.81,0.44,-9.56,0.07,-0.0,0.01,-1.06,0.12,4.0,1380.92,2246.0,0.0,0.0,0.0,0.0
1775763118379770778,36830,0.0,1.1,0.044,0.2,0.04,0.1,5.13,0.37,-9.63,0.03,-0.12,-0.02,-0.88,0.37,3.13,11959.04,1072.0,0.0,0.0,0.0,0.0
1775763118482158689,36930,0.0,1.1,0.032,0.2,-0.06,0.12,5.25,0.37,-9.69,0.02,-0.02,0.05,-0.69,-0.12,-1.06,1368.57,1072.0,0.0,0.0,0.0,0.0
1775763118580504288,37029,0.0,1.1,0.032,0.5,0.04,-0.14,5.19,0.37,-9.75,0.0,-0.0,0.03,-1.81,-0.69,-0.81,1375.09,1755.0,0.0,0.0,0.0,0.0
1775763118682892588,37130,0.0,1.6,0.02,0.0,-0.02,0.0,5.06,0.37,-9.94,0.09,-0.0,-0.04,-2.0,0.56,-1.25,1379.72,1755.0,0.0,0.0,0.0,0.0
1775763118781181874,37231,0.0,1.4,0.012,0.4,0.18,-0.06,4.94,0.37,-10.06,0.06,-0.04,-0.06,-0.06,0.63,-1.88,1358.28,1661.0,0.0,0.0,0.0,0.0
1775763118879480993,37330,0.0,1.4,0.028,0.5,0.0,0.0,4.69,0.37,-10.0,0.14,-0.11,-0.01,1.63,0.5,-4.19,1357.25,1661.0,0.0,0.0,0.0,0.0
1775763118981867015,37430,0.0,1.2,0.016,0.2,0.04,0.08,4.13,0.56,-9.88,0.0,-0.1,0.0,1.56,-2.56,-7.13,1352.28,1436.0,0.0,0.0,0.0,0.0
1775763119080176547,37530,0.0,1.5,0.024,0.3,0.06,-0.12,3.5,0.88,-9.75,0.04,0.1,0.02,0.06,-1.19,-5.38,1356.22,2283.0,0.0,0.0,0.0,0.0
1775763119184471270,37629,0.0,1.1,0.056,0.4,0.14,-0.2,3.13,1.0,-9.75,0.07,0.05,0.02,-0.0,0.75,-2.5,11959.55,1334.0,0.0,0.0,0.0,0.0
1775763119280873267,37729,0.0,1.4,0.056,0.5,0.0,-0.08,2.94,0.94,-9.75,0.11,-0.04,-0.01,-0.37,0.5,-1.63,11960.75,1334.0,0.0,0.0,0.0,0.0
1775763119379095559,37829,0.0,1.3,0.044,0.4,0.04,-0.1,2.75,1.0,-9.69,0.12,0.06,-0.06,1.0,-0.19,-2.31,1403.73,1532.0,0.0,0.0,0.0,0.0
1775763119481512101,37929,0.0,1.3,0.032,0.3,0.06,-0.08,2.56,1.0,-9.5,0.03,0.01,-0.02,2.19,0.31,-1.06,1415.39,1532.0,0.0,0.0,0.0,0.0
1775763119579829129,38030,0.0,1.4,0.036,0.5,0.02,-0.37,2.56,1.0,-9.38,0.06,0.04,0.04,0.81,0.25,-0.06,1390.18,1178.0,0.0,0.0,0.0,0.0
1775763119682252652,38130,0.0,1.2,0.016,0.5,-0.1,-0.02,2.63,0.94,-9.38,0.05,0.03,0.0,0.88,1.12,1.12,1402.7,2170.0,0.0,0.0,0.0,0.0
1775763119780536238,38230,0.0,1.3,0.02,0.2,0.02,-0.02,2.75,0.81,-9.31,0.04,0.03,-0.09,0.5,0.44,1.5,1445.75,2170.0,0.0,0.0,0.0,0.0
1775763119890863837,38330,0.0,1.4,0.02,0.5,0.04,-0.16,2.88,0.81,-9.25,0.09,-0.0,-0.1,0.94,0.31,2.19,11961.78,1274.0,0.0,0.0,0.0,0.0
1775763119981219255,38430,0.0,1.4,0.012,0.6,-0.16,-0.1,3.13,0.75,-9.13,-0.01,-0.0,-0.02,1.56,0.12,1.94,1376.12,2337.0,0.0,0.0,0.0,0.0
1775763120083608989,38531,0.0,1.6,0.008,0.3,-0.12,-0.04,3.31,0.75,-9.0,0.02,-0.04,0.05,0.5,-0.12,1.75,1358.62,2337.0,0.0,0.0,0.0,0.0
1775763120193945256,38632,0.0,1.2,0.048,0.3,-0.1,-0.14,3.38,0.75,-9.0,0.03,0.01,-0.03,-0.63,-0.44,0.69,11958.52,1902.0,0.0,0.0,0.0,0.0
1775763120284298918,38732,0.0,1.1,0.04,0.0,0.0,-0.1,3.44,0.69,-9.06,0.07,-0.0,-0.07,-0.25,0.56,0.56,1363.08,1902.0,0.0,0.0,0.0,0.0
1775763120386642003,38833,0.0,1.1,0.044,0.5,-0.02,-0.12,3.56,0.69,-9.06,0.02,-0.0,-0.01,-0.06,-0.69,1.31,1367.54,1831.0,0.0,0.0,0.0,0.0
1775763120486797698,38933,0.0,1.4,0.032,0.2,-0.02,-0.14,3.69,0.69,-9.06,0.07,-0.03,0.04,-0.69,-0.25,0.88,11960.41,2250.0,0.0,0.0,0.0,0.0
1775763120583215272,39033,0.0,1.2,0.024,0.3,0.08,-0.08,3.81,0.75,-9.19,-0.08,0.07,0.14,-1.88,-1.88,1.44,1376.8,2250.0,0.0,0.0,0.0,0.0
1775763120685685962,39134,0.0,1.1,0.024,0.5,-0.08,0.04,3.75,0.69,-9.5,0.15,-0.03,-0.13,-3.31,1.06,-0.94,1382.98,2752.0,0.0,0.0,0.0,0.0
1775763120783980773,39233,0.0,1.3,0.02,0.4,-0.08,0.0,3.88,0.69,-9.63,0.11,0.1,-0.06,-0.12,-0.12,1.44,1370.63,1886.0,0.0,0.0,0.0,0.0
1775763120892325160,39332,0.0,1.0,0.024,0.3,0.1,-0.08,3.94,0.63,-9.56,0.05,-0.0,-0.04,1.44,1.31,0.06,1356.74,1886.0,0.0,0.0,0.0,0.0
1775763120984657666,39433,0.0,1.4,0.016,0.3,0.04,-0.06,3.94,0.63,-9.38,0.04,0.04,0.04,1.94,0.06,-0.75,1427.74,2283.0,0.0,0.0,0.0,0.0
1775763121082978499,39533,0.0,1.2,0.02,0.2,-0.08,0.0,3.88,0.63,-9.25,0.05,-0.0,0.05,0.69,0.25,-0.12,1425.17,2359.0,0.0,0.0,0.0,0.0
1775763121185351030,39632,0.0,1.4,0.044,0.3,-0.02,-0.21,3.88,0.63,-9.25,0.04,0.03,0.0,-0.31,0.25,0.0,1378.35,2359.0,0.0,0.0,0.0,0.0
1775763121283679286,39733,0.0,1.4,0.06,0.3,-0.04,-0.1,3.88,0.63,-9.25,0.04,-0.0,-0.03,-0.56,-0.44,0.5,1378.86,1979.0,0.0,0.0,0.0,0.0
1775763121386007319,39832,0.0,1.1,0.04,0.3,-0.02,-0.16,3.88,0.63,-9.25,0.06,0.02,-0.08,0.75,0.5,-0.37,1427.91,1979.0,0.0,0.0,0.0,0.0
1775763121484293799,39932,0.0,1.5,0.02,0.3,-0.06,0.0,3.88,0.63,-9.13,0.09,0.06,-0.02,1.12,-0.44,-0.06,1431.17,1444.0,0.0,0.0,0.0,0.0
1775763121586717735,40033,0.0,1.2,0.032,0.6,-0.23,0.04,3.88,0.56,-9.0,0.07,0.04,0.0,1.44,1.06,0.06,1375.94,2775.0,0.0,0.0,0.0,0.0
1775763121685100137,40133,0.0,1.2,0.024,0.2,0.08,0.06,3.88,0.56,-8.88,0.06,-0.0,0.02,0.94,0.12,0.25,1366.34,2775.0,0.0,0.0,0.0,0.0
1775763121783287567,40232,0.0,1.3,0.016,0.2,0.1,-0.06,3.88,0.56,-8.88,0.09,-0.0,0.01,-0.12,-0.31,-0.5,1349.36,1616.0,0.0,0.0,0.0,0.0
1775763121885777240,40333,0.0,1.3,0.004,0.3,0.18,-0.04,3.88,0.56,-8.88,0.09,-0.0,-0.02,0.44,0.06,-0.44,1356.05,1503.0,0.0,0.0,0.0,0.0
1775763121984000538,40433,0.0,1.3,0.02,0.5,-0.02,-0.12,3.81,0.56,-8.88,0.12,-0.0,-0.01,0.19,-0.12,-1.44,1355.36,1503.0,0.0,0.0,0.0,0.0
1775763122086401869,40534,0.0,1.5,0.02,0.3,-0.02,-0.14,3.63,0.5,-8.81,0.11,-0.01,-0.01,1.31,1.44,-1.94,1357.77,1741.0,0.0,0.0,0.0,0.0
1775763122188797383,40635,0.0,1.2,0.056,0.3,-0.08,0.0,3.38,0.44,-8.56,0.1,-0.09,0.0,2.25,0.56,-2.75,1347.82,1304.0,0.0,0.0,0.0,0.0
1775763122287132865,40735,0.0,1.4,0.056,0.2,0.0,-0.14,3.06,0.5,-8.44,0.09,-0.0,0.05,0.69,0.88,-3.94,1333.76,1304.0,0.0,0.0,0.0,0.0
1775763122389503732,40836,0.0,1.1,0.052,0.4,-0.06,-0.06,2.69,0.44,-8.44,0.2,-0.0,0.0,0.12,1.12,-2.81,1374.4,2190.0,0.0,0.0,0.0,0.0
1775763122487738126,40937,0.0,1.4,0.028,0.2,-0.18,0.04,2.38,0.31,-8.31,0.12,-0.08,-0.09,1.81,1.31,-3.81,1351.76,2190.0,0.0,0.0,0.0,0.0
1775763122590131862,41036,0.0,1.4,0.024,0.3,-0.12,-0.12,2.0,0.37,-8.19,0.16,-0.09,-0.08,3.5,-1.31,-3.56,1348.33,1382.0,0.0,0.0,0.0,0.0
1775763122690390707,41136,0.0,1.1,0.02,0.3,0.14,-0.02,1.69,0.37,-7.63,-0.02,-0.1,-0.19,6.25,1.31,-2.56,11956.81,1230.0,0.0,0.0,0.0,0.0
1775763122790861284,41236,0.0,1.5,0.012,0.3,0.08,-0.04,1.5,-0.0,-7.06,0.19,0.07,-0.19,7.31,7.81,-2.25,1360.34,1230.0,0.0,0.0,0.0,0.0
1775763122889199747,41336,0.0,1.3,0.02,0.2,-0.14,-0.08,1.25,-0.88,-6.19,0.24,-0.04,-0.35,10.63,9.75,-1.19,1344.39,1288.0,0.0,0.0,0.0,0.0
1775763122991547504,41436,0.0,1.4,0.012,0.5,0.1,-0.08,1.19,-1.63,-5.19,0.0,0.03,-0.21,14.19,7.31,1.12,1310.09,1935.0,0.0,0.0,0.0,0.0
1775763123089848067,41537,0.0,1.2,0.012,0.4,-0.14,-0.18,1.25,-2.75,-3.69,0.1,0.2,0.1,15.25,15.44,0.56,1270.3,1935.0,0.0,0.0,0.0,0.0
1775763123188123667,41636,0.0,1.2,0.06,0.3,-0.08,0.0,1.37,-3.81,-2.69,0.08,0.04,0.08,8.44,9.19,5.44,1288.31,1364.0,0.0,0.0,0.0,0.0
1775763123290535998,41736,0.0,1.1,0.06,0.2,-0.1,-0.04,2.0,-4.5,-2.0,0.03,0.12,0.05,4.56,4.56,7.06,1260.18,2026.0,0.0,0.0,0.0,0.0
1775763123388790376,41837,0.0,1.5,0.032,0.2,-0.1,-0.06,2.44,-4.69,-1.63,0.22,0.12,0.21,3.31,-1.69,2.88,11955.09,1681.0,0.0,0.0,0.0,0.0
1775763123491220355,41937,0.0,1.1,0.0,1.2,0.1,-0.06,2.75,-4.06,-1.56,0.52,0.37,0.39,4.06,-6.13,4.38,1260.01,1681.0,0.0,0.0,0.0,0.0
1775763123593628316,42038,0.0,1.0,0.028,0.3,0.06,-0.16,3.0,-3.31,-1.69,0.13,0.23,-0.04,-3.5,-6.25,0.56,1267.04,1681.0,0.0,0.0,0.0,0.0
1775763123691902990,42138,0.0,1.0,0.02,0.3,-0.04,-0.04,3.13,-2.56,-2.38,0.55,0.23,-0.22,-7.13,-3.94,1.63,1276.82,1294.0,0.0,0.0,0.0,0.0
1775763123792122044,42237,0.0,0.9,0.02,0.5,-0.1,-0.08,3.13,-2.56,-3.06,0.35,0.02,-0.23,-2.56,3.38,-3.06,11957.15,875.0,0.0,0.0,0.0,0.0
1775763123892600105,42337,0.0,0.6,0.016,0.2,-0.06,-0.08,2.25,-2.94,-3.94,0.57,0.12,-0.01,-9.38,4.88,-11.94,1282.13,875.0,0.0,0.0,0.0,0.0
1775763123990899241,42437,0.0,0.9,0.02,0.6,0.04,-0.04,0.81,-3.19,-5.25,0.74,0.35,0.08,-3.56,9.06,-16.25,1250.41,1044.0,0.0,0.0,0.0,0.0
1775763124089196790,42536,0.0,0.7,0.016,0.2,0.14,-0.06,-0.94,-3.25,-6.69,0.77,0.44,0.14,-2.06,5.75,-16.81,1297.74,2112.0,0.0,0.0,0.0,0.0
1775763124191579200,42637,0.0,1.2,0.064,0.3,0.02,-0.02,-2.44,-3.25,-7.19,-0.13,-0.03,0.14,3.38,4.69,-12.19,1367.71,2112.0,0.0,0.0,0.0,0.0
1775763124289902190,42737,0.0,0.6,0.06,0.2,-0.08,-0.04,-3.63,-3.25,-6.44,-0.56,-0.27,0.08,8.06,-3.63,-11.81,11957.49,1763.0,0.0,0.0,0.0,0.0
1775763124392247805,42838,0.0,1.1,0.044,0.6,-0.14,-0.18,-4.88,-2.25,-6.25,-1.85,-0.62,0.18,-3.94,-11.19,-11.69,1309.92,2055.0,0.0,0.0,0.0,0.0
1775763124490527853,42939,0.0,1.1,0.04,0.3,0.14,0.06,-5.19,-1.94,-6.06,-1.44,-0.78,0.05,-7.19,-2.13,-0.06,1309.57,2055.0,0.0,0.0,0.0,0.0
1775763124600882293,43038,0.0,1.0,0.028,0.1,0.04,-0.12,-5.19,-2.56,-6.06,-0.01,-1.06,-0.3,-0.81,8.13,-0.5,11956.64,1557.0,0.0,0.0,0.0,0.0
1775763124695381984,43139,0.0,0.6,0.016,0.6,-0.14,-0.14,-5.44,-3.75,-5.81,-0.24,-0.6,-0.33,4.56,2.0,-3.0,1263.44,833.0,0.0,0.0,0.0,0.0
1775763124801599601,43240,0.0,1.2,0.024,0.4,-0.02,0.0,-5.56,-4.0,-5.25,0.01,-0.17,-0.42,2.25,-0.44,-1.12,11959.21,1889.0,0.0,0.0,0.0,0.0
1775763124896045812,43340,0.0,0.9,0.024,0.5,-0.08,-0.06,-5.63,-4.06,-5.44,0.39,-0.14,-0.34,0.31,-2.5,1.88,1266.87,1889.0,0.0,0.0,0.0,0.0
1775763124994318416,43440,0.0,0.9,0.028,0.3,-0.1,0.0,-4.94,-3.63,-6.06,0.51,-0.03,-0.06,-1.44,-8.69,9.38,1326.9,1889.0,0.0,0.0,0.0,0.0
1775763125096722293,43541,0.0,1.1,0.016,0.3,0.0,-0.08,-4.19,-2.63,-6.44,0.54,-0.04,0.45,-1.12,-12.63,5.38,1282.82,1133.0,0.0,0.0,0.0,0.0
1775763125195036158,43641,0.0,0.8,0.068,0.3,-0.02,-0.04,-3.25,-2.06,-5.81,0.06,-0.21,0.86,14.63,-1.69,11.25,1301.34,2610.0,0.0,0.0,0.0,0.0
1775763125297447478,43741,0.0,1.2,0.056,0.3,-0.14,-0.08,-2.88,-1.69,-4.63,-0.65,-0.05,0.19,1.12,-9.69,-2.19,11956.64,2088.0,0.0,0.0,0.0,0.0
1775763125395668218,43841,0.0,0.6,0.04,0.2,0.04,-0.06,-2.44,-0.69,-5.75,-1.74,0.16,0.08,-19.81,-9.19,10.75,1334.1,2088.0,0.0,0.0,0.0,0.0
1775763125493972732,43941,0.0,1.1,0.032,0.2,0.12,-0.1,-1.63,-0.31,-7.75,-1.14,0.36,-0.14,-16.19,0.25,2.69,1370.29,1770.0,0.0,0.0,0.0,0.0
1775763125596472733,44041,0.0,0.8,0.028,1.3,-0.1,0.0,-1.81,-0.44,-7.88,-0.14,0.25,-0.65,7.06,-0.75,-3.88,1364.11,1770.0,0.0,0.0,0.0,0.0
1775763125694698658,44141,0.0,1.4,0.02,0.4,-0.16,-0.02,-1.94,-0.25,-7.69,-0.31,0.38,-0.46,-3.19,3.88,-0.19,1351.93,2559.0,0.0,0.0,0.0,0.0
1775763125792995228,44240,0.0,1.4,0.012,0.6,0.04,-0.04,-2.44,-0.63,-7.38,0.19,0.2,-0.59,8.81,6.88,-11.75,1346.45,2559.0,0.0,0.0,0.0,0.0
1775763125895394400,44340,0.0,1.6,0.0,1.2,0.0,-0.02,-4.06,-0.63,-7.0,0.19,0.64,-0.02,2.38,1.63,-18.69,1276.47,1756.0,0.0,0.0,0.0,0.0
1775763125993689229,44440,0.0,0.9,0.024,0.6,-0.02,-0.12,-5.75,-0.75,-6.88,0.18,0.77,0.49,1.5,6.38,-14.81,1255.55,1273.0,0.0,0.0,0.0,0.0
1775763126103999659,44540,0.0,1.1,0.032,0.2,-0.02,0.0,-7.13,-1.5,-7.44,0.51,0.29,0.69,-11.75,11.0,-17.31,11957.15,800.0,0.0,0.0,0.0,0.0
1775763126194373222,44640,0.0,0.9,0.064,0.2,0.1,-0.08,-9.06,-1.31,-8.44,-1.51,-0.25,1.0,-0.37,-2.06,-16.56,1289.51,800.0,0.0,0.0,0.0,0.0
1775763126292640261,44740,0.0,1.3,0.052,0.5,-0.1,-0.2,-9.75,-1.63,-7.75,-1.55,-0.8,-0.63,5.81,9.19,-3.75,1429.11,1395.0,0.0,0.0,0.0,0.0
1775763126395063695,44839,0.0,1.2,0.044,0.5,-0.08,0.0,-10.56,-2.25,-7.44,-0.58,-0.94,-0.06,7.19,3.94,-6.69,11957.15,1881.0,0.0,0.0,0.0,0.0
1775763126493320586,44939,0.0,1.0,0.032,0.3,-0.04,0.0,-10.81,-2.25,-6.5,-0.87,-0.34,-0.52,3.81,-6.13,-1.5,1294.82,1881.0,0.0,0.0,0.0,0.0
1775763126595727373,45039,0.0,1.5,0.032,0.3,0.04,-0.08,-10.94,-2.06,-6.25,0.05,-0.26,-0.19,2.5,1.19,0.19,1286.25,2511.0,0.0,0.0,0.0,0.0
1775763126694051465,45139,0.0,1.4,0.016,1.1,-0.04,-0.2,-10.56,-2.19,-6.25,0.05,-0.17,-0.34,-2.25,-2.88,6.75,1274.59,2511.0,0.0,0.0,0.0,0.0
1775763126796436512,45240,0.0,0.0,0.0,1.2,0.02,0.08,-9.69,-1.75,-6.75,0.42,-0.06,-0.33,-6.31,-7.94,9.38,1280.93,1620.0,0.0,0.0,0.0,0.0
1775763126894729920,45340,0.0,1.0,0.016,0.5,-0.04,-0.12,-8.63,-1.19,-7.44,0.83,-0.27,0.35,-4.5,-7.19,10.81,1325.52,845.0,0.0,0.0,0.0,0.0
1775763127003058211,45440,0.0,0.7,0.02,0.4,-0.08,-0.02,-7.63,-1.06,-8.31,0.16,-0.14,0.8,-0.0,-1.94,7.31,1293.11,845.0,0.0,0.0,0.0,0.0
1775763127103371259,45540,0.0,1.0,0.02,0.5,0.08,0.04,-6.88,-1.69,-7.63,-0.64,-0.24,0.36,10.31,11.0,8.75,11958.69,1826.0,0.0,0.0,0.0,0.0
1775763127193723810,45640,0.0,0.9,0.056,0.6,0.02,-0.08,-6.38,-2.56,-7.38,-1.45,0.06,0.09,-7.0,2.38,4.19,1388.81,1826.0,0.0,0.0,0.0,0.0
1775763127296102751,45740,0.0,0.9,0.048,1.3,0.06,-0.02,-5.13,-2.44,-7.25,-1.59,0.43,-0.24,-5.38,-1.31,17.12,1279.39,1352.0,0.0,0.0,0.0,0.0
1775763127394399978,45840,0.0,1.5,0.04,0.4,0.08,-0.12,-4.31,-2.31,-6.44,-0.37,0.08,-0.16,6.19,-1.94,0.81,1268.76,923.0,0.0,0.0,0.0,0.0
1775763127502786585,45939,0.0,1.3,0.028,0.4,-0.1,0.02,-4.13,-1.88,-6.0,-0.54,0.31,-0.2,-0.56,-6.38,3.13,11958.69,2344.0,0.0,0.0,0.0,0.0
1775763127595099182,46040,0.0,1.3,0.024,0.0,0.1,0.04,-4.06,-1.12,-5.5,0.02,0.37,-0.27,1.37,-0.06,-2.5,1360.51,2344.0,0.0,0.0,0.0,0.0
1775763127697485233,46141,0.0,1.3,0.012,0.2,-0.04,0.0,-4.38,-1.37,-5.5,0.73,0.25,-0.19,-0.12,5.94,-4.25,1283.85,1396.0,0.0,0.0,0.0,0.0
1775763127795783071,46241,0.0,1.2,0.016,0.3,-0.04,-0.04,-5.06,-1.69,-6.06,0.18,0.34,-0.13,-2.94,7.06,-11.56,1279.05,1396.0,0.0,0.0,0.0,0.0
1775763127906149482,46342,0.0,1.3,0.02,0.7,0.02,-0.06,-6.5,-1.94,-6.69,0.59,0.19,0.65,-7.63,0.75,-16.62,11957.67,1829.0,0.0,0.0,0.0,0.0
1775763127996471090,46442,0.0,1.4,0.016,0.4,-0.06,-0.12,-8.13,-1.44,-6.44,-0.97,-0.11,0.63,21.94,-8.38,-13.63,1251.95,2383.0,0.0,0.0,0.0,0.0
1775763128098866572,46541,0.0,1.5,0.008,0.3,0.0,0.04,-9.13,-0.12,-4.31,-0.84,-0.0,-0.14,9.5,-15.38,-11.19,1242.0,2383.0,0.0,0.0,0.0,0.0
1775763128199078832,46642,0.0,1.4,0.016,1.2,0.04,-0.1,-9.88,0.94,-4.44,-1.2,-0.82,0.1,-13.88,-2.5,1.06,11957.49,1443.0,0.0,0.0,0.0,0.0
1775763128299517139,46742,0.0,0.9,0.064,0.3,0.14,0.04,-9.5,0.19,-5.19,-0.35,-0.8,-0.23,-4.44,9.31,-0.56,1291.74,1443.0,0.0,0.0,0.0,0.0
1775763128397826518,46841,0.0,0.9,0.044,0.3,-0.02,-0.12,-10.06,-0.31,-5.13,0.2,-0.78,-0.4,2.63,1.81,-5.75,1297.05,1810.0,0.0,0.0,0.0,0.0
1775763128496116603,46942,0.0,1.0,0.04,0.5,-0.02,-0.18,-10.44,-0.88,-4.88,0.04,-0.29,-0.15,5.94,-1.75,-2.94,1267.9,2030.0,0.0,0.0,0.0,0.0
1775763128598510973,47042,0.0,0.7,0.028,0.0,-0.02,-0.12,-10.81,-0.69,-4.81,0.49,-0.0,-0.29,0.12,-3.31,-3.94,1325.69,2030.0,0.0,0.0,0.0,0.0
1775763128696795705,47142,0.0,1.0,0.032,0.3,-0.04,-0.1,-10.75,-0.12,-5.56,0.75,-0.13,-0.33,-7.75,-7.13,5.19,1292.94,1675.0,0.0,0.0,0.0,0.0
1775763128799224611,47243,0.0,0.7,0.024,0.5,-0.04,-0.1,-9.69,-0.0,-7.0,0.61,-0.06,0.34,-8.25,-1.81,10.88,1328.27,2503.0,0.0,0.0,0.0,0.0
1775763128897524899,47342,0.0,0.9,0.02,0.5,0.02,-0.04,-8.69,-0.12,-7.19,-0.42,-0.09,0.77,4.13,5.44,14.5,1321.24,2503.0,0.0,0.0,0.0,0.0
1775763128999923305,47442,0.0,0.7,0.016,0.5,0.0,-0.12,-7.13,-1.44,-6.25,-1.36,-0.06,0.23,8.25,12.06,13.06,1322.61,1617.0,0.0,0.0,0.0,0.0
1775763129100128682,47542,0.0,0.9,0.0,1.4,0.04,-0.02,-6.63,-2.06,-5.94,-1.75,0.41,0.04,-5.19,0.75,1.81,11956.81,2546.0,0.0,0.0,0.0,0.0
1775763129196505392,47642,0.0,1.2,0.052,0.1,-0.1,-0.02,-6.5,-1.63,-5.88,-0.33,0.42,-0.33,0.56,-3.25,2.75,1349.88,2546.0,0.0,0.0,0.0,0.0
1775763129298906340,47741,0.0,1.3,0.044,0.4,0.0,-0.06,-6.13,-1.56,-6.06,-0.31,0.29,-0.38,-5.69,0.69,1.19,11958.52,1740.0,0.0,0.0,0.0,0.0
1775763129397157876,47841,0.0,1.2,0.048,0.3,-0.06,-0.08,-6.44,-1.12,-5.94,-0.04,0.27,-0.69,4.0,-5.31,-4.75,11957.67,2315.0,0.0,0.0,0.0,0.0
1775763129499559843,47941,0.0,1.2,0.04,0.3,0.0,-0.04,-6.88,-0.63,-6.06,0.45,0.61,-0.13,-5.88,2.31,-7.31,11959.21,2315.0,0.0,0.0,0.0,0.0
1775763129597879820,48041,0.0,1.5,0.028,0.3,0.0,0.04,-8.0,-0.81,-7.06,0.27,0.44,0.3,-13.63,2.5,-14.31,1363.25,1967.0,0.0,0.0,0.0,0.0
1775763129696187001,48141,0.0,1.3,0.02,0.2,0.0,-0.16,-9.13,-0.81,-8.25,1.06,0.52,0.65,-9.5,1.94,-9.13,1355.19,1967.0,0.0,0.0,0.0,0.0
1775763129794439851,48240,0.0,1.3,0.016,0.2,0.04,-0.16,-10.31,-0.56,-8.69,-0.8,-0.05,1.07,5.0,-1.37,-11.25,1355.36,1967.0,0.0,0.0,0.0,0.0
1775763129896917259,48339,0.0,1.2,0.004,0.3,0.04,-0.21,-11.25,-0.5,-8.69,-1.65,-0.46,-0.3,-11.19,0.37,-14.69,1314.38,1273.0,0.0,0.0,0.0,0.0
1775763129995169887,48440,0.0,1.3,0.02,0.3,-0.02,0.0,-12.31,-0.56,-9.69,-0.45,-0.72,-0.19,-2.13,5.13,-2.88,1363.6,1273.0,0.0,0.0,0.0,0.0
1775763130097563360,48539,0.0,1.0,0.016,0.7,0.0,-0.04,-12.5,-1.06,-9.13,-0.36,-0.37,-0.38,6.31,2.94,-4.63,1481.59,2334.0,0.0,0.0,0.0,0.0
1775763130197803204,48640,0.0,1.1,0.06,0.1,-0.1,-0.08,-12.94,-1.75,-8.19,-0.27,-0.35,-0.36,4.06,2.5,-2.38,11959.72,1208.0,0.0,0.0,0.0,0.0
1775763130298269074,48740,0.0,0.9,0.052,0.3,0.06,-0.02,-13.0,-1.81,-8.06,0.3,-0.11,-0.28,0.12,-1.0,1.5,1371.83,1208.0,0.0,0.0,0.0,0.0
1775763130396536429,48840,0.0,0.9,0.04,0.3,0.02,-0.14,-12.5,-1.88,-8.63,0.52,-0.07,-0.37,1.25,-1.81,7.25,1385.38,1428.0,0.0,0.0,0.0,0.0
1775763130498925161,48941,0.0,0.9,0.036,0.5,0.0,-0.18,-11.56,-1.69,-8.94,0.54,-0.05,-0.12,3.19,-9.63,10.94,1334.27,1428.0,0.0,0.0,0.0,0.0
1775763130599092637,49041,0.0,0.9,0.028,0.6,-0.12,-0.14,-10.5,-0.44,-8.88,0.89,-0.13,0.44,-2.63,-17.75,9.75,11957.67,1409.0,0.0,0.0,0.0,0.0
1775763130699628449,49141,0.0,0.8,0.016,0.0,0.02,-0.16,-9.13,0.69,-10.0,-0.92,0.17,0.68,-8.13,-6.81,18.94,1434.6,1596.0,0.0,0.0,0.0,0.0
1775763130799815387,49242,0.0,1.0,0.02,0.1,0.0,-0.12,-6.75,-0.0,-9.88,-1.74,0.38,-0.51,3.38,9.63,21.62,11958.52,1910.0,0.0,0.0,0.0,0.0
1775763130900312090,49342,0.0,1.0,0.024,0.3,0.06,-0.2,-5.25,-1.12,-10.81,-0.82,0.58,0.76,-13.0,7.38,14.31,1360.34,1910.0,0.0,0.0,0.0,0.0
1775763131000512194,49442,0.0,0.9,0.012,0.4,-0.12,-0.16,-3.63,-1.63,-10.75,-1.15,0.43,-0.19,3.31,-2.0,18.69,11956.29,1757.0,0.0,0.0,0.0,0.0
1775763131101029438,49542,0.0,0.9,0.016,0.2,0.0,-0.06,-2.31,-1.5,-9.94,-0.43,0.2,0.04,-0.88,3.81,9.31,1396.35,1757.0,0.0,0.0,0.0,0.0
1775763131199294040,49643,0.0,0.9,0.06,0.2,0.08,-0.04,-1.94,-2.0,-9.81,-0.31,-0.0,-0.03,0.44,4.06,1.25,1417.79,1897.0,0.0,0.0,0.0,0.0
1775763131297712542,49742,0.0,0.9,0.06,0.2,0.08,-0.14,-2.38,-2.06,-10.25,-0.2,0.29,-0.51,-11.19,1.25,-10.19,11957.67,1560.0,0.0,0.0,0.0,0.0
1775763131399966747,49842,0.0,0.9,0.048,0.2,0.02,-0.06,-3.63,-2.0,-11.19,0.2,0.6,-0.26,-4.88,5.0,-17.44,1374.57,1560.0,0.0,0.0,0.0,0.0
1775763131504263641,49942,0.0,1.1,0.04,0.3,0.0,-0.08,-5.56,-1.31,-11.81,0.5,0.66,0.14,1.56,4.63,-17.87,11955.78,1759.0,0.0,0.0,0.0,0.0
1775763131608529036,50042,0.0,0.7,0.028,0.2,0.23,0.02,-7.31,-1.5,-11.0,-0.4,0.24,0.37,16.81,5.13,-15.94,11954.92,1488.0,0.0,0.0,0.0,0.0
1775763131698970979,50142,0.0,0.9,0.028,0.5,0.08,-0.06,-8.5,-1.75,-9.31,-0.91,-0.3,0.14,14.63,4.19,-9.5,1307.34,1488.0,0.0,0.0,0.0,0.0
1775763131797236766,50242,0.0,0.9,0.024,0.2,-0.02,-0.08,-9.81,-1.75,-8.31,-1.41,-0.84,0.21,7.06,-0.5,-15.5,1341.82,2165.0,0.0,0.0,0.0,0.0
1775763131901579065,50341,0.0,1.0,0.032,0.3,0.0,-0.06,-10.88,-2.63,-6.81,-0.58,-0.57,0.33,2.5,6.56,-6.81,11958.69,2232.0,0.0,0.0,0.0,0.0
1775763131997952731,50441,0.0,0.9,0.012,0.4,0.0,-0.14,-11.44,-3.31,-6.31,-0.58,-0.32,-0.25,5.44,7.31,-5.13,1339.93,2232.0,0.0,0.0,0.0,0.0
1775763132100345769,50541,0.0,0.9,0.016,0.3,-0.12,-0.1,-11.75,-3.94,-6.19,-0.36,-0.1,-0.26,-3.69,4.69,0.63,1501.31,1574.0,0.0,0.0,0.0,0.0
1775763132198645467,50641,0.0,0.7,0.06,0.1,0.0,-0.12,-11.13,-4.44,-5.94,-0.04,-0.01,-0.3,6.75,2.19,11.13,1357.94,1574.0,0.0,0.0,0.0,0.0
1775763132301001155,50742,0.0,0.9,0.056,0.5,0.0,0.08,-9.75,-4.31,-5.06,0.11,-0.1,0.03,7.13,-6.56,18.19,1341.82,1975.0,0.0,0.0,0.0,0.0
1775763132399344018,50841,0.0,0.7,0.044,0.5,0.12,0.02,-7.31,-3.88,-4.19,-0.59,-0.01,0.14,7.5,-5.06,28.87,1380.06,1975.0,0.0,0.0,0.0,0.0
1775763132497582052,50940,0.0,0.9,0.036,0.3,0.02,-0.06,-4.75,-4.06,-3.44,-0.32,-0.25,0.04,0.81,3.0,23.0,1361.71,2211.0,0.0,0.0,0.0,0.0
1775763132595862011,51040,0.0,1.4,0.028,0.3,-0.02,-0.12,-2.94,-4.38,-3.25,-0.15,-0.19,-0.03,-1.75,-2.94,16.5,1359.82,1979.0,0.0,0.0,0.0,0.0
1775763132706240773,51140,0.0,1.2,0.024,0.3,0.02,0.1,-1.5,-4.06,-3.19,-0.09,0.17,-0.05,-0.31,-2.88,13.06,11956.29,1429.0,0.0,0.0,0.0,0.0
1775763132798612527,51240,0.0,1.2,0.032,0.5,0.02,0.04,-0.44,-4.06,-3.13,0.05,0.04,-0.05,0.94,-0.19,8.5,11958.87,1429.0,0.0,0.0,0.0,0.0
1775763132899004578,51340,0.0,1.3,0.024,0.4,0.04,0.02,0.12,-4.0,-2.94,-0.15,0.15,-0.12,1.25,-0.25,5.06,1384.01,1772.0,0.0,0.0,0.0,0.0
1775763132997301740,51439,0.0,1.3,0.012,0.1,-0.04,-0.16,0.31,-4.0,-2.81,0.1,0.18,-0.04,0.94,1.37,-1.06,1299.11,1772.0,0.0,0.0,0.0,0.0
1775763133095591815,51539,0.0,1.3,0.024,0.2,0.02,-0.08,0.12,-3.88,-2.75,0.06,0.24,0.09,1.44,-1.88,-1.75,1295.51,1102.0,0.0,0.0,0.0,0.0
1775763133197992136,51639,0.0,1.3,0.064,0.3,-0.04,-0.1,-0.0,-3.56,-2.63,-0.14,0.26,0.14,0.37,-0.12,-1.06,1316.26,1749.0,0.0,0.0,0.0,0.0
1775763133296301451,51738,0.0,1.3,0.052,0.3,-0.12,-0.02,-0.12,-3.5,-2.69,-0.1,0.05,0.04,-2.44,-1.44,-1.12,11957.49,2201.0,0.0,0.0,0.0,0.0
1775763133394579064,51838,0.0,1.3,0.048,0.3,-0.04,0.0,-0.12,-3.06,-2.94,0.06,0.14,0.05,-2.94,-4.75,-0.12,11958.35,2201.0,0.0,0.0,0.0,0.0
1775763133502989343,51938,0.0,1.1,0.028,0.4,-0.06,-0.06,-0.25,-2.81,-3.38,-0.05,0.03,0.0,-4.44,-0.37,-2.5,11956.98,1802.0,0.0,0.0,0.0,0.0
1775763133595283292,52038,0.0,1.4,0.024,0.3,-0.08,0.04,-0.5,-2.63,-3.81,-0.01,0.11,-0.09,-5.0,-3.13,-3.06,1323.47,1802.0,0.0,0.0,0.0,0.0
1775763133693528980,52137,0.0,1.4,0.028,0.3,0.0,0.08,-0.69,-2.38,-4.25,0.04,0.13,-0.1,-2.69,-0.37,-0.88,1312.15,938.0,0.0,0.0,0.0,0.0
1775763133795965373,52237,0.0,1.3,0.024,0.1,-0.02,-0.02,-0.69,-2.31,-4.38,0.13,0.13,-0.05,-0.44,-0.75,0.12,1317.12,938.0,0.0,0.0,0.0,0.0
1775763133894364499,52337,0.0,1.6,0.016,0.1,-0.06,0.02,-0.63,-2.25,-4.44,0.14,0.08,0.01,0.75,0.12,0.94,1386.92,2040.0,0.0,0.0,0.0,0.0
1775763133996647973,52436,0.0,0.3,0.0,1.1,-0.08,-0.08,-0.56,-2.25,-4.31,0.01,0.09,0.0,1.31,0.37,0.81,1361.2,477.0,0.0,0.0,0.0,0.0
1775763134094943944,52537,0.0,0.9,0.02,0.2,-0.08,-0.02,-0.56,-2.31,-4.31,0.11,0.08,-0.03,0.5,1.44,0.0,1386.92,477.0,0.0,0.0,0.0,0.0
1775763134197346399,52637,0.0,1.1,0.0,1.4,0.0,-0.02,-0.56,-2.31,-4.25,0.13,0.07,-0.07,0.94,0.06,0.19,1344.05,1028.0,0.0,0.0,0.0,0.0
1775763134295636073,52737,0.0,1.3,0.056,0.4,-0.02,0.04,-0.56,-2.31,-4.13,0.04,0.09,-0.02,1.19,0.75,0.31,1372.0,1411.0,0.0,0.0,0.0,0.0
1775763134397989957,52838,0.0,1.3,0.048,0.4,-0.16,-0.02,-0.56,-2.44,-4.06,0.1,0.08,-0.07,-0.12,1.44,-0.06,1326.55,1411.0,0.0,0.0,0.0,0.0
1775763134496341499,52937,0.0,1.1,0.04,0.1,0.02,0.0,-0.56,-2.56,-4.13,0.24,0.13,-0.28,2.25,1.5,1.81,1342.33,1635.0,0.0,0.0,0.0,0.0
1775763134606631126,53038,0.0,1.2,0.024,0.5,0.06,-0.12,-0.19,-2.69,-3.88,0.28,0.16,-0.33,7.19,3.25,4.94,11958.01,1840.0,0.0,0.0,0.0,0.0
1775763134697009685,53138,0.0,1.2,0.02,0.6,-0.08,-0.08,0.25,-2.94,-2.88,0.16,-0.02,-0.31,14.56,2.38,6.25,1287.62,1840.0,0.0,0.0,0.0,0.0
1775763134795303822,53237,0.0,1.5,0.016,0.2,0.02,-0.06,1.19,-2.88,-1.31,0.4,0.08,-0.72,16.94,-3.5,11.69,1274.93,2410.0,0.0,0.0,0.0,0.0
1775763134897695982,53338,0.0,1.5,0.016,0.4,0.0,-0.1,1.63,-2.63,0.31,0.01,0.12,-1.05,17.31,-1.44,0.56,1266.36,2410.0,0.0,0.0,0.0,0.0
1775763135006048323,53439,0.0,1.2,0.016,0.3,-0.02,0.0,1.5,-2.56,1.37,-0.11,0.05,-0.94,7.19,0.06,-2.81,1252.46,1553.0,0.0,0.0,0.0,0.0
1775763135098438838,53539,0.0,1.3,0.016,0.4,0.04,-0.02,0.94,-2.88,1.81,0.19,0.15,-1.59,3.25,4.94,-8.31,1204.1,1561.0,0.0,0.0,0.0,0.0
1775763135198599954,53639,0.0,1.2,0.064,0.2,0.02,-0.1,0.19,-3.38,2.06,-0.26,0.08,-1.84,1.63,2.63,-6.19,11956.98,1265.0,0.0,0.0,0.0,0.0
1775763135299091000,53739,0.0,1.3,0.052,0.0,0.04,-0.04,-0.06,-3.56,2.19,-0.47,-0.11,-1.46,-0.94,-1.44,1.37,1045.81,1265.0,0.0,0.0,0.0,0.0
1775763135397316090,53838,0.0,1.5,0.044,0.3,-0.06,-0.12,0.12,-3.31,2.13,-0.99,-0.2,-1.05,-3.19,-9.94,2.13,981.15,1378.0,0.0,0.0,0.0,0.0
1775763135495601419,53938,0.0,1.3,0.04,0.2,-0.08,-0.06,0.44,-1.88,1.75,-0.62,-0.0,-0.97,-11.63,-20.19,3.88,862.82,1378.0,0.0,0.0,0.0,0.0
1775763135598052434,54038,0.0,1.3,0.036,0.3,0.04,-0.06,0.69,-0.5,0.25,-0.5,0.67,0.05,-18.5,-7.31,2.25,861.62,1908.0,0.0,0.0,0.0,0.0
1775763135696355762,54138,0.0,1.5,0.024,0.4,0.0,0.02,1.12,-0.44,-1.25,0.16,0.2,0.88,-14.19,6.38,5.81,734.36,1908.0,0.0,0.0,0.0,0.0
1775763135798782667,54238,0.0,1.4,0.02,0.3,0.0,-0.02,1.63,-1.37,-2.31,0.27,-0.63,0.88,-9.88,13.88,1.75,627.0,946.0,0.0,0.0,0.0,0.0
1775763135898972874,54339,0.0,1.3,0.004,0.6,0.06,-0.08,1.25,-2.19,-3.06,0.34,0.3,0.73,-5.38,7.31,-6.81,11957.32,1005.0,0.0,0.0,0.0,0.0
1775763136007351313,54439,0.0,1.4,0.028,0.3,0.04,-0.1,0.25,-2.69,-3.31,0.41,0.48,0.46,1.19,4.69,-10.56,11956.81,3147.0,0.0,0.0,0.0,0.0
1775763136097696314,54539,0.0,1.6,0.02,0.3,-0.04,0.02,-0.75,-3.31,-2.88,0.56,-0.39,0.43,9.19,8.13,-7.25,453.62,3147.0,0.0,0.0,0.0,0.0
1775763136208039616,54640,0.0,1.5,0.068,0.5,-0.06,0.04,-1.5,-3.63,-1.69,0.07,-0.66,0.88,12.81,0.25,-7.0,11956.98,561.0,0.0,0.0,0.0,0.0
1775763136298585738,54740,0.0,1.5,0.04,0.2,0.02,0.04,-2.25,-2.94,-0.81,-0.16,-0.42,1.09,7.44,-12.13,-9.38,11957.32,408.0,0.0,0.0,0.0,0.0
1775763136400816083,54840,0.0,1.4,0.04,0.3,-0.1,-0.1,-3.13,-1.63,-0.63,-0.18,0.12,0.02,-2.38,-14.06,-8.25,11958.35,408.0,0.0,0.0,0.0,0.0
1775763136505139447,54939,0.0,1.6,0.016,0.3,0.16,-0.16,-3.69,-1.19,-1.44,0.12,0.3,0.83,-13.0,3.25,-5.81,11956.81,351.0,0.0,0.0,0.0,0.0
1775763136609387019,55040,0.0,1.4,0.02,0.1,-0.06,-0.2,-4.06,-1.75,-2.69,0.56,-0.05,0.41,-10.0,10.56,-2.38,11955.61,307.0,0.0,0.0,0.0,0.0
1775763136701794688,55140,0.0,1.1,0.02,0.4,0.12,-0.14,-4.06,-2.31,-3.25,0.05,-0.25,0.34,-0.06,2.0,3.38,11956.64,307.0,0.0,0.0,0.0,0.0
1775763136810090339,55240,0.0,1.5,0.016,0.3,-0.04,-0.02,-3.5,-1.94,-2.69,0.1,-0.43,1.08,10.94,-11.56,5.31,11956.98,264.0,0.0,0.0,0.0,0.0
1775763136902393698,55341,0.0,1.3,0.0,1.0,0.0,-0.06,-3.31,-0.44,-1.88,0.06,0.71,0.07,6.19,-10.06,0.63,11956.98,252.0,0.0,0.0,0.0,0.0
1775763137010802028,55441,0.0,1.0,0.016,0.5,-0.02,-0.06,-3.38,-0.06,-1.0,0.5,-0.18,-0.2,13.44,0.37,-2.5,11957.15,252.0,0.0,0.0,0.0,0.0
1775763137103080100,55541,0.0,1.1,0.016,0.3,-0.08,-0.08,-3.44,0.31,0.69,0.01,-0.02,-0.04,21.94,-8.38,3.56,11957.84,230.0,0.0,0.0,0.0,0.0
1775763137201363553,55641,0.0,0.8,0.032,0.2,-0.04,0.02,-3.19,0.81,2.5,-1.31,0.33,0.21,2.69,-1.63,0.37,11958.52,230.0,0.0,0.0,0.0,0.0
1775763137301914757,55741,0.0,1.2,0.052,0.5,-0.18,-0.06,-3.13,0.88,2.25,0.47,-0.02,-0.17,-3.13,-1.19,0.56,11958.35,228.0,0.0,0.0,0.0,0.0
1775763137400205839,55841,0.0,1.0,0.044,0.3,0.04,-0.02,-3.13,0.94,2.31,-0.28,0.14,-0.05,0.44,-0.06,-0.06,11957.84,198.0,0.0,0.0,0.0,0.0
1775763137504493489,55941,0.0,0.9,0.032,0.3,0.0,-0.12,-3.13,0.94,2.25,0.05,0.08,0.0,0.5,-0.06,0.0,11957.32,198.0,0.0,0.0,0.0,0.0
1775763137602795663,56041,0.0,1.0,0.032,0.5,-0.1,-0.1,-3.13,1.0,2.25,0.08,0.06,-0.01,0.06,-0.0,-0.06,11958.35,198.0,0.0,0.0,0.0,0.0
1775763137705145288,56141,0.0,0.9,0.02,0.5,-0.02,0.0,-3.13,1.0,2.25,0.05,0.05,-0.03,-0.06,0.06,-0.06,11956.29,205.0,0.0,0.0,0.0,0.0
1775763137803526570,56241,0.0,1.0,0.02,0.0,-0.02,-0.12,-3.13,1.0,2.25,0.02,0.07,-0.03,-0.0,0.25,0.0,11955.95,205.0,0.0,0.0,0.0,0.0
1775763137911858317,56341,0.0,1.0,0.008,0.2,-0.14,-0.08,-3.13,1.0,2.25,0.01,0.06,-0.01,0.06,0.12,0.0,11956.46,209.0,0.0,0.0,0.0,0.0
1775763138004126463,56441,0.0,0.6,0.012,0.2,-0.06,-0.06,-3.13,1.0,2.25,0.01,0.05,0.0,0.06,0.06,0.0,11955.78,193.0,0.0,0.0,0.0,0.0
1775763138102472383,56541,0.0,0.9,0.02,0.2,-0.02,-0.16,-3.13,1.0,2.25,0.02,0.06,0.0,-0.0,-0.19,-0.25,11958.01,193.0,0.0,0.0,0.0,0.0
1775763138210835172,56641,0.0,1.1,0.056,0.1,0.0,-0.04,-3.13,1.0,2.25,0.0,0.06,-0.02,-0.0,-0.0,0.0,11957.84,198.0,0.0,0.0,0.0,0.0
1775763138301233705,56741,0.02,0.5,0.0,1.5,-0.06,-0.1,-3.13,1.06,2.25,0.0,0.07,0.0,-0.0,-0.06,-0.06,11958.18,198.0,0.0,0.0,0.0,0.0
1775763138403555022,56841,0.0,1.2,0.04,0.5,-0.04,-0.08,-3.13,1.06,2.25,0.02,0.05,-0.03,0.06,-0.06,-0.06,11958.69,195.0,0.0,0.0,0.0,0.0
1775763138503749101,56941,0.0,1.2,0.028,0.3,-0.06,0.0,-3.13,1.06,2.25,0.0,0.06,-0.02,-0.0,-0.06,0.06,11957.84,211.0,0.0,0.0,0.0,0.0
1775763138602175703,57041,0.0,1.2,0.028,0.6,-0.08,-0.14,-3.13,1.06,2.25,0.01,0.04,-0.02,-0.12,-0.06,-0.12,11957.32,211.0,0.0,0.0,0.0,0.0
1775763138710448088,57140,0.0,1.2,0.016,0.1,0.02,-0.06,-3.13,1.06,2.25,0.01,0.07,-0.02,-0.06,-0.06,0.0,11957.32,202.0,0.0,0.0,0.0,0.0
1775763138802789572,57240,0.0,0.7,0.012,0.4,0.04,0.0,-3.13,1.06,2.25,0.01,0.07,0.0,-0.0,0.06,-0.12,11957.49,190.0,0.0,0.0,0.0,0.0
1775763138901048533,57340,0.0,1.1,0.02,0.2,-0.04,-0.04,-3.13,1.06,2.25,0.02,0.04,-0.03,-0.0,0.06,0.0,11957.15,190.0,0.0,0.0,0.0,0.0
1775763139003474364,57440,0.0,0.7,0.02,0.3,-0.04,-0.08,-3.13,1.06,2.25,0.02,0.06,-0.03,0.06,-0.25,-0.06,11959.55,195.0,0.0,0.0,0.0,0.0
1775763139111859565,57540,0.0,1.1,0.016,0.1,-0.08,-0.08,-3.13,1.06,2.25,0.01,0.06,-0.05,-0.0,-0.0,0.0,11960.24,198.0,0.0,0.0,0.0,0.0
1775763139204243888,57640,0.0,1.2,0.06,0.5,-0.06,-0.04,-3.13,1.06,2.25,0.03,0.05,-0.04,-0.0,-0.0,0.06,11958.52,198.0,0.0,0.0,0.0,0.0
1775763139300613792,57740,0.0,0.7,0.06,0.1,0.0,0.0,-3.13,1.06,2.25,0.03,0.05,-0.02,0.06,0.06,-0.06,11958.01,207.0,0.0,0.0,0.0,0.0
1775763139402897618,57840,0.0,1.0,0.052,0.3,-0.02,-0.02,-3.13,1.06,2.25,0.01,0.06,-0.03,0.06,-0.0,0.12,11958.69,212.0,0.0,0.0,0.0,0.0
1775763139503213883,57940,0.0,0.9,0.028,0.2,-0.04,-0.12,-3.13,1.06,2.25,0.02,0.04,-0.03,0.06,-0.19,0.06,11961.44,212.0,0.0,0.0,0.0,0.0
1775763139611540198,58040,0.0,1.0,0.02,0.3,-0.02,-0.04,-3.13,1.06,2.25,0.01,0.08,-0.03,-0.06,-0.06,0.0,11960.75,209.0,0.0,0.0,0.0,0.0
1775763139703913762,58140,0.0,1.1,0.032,0.4,0.1,-0.08,-3.13,1.06,2.25,0.02,0.06,-0.04,0.06,-0.12,0.0,11959.04,209.0,0.0,0.0,0.0,0.0
1775763139812234022,58241,0.0,1.0,0.02,0.2,-0.12,-0.06,-3.13,1.06,2.25,0.01,0.06,-0.03,0.06,-0.12,0.06,11958.35,184.0,0.0,0.0,0.0,0.0
1775763139910545840,58341,0.0,0.7,0.028,0.2,0.08,-0.02,-3.13,1.06,2.25,0.03,0.06,-0.03,-0.06,0.19,0.06,11958.01,204.0,0.0,0.0,0.0,0.0
1775763140005004922,58441,0.0,0.8,0.016,0.6,0.12,-0.14,-3.13,1.06,2.25,0.02,0.06,-0.02,0.06,0.12,0.0,11958.01,204.0,0.0,0.0,0.0,0.0
1775763140111213078,58542,0.0,0.9,0.024,0.6,-0.02,-0.06,-3.13,1.06,2.25,0.01,0.06,-0.05,-0.06,-0.06,0.0,11956.81,199.0,0.0,0.0,0.0,0.0
1775763140213636979,58642,0.0,0.7,0.056,0.2,-0.04,-0.16,-3.13,1.06,2.25,0.03,0.05,-0.06,0.06,0.12,-0.06,11955.61,186.0,0.0,0.0,0.0,0.0
1775763140304015288,58742,0.0,0.7,0.052,0.3,0.02,-0.1,-3.13,1.06,2.25,0.0,0.07,-0.03,0.19,-0.12,0.06,11958.69,186.0,0.0,0.0,0.0,0.0
1775763140406345414,58843,0.0,0.9,0.0,1.4,-0.06,-0.08,-3.13,1.06,2.25,0.0,0.03,-0.04,-0.0,-0.0,0.06,11957.32,179.0,0.0,0.0,0.0,0.0
1775763140512520610,58943,0.0,1.4,0.036,0.0,-0.08,-0.12,-3.13,1.06,2.25,0.01,0.04,-0.04,0.06,-0.0,-0.06,11958.18,179.0,0.0,0.0,0.0,0.0
1775763140604910051,59043,0.0,1.2,0.02,0.6,-0.1,-0.04,-3.13,1.06,2.25,0.0,0.07,-0.04,-0.06,-0.06,0.06,11956.64,195.0,0.0,0.0,0.0,0.0
1775763140713310295,59143,0.0,1.2,0.02,0.6,-0.08,-0.02,-3.13,1.06,2.25,0.03,0.04,-0.05,-0.06,0.06,0.12,11960.07,194.0,0.0,0.0,0.0,0.0
1775763140805684256,59243,0.0,1.2,0.016,0.3,0.0,0.08,-3.13,1.06,2.25,0.02,0.05,-0.04,0.19,0.06,0.0,11960.92,194.0,0.0,0.0,0.0,0.0
1775763140913917952,59343,0.0,1.1,0.008,0.4,-0.14,-0.08,-3.13,1.06,2.25,0.02,0.06,-0.03,0.06,-0.0,0.0,11958.35,192.0,0.0,0.0,0.0,0.0
1775763141006286561,59443,0.0,1.2,0.012,0.2,-0.08,-0.06,-3.13,1.06,2.25,0.01,0.06,-0.03,-0.0,0.06,-0.06,11957.84,196.0,0.0,0.0,0.0,0.0
1775763141114658201,59543,0.0,1.1,0.02,0.3,0.1,0.0,-3.13,1.06,2.25,0.05,0.05,-0.01,0.12,0.06,-0.06,11958.52,196.0,0.0,0.0,0.0,0.0
1775763141206982432,59643,0.0,1.2,0.056,0.3,0.0,-0.02,-3.13,1.06,2.25,0.01,0.06,-0.03,0.19,-0.19,0.0,11959.04,187.0,0.0,0.0,0.0,0.0
1775763141307397392,59743,0.0,1.2,0.04,0.2,0.06,-0.08,-3.13,1.06,2.25,0.02,0.06,0.0,-0.06,-0.06,0.0,11958.87,204.0,0.0,0.0,0.0,0.0
1775763141405685466,59843,0.0,1.3,0.036,0.3,0.12,0.04,-3.13,1.06,2.25,0.01,0.06,0.0,-0.0,-0.0,0.0,11960.41,204.0,0.0,0.0,0.0,0.0
1775763141505834846,59943,0.0,1.3,0.028,1.3,-0.06,-0.06,-3.13,1.06,2.25,0.03,0.07,-0.01,-0.06,-0.12,-0.12,11957.49,211.0,0.0,0.0,0.0,0.0
1775763141608357211,60043,0.0,0.9,0.032,0.3,0.06,-0.06,-3.13,1.06,2.25,0.0,0.07,-0.02,-0.06,0.12,-0.06,11958.35,186.0,0.0,0.0,0.0,0.0
1775763141706671914,60143,0.0,1.2,0.02,0.3,0.02,-0.12,-3.13,1.06,2.25,0.01,0.05,-0.02,-0.06,-0.12,-0.06,11959.55,186.0,0.0,0.0,0.0,0.0
1775763141809029028,60243,0.0,1.1,0.024,0.2,-0.04,0.0,-3.13,1.06,2.25,0.03,0.05,-0.02,-0.0,0.06,0.0,11957.49,192.0,0.0,0.0,0.0,0.0
1775763141907404690,60343,0.0,0.9,0.016,0.2,0.06,-0.04,-3.13,1.06,2.25,0.0,0.06,-0.02,0.12,0.12,0.12,11957.84,192.0,0.0,0.0,0.0,0.0
1775763142005574399,60442,0.0,0.9,0.016,0.2,-0.08,-0.14,-3.13,1.06,2.25,0.03,0.04,0.0,-0.0,0.06,0.06,11959.38,203.0,0.0,0.0,0.0,0.0
1775763142114007247,60542,0.0,1.0,0.02,0.4,-0.02,0.0,-3.13,1.06,2.25,0.02,0.04,-0.02,0.06,-0.0,0.0,11956.81,200.0,0.0,0.0,0.0,0.0
1775763142212293236,60642,0.0,1.0,0.06,0.1,0.04,-0.1,-3.13,1.06,2.25,0.0,0.05,-0.02,0.06,-0.0,-0.06,11958.69,200.0,0.0,0.0,0.0,0.0
1775763142306763619,60742,0.0,1.0,0.04,0.4,-0.04,-0.02,-3.13,1.06,2.25,0.01,0.05,0.0,-0.06,-0.06,0.0,11959.72,193.0,0.0,0.0,0.0,0.0
1775763142405034757,60843,0.0,0.7,0.032,0.5,0.16,-0.18,-3.13,1.06,2.25,0.04,0.07,0.0,-0.06,-0.0,0.06,11957.84,196.0,0.0,0.0,0.0,0.0
1775763142515388649,60943,0.0,1.0,0.032,0.3,-0.02,-0.14,-3.13,1.06,2.25,0.01,0.06,-0.03,-0.12,-0.0,-0.12,11958.18,196.0,0.0,0.0,0.0,0.0
1775763142607674870,61043,0.0,0.7,0.016,0.3,0.02,-0.04,-3.13,1.06,2.25,0.04,0.05,-0.04,-0.06,-0.06,0.0,11959.21,199.0,0.0,0.0,0.0,0.0
1775763142716127532,61144,0.0,1.1,0.024,0.4,-0.02,-0.1,-3.13,1.06,2.25,0.0,0.06,-0.03,0.12,0.06,-0.12,11957.67,199.0,0.0,0.0,0.0,0.0
1775763142808360219,61244,0.0,0.9,0.016,0.5,-0.06,0.0,-3.13,1.06,2.25,0.01,0.08,0.0,-0.06,0.12,0.06,11957.32,201.0,0.0,0.0,0.0,0.0
1775763142916756254,61344,0.0,0.7,0.016,0.4,-0.1,0.0,-3.13,1.06,2.25,0.02,0.07,-0.01,0.06,-0.06,0.06,11958.87,230.0,0.0,0.0,0.0,0.0
1775763143009145064,61444,0.0,0.7,0.008,0.5,-0.16,-0.12,-3.13,1.06,2.25,0.02,0.06,0.0,-0.12,-0.06,-0.12,11960.92,230.0,0.0,0.0,0.0,0.0
1775763143107345472,61543,0.0,0.9,0.024,0.2,-0.14,-0.06,-3.13,1.06,2.25,0.01,0.08,-0.02,-0.06,0.31,0.0,11958.35,191.0,0.0,0.0,0.0,0.0
1775763143209746728,61643,0.0,0.9,0.056,0.2,0.14,-0.1,-3.13,1.06,2.25,0.02,0.06,-0.02,-0.0,0.06,-0.06,11957.67,205.0,0.0,0.0,0.0,0.0
1775763143306141514,61743,0.0,0.9,0.056,0.1,0.1,0.0,-3.13,1.06,2.25,0.01,0.06,-0.02,-0.0,-0.12,0.0,11959.72,205.0,0.0,0.0,0.0,0.0
1775763143408486976,61843,0.0,1.0,0.048,0.0,0.0,-0.18,-3.13,1.06,2.25,0.01,0.07,-0.01,0.12,-0.0,0.0,11959.38,186.0,0.0,0.0,0.0,0.0
1775763143508663481,61943,0.0,0.7,0.032,-0.1,-0.12,-0.04,-3.13,1.06,2.25,0.01,0.07,-0.03,0.06,-0.0,0.0,11958.35,208.0,0.0,0.0,0.0,0.0
1775763143607091749,62043,0.0,0.7,0.032,0.4,0.06,0.12,-3.13,1.06,2.25,0.01,0.07,0.0,0.06,-0.0,0.06,11957.84,208.0,0.0,0.0,0.0,0.0
1775763143715421719,62143,0.0,1.1,0.032,0.3,-0.04,0.1,-3.13,1.06,2.25,0.01,0.07,0.0,0.06,0.12,-0.06,11958.18,196.0,0.0,0.0,0.0,0.0
1775763143807708857,62243,0.0,0.3,0.0,1.6,0.04,-0.06,-3.13,1.06,2.25,0.0,0.07,-0.01,-0.0,-0.06,-0.06,11956.46,194.0,0.0,0.0,0.0,0.0
1775763143908173145,62343,0.0,1.4,0.016,0.2,0.04,-0.04,-3.13,1.06,2.25,0.01,0.06,-0.01,-0.06,-0.06,-0.06,11958.52,194.0,0.0,0.0,0.0,0.0
1775763144014405079,62443,0.0,1.5,0.004,0.2,-0.08,0.04,-3.13,1.06,2.25,0.0,0.05,-0.01,-0.06,0.12,0.06,11958.18,190.0,0.0,0.0,0.0,0.0
1775763144108868238,62543,0.0,1.3,0.0,0.2,-0.08,-0.04,-3.13,1.06,2.25,0.03,0.05,-0.01,0.06,0.12,0.0,11958.18,190.0,0.0,0.0,0.0,0.0
1775763144215062941,62644,0.0,1.3,0.056,0.1,0.0,-0.08,-3.13,1.06,2.25,0.03,0.05,-0.02,-0.0,-0.06,0.0,11957.15,197.0,0.0,0.0,0.0,0.0
1775763144309577006,62744,0.0,1.3,0.044,0.3,-0.02,0.02,-3.13,1.06,2.25,0.01,0.08,-0.02,-0.0,0.06,0.06,11956.81,200.0,0.0,0.0,0.0,0.0
1775763144407834215,62844,0.0,1.3,0.04,0.5,0.1,-0.02,-3.13,1.06,2.25,0.04,0.07,-0.03,-0.12,-0.12,-0.06,11957.32,200.0,0.0,0.0,0.0,0.0
1775763144518129363,62944,0.0,1.4,0.032,0.5,-0.1,0.0,-3.13,1.06,2.25,0.01,0.06,-0.02,-0.12,0.06,0.0,11958.52,211.0,0.0,0.0,0.0,0.0
1775763144610500561,63044,0.0,1.4,0.024,0.1,-0.02,-0.06,-3.13,1.06,2.25,0.01,0.04,-0.02,-0.06,0.12,0.0,11955.26,207.0,0.0,0.0,0.0,0.0
1775763144708842730,63144,0.0,1.1,0.012,0.5,0.0,0.18,-3.13,1.06,2.25,0.01,0.06,-0.02,-0.06,-0.0,-0.06,11955.78,207.0,0.0,0.0,0.0,0.0
1775763144807048776,63243,0.0,1.4,0.02,0.4,0.04,-0.04,-3.13,1.06,2.25,0.02,0.06,0.0,0.06,-0.0,0.0,11958.18,215.0,0.0,0.0,0.0,0.0
1775763144909540387,63343,0.0,1.3,0.016,0.5,0.0,-0.14,-3.13,1.06,2.25,0.02,0.06,-0.02,-0.0,-0.0,0.0,11956.81,215.0,0.0,0.0,0.0,0.0
1775763145007756358,63443,0.0,1.5,0.012,0.3,-0.04,-0.08,-3.13,1.06,2.25,0.03,0.06,-0.02,-0.06,-0.19,-0.06,11958.35,196.0,0.0,0.0,0.0,0.0
1775763145116136229,63543,0.0,1.2,0.02,0.3,0.1,0.1,-3.13,1.06,2.25,0.03,0.04,-0.02,-0.0,-0.12,0.06,11957.15,198.0,0.0,0.0,0.0,0.0
1775763145208591543,63643,0.0,1.4,0.052,0.6,-0.02,0.04,-3.13,1.06,2.25,0.0,0.05,-0.01,-0.0,0.12,0.06,11957.15,198.0,0.0,0.0,0.0,0.0
1775763145304894609,63742,0.0,1.2,0.056,0.3,0.02,-0.12,-3.13,1.06,2.25,-0.01,0.06,-0.03,0.06,-0.06,-0.06,11958.18,193.0,0.0,0.0,0.0,0.0
1775763145407167182,63842,0.0,1.0,0.04,0.0,-0.04,0.0,-3.13,1.06,2.25,0.01,0.07,-0.03,0.06,-0.0,0.06,11956.64,200.0,0.0,0.0,0.0,0.0
1775763145507439975,63942,0.0,1.3,0.028,0.5,0.02,-0.1,-3.13,1.06,2.25,0.03,0.06,-0.02,0.12,-0.12,0.06,11957.84,200.0,0.0,0.0,0.0,0.0
1775763145615835790,64043,0.0,1.3,0.016,0.2,0.12,-0.08,-3.13,1.06,2.25,0.01,0.06,-0.02,0.06,-0.0,0.0,11958.35,197.0,0.0,0.0,0.0,0.0
1775763145708113612,64143,0.0,1.1,0.02,0.2,-0.04,-0.04,-3.13,1.06,2.25,0.02,0.06,0.0,0.12,-0.06,0.0,11953.38,185.0,0.0,0.0,0.0,0.0
1775763145816553351,64243,0.0,1.4,0.016,0.3,0.0,-0.18,-3.13,1.06,2.25,0.02,0.07,-0.02,-0.19,-0.06,0.0,11957.84,185.0,0.0,0.0,0.0,0.0
1775763145918942382,64344,0.0,1.1,0.012,1.5,0.0,-0.14,-3.13,1.06,2.25,0.03,0.06,-0.01,-0.06,-0.12,0.0,11957.15,193.0,0.0,0.0,0.0,0.0
1775763146017192691,64444,0.0,0.3,0.0,0.6,0.04,-0.14,-3.13,1.06,2.25,0.02,0.05,-0.01,0.06,0.06,0.12,11957.32,211.0,0.0,0.0,0.0,0.0
1775763146109521983,64544,0.0,1.3,0.008,0.3,-0.06,-0.08,-3.13,1.06,2.25,0.04,0.04,-0.03,-0.12,0.06,0.0,11957.84,211.0,0.0,0.0,0.0,0.0
1775763146217887825,64645,0.0,0.2,0.0,0.9,0.04,-0.04,-3.13,1.06,2.25,0.0,0.04,0.0,-0.06,-0.06,-0.06,11956.64,186.0,0.0,0.0,0.0,0.0
1775763146308239243,64745,0.0,0.8,0.06,0.5,0.02,0.06,-3.13,1.06,2.25,0.0,0.06,0.0,0.06,-0.0,0.0,11957.67,186.0,0.0,0.0,0.0,0.0
1775763146410607561,64845,0.0,0.9,0.036,0.4,-0.04,-0.04,-3.13,1.06,2.25,0.0,0.05,-0.01,0.06,-0.06,0.0,11957.67,202.0,0.0,0.0,0.0,0.0
1775763146514898476,64945,0.0,0.6,0.036,0.3,0.1,-0.2,-3.13,1.06,2.25,0.03,0.06,0.0,-0.06,-0.06,0.06,11956.81,209.0,0.0,0.0,0.0,0.0
1775763146619287813,65045,0.0,0.7,0.0,0.5,0.0,-0.02,-3.13,1.06,2.25,0.01,0.06,-0.01,0.06,-0.0,-0.06,11957.67,209.0,0.0,0.0,0.0,0.0
1775763146711540719,65145,0.0,1.3,0.016,0.3,0.06,-0.08,-3.13,1.06,2.25,0.02,0.04,0.0,-0.0,-0.06,-0.06,11957.84,203.0,0.0,0.0,0.0,0.0
1775763146819954485,65245,0.0,1.3,0.012,0.2,-0.02,-0.04,-3.13,1.06,2.25,0.02,0.05,-0.03,-0.0,-0.0,0.0,11957.32,201.0,0.0,0.0,0.0,0.0
1775763146912310516,65345,0.0,1.1,0.012,0.3,0.02,-0.1,-3.13,1.06,2.25,0.02,0.09,0.0,-0.06,-0.0,0.0,11957.67,201.0,0.0,0.0,0.0,0.0
1775763147010521263,65445,0.0,1.5,0.008,0.5,-0.04,0.1,-3.13,1.06,2.25,0.02,0.07,-0.03,0.06,-0.06,-0.06,11956.64,213.0,0.0,0.0,0.0,0.0
1775763147112912791,65545,0.0,1.1,0.012,0.3,-0.02,0.12,-3.13,1.06,2.25,0.0,0.07,-0.02,-0.0,0.06,-0.06,11957.67,201.0,0.0,0.0,0.0,0.0
1775763147211241412,65645,0.0,1.4,0.04,0.6,0.12,0.16,-3.13,1.06,2.25,0.0,0.06,-0.01,0.12,-0.0,0.0,11958.87,201.0,0.0,0.0,0.0,0.0
1775763147311764154,65745,0.0,1.2,0.052,0.1,-0.12,-0.02,-3.13,1.06,2.25,0.02,0.08,-0.05,-0.0,0.06,0.0,11958.01,197.0,0.0,0.0,0.0,0.0
1775763147409959910,65845,0.0,1.3,0.036,0.4,-0.04,-0.1,-3.13,1.06,2.25,0.02,0.07,-0.02,0.06,0.06,0.0,11959.9,197.0,0.0,0.0,0.0,0.0
1775763147510134021,65944,0.0,1.3,0.032,0.1,0.02,-0.14,-3.13,1.06,2.25,0.03,0.05,-0.02,-0.0,-0.06,-0.06,11959.55,211.0,0.0,0.0,0.0,0.0
1775763147618572959,66044,0.0,1.2,0.012,0.4,0.0,-0.06,-3.13,1.06,2.25,0.0,0.06,-0.02,0.12,-0.0,0.06,11956.64,208.0,0.0,0.0,0.0,0.0
1775763147716918542,66144,0.0,0.9,0.032,0.2,0.02,0.0,-3.13,1.06,2.25,0.0,0.05,-0.02,-0.0,-0.0,0.0,11957.49,208.0,0.0,0.0,0.0,0.0
1775763147809182216,66243,0.0,1.1,0.02,0.4,0.08,0.0,-3.13,1.06,2.25,0.02,0.07,-0.02,0.06,-0.06,-0.06,11959.04,202.0,0.0,0.0,0.0,0.0
1775763147917596452,66343,0.0,0.0,0.0,1.6,-0.1,-0.06,-3.13,1.06,2.25,0.02,0.07,-0.03,-0.12,0.12,0.0,11960.41,192.0,0.0,0.0,0.0,0.0
1775763148009949696,66443,0.0,1.3,0.016,0.5,-0.04,-0.23,-3.13,1.06,2.25,0.0,0.06,0.0,-0.0,0.12,0.0,11959.9,192.0,0.0,0.0,0.0,0.0
1775763148118272239,66542,0.0,1.1,0.028,0.1,-0.06,-0.1,-3.13,1.06,2.25,0.03,0.07,0.0,-0.0,-0.06,0.06,11960.24,201.0,0.0,0.0,0.0,0.0
1775763148210555829,66642,0.0,1.4,0.052,0.2,0.02,-0.02,-3.13,1.06,2.25,0.04,0.06,-0.03,-0.0,-0.0,0.0,11958.35,200.0,0.0,0.0,0.0,0.0
1775763148306909715,66742,0.0,1.2,0.048,0.3,0.02,-0.1,-3.13,1.06,2.25,0.03,0.09,-0.04,0.19,-0.12,0.0,11959.55,200.0,0.0,0.0,0.0,0.0
1775763148409284400,66842,0.0,1.2,0.04,0.1,0.0,0.08,-3.13,1.06,2.25,0.0,0.05,-0.03,0.06,-0.06,-0.06,11957.15,194.0,0.0,0.0,0.0,0.0
1775763148513575350,66942,0.0,1.3,0.04,0.5,0.0,-0.08,-3.13,1.06,2.25,0.03,0.06,-0.02,0.06,-0.0,0.06,11957.84,194.0,0.0,0.0,0.0,0.0
1775763148611893091,67042,0.0,1.4,0.02,0.2,0.0,-0.16,-3.13,1.06,2.25,0.01,0.06,-0.05,-0.0,-0.0,0.12,11958.01,205.0,0.0,0.0,0.0,0.0
1775763148710227090,67142,0.0,1.4,0.012,0.2,0.02,0.0,-3.13,1.06,2.25,0.01,0.06,-0.03,0.06,-0.12,0.0,11957.15,204.0,0.0,0.0,0.0,0.0
1775763148818634908,67243,0.0,1.5,0.012,0.6,0.02,-0.06,-3.13,1.06,2.25,0.0,0.07,-0.01,-0.0,0.06,0.0,11958.69,204.0,0.0,0.0,0.0,0.0
1775763148910933682,67343,0.0,1.5,0.012,0.2,-0.12,0.04,-3.13,1.06,2.25,0.0,0.06,-0.03,-0.06,0.06,0.06,11961.61,205.0,0.0,0.0,0.0,0.0
1775763149009210517,67443,0.0,0.0,0.0,1.0,0.08,-0.08,-3.13,1.06,2.25,0.0,0.06,-0.02,-0.06,-0.06,0.0,11960.07,195.0,0.0,0.0,0.0,0.0
1775763149117701375,67543,0.0,1.0,0.016,0.3,-0.1,-0.1,-3.13,1.06,2.25,0.01,0.07,-0.03,0.06,-0.06,0.0,11961.1,195.0,0.0,0.0,0.0,0.0
1775763149220097679,67643,0.0,0.9,0.06,0.3,-0.08,-0.1,-3.13,1.06,2.25,0.0,0.05,-0.03,-0.0,-0.06,0.19,11958.52,188.0,0.0,0.0,0.0,0.0
1775763149310463903,67743,0.0,0.8,0.044,0.6,-0.1,-0.16,-3.13,1.06,2.25,0.01,0.07,-0.03,0.06,-0.06,0.0,11958.18,197.0,0.0,0.0,0.0,0.0
1775763149408630696,67843,0.0,0.6,0.044,0.1,-0.04,0.02,-3.13,1.06,2.25,0.02,0.06,-0.03,-0.06,0.12,-0.06,11958.01,197.0,0.0,0.0,0.0,0.0
1775763149518931398,67943,0.0,0.9,0.032,0.2,0.06,-0.04,-3.13,1.06,2.25,0.03,0.06,-0.03,-0.06,-0.0,0.0,11957.32,208.0,0.0,0.0,0.0,0.0
1775763149611388508,68043,0.0,1.0,0.028,0.3,-0.04,-0.08,-3.13,1.06,2.25,0.01,0.06,-0.05,-0.0,0.06,0.06,11958.18,208.0,0.0,0.0,0.0,0.0
1775763149719687264,68144,0.0,0.9,0.032,0.3,0.06,-0.14,-3.13,1.06,2.25,0.02,0.07,-0.01,-0.0,0.06,0.0,11958.18,198.0,0.0,0.0,0.0,0.0
1775763149812038601,68244,0.0,1.0,0.016,0.3,0.08,0.04,-3.13,1.06,2.25,0.03,0.07,-0.01,-0.19,0.06,0.06,11956.98,186.0,0.0,0.0,0.0,0.0
1775763149920443112,68344,0.0,1.0,0.02,0.5,-0.04,0.06,-3.13,1.06,2.25,0.0,0.03,-0.02,0.06,0.06,0.06,11958.01,186.0,0.0,0.0,0.0,0.0
1775763150012667861,68445,0.0,0.7,0.008,0.1,-0.04,-0.14,-3.13,1.06,2.25,0.01,0.07,-0.02,0.06,-0.19,0.0,11958.69,196.0,0.0,0.0,0.0,0.0
1775763150121044992,68545,0.0,0.9,0.012,0.6,-0.04,-0.1,-3.13,1.06,2.25,0.03,0.06,-0.03,-0.06,0.06,0.12,11958.18,204.0,0.0,0.0,0.0,0.0
1775763150213444299,68645,0.0,0.8,0.056,0.1,-0.06,0.08,-3.13,1.06,2.25,0.02,0.06,-0.02,0.06,-0.0,0.0,11958.18,204.0,0.0,0.0,0.0,0.0
1775763150309844497,68744,0.0,0.8,0.048,0.2,0.1,-0.2,-3.13,1.06,2.25,0.0,0.05,0.0,-0.0,-0.06,-0.06,11957.32,205.0,0.0,0.0,0.0,0.0
1775763150412082854,68844,0.0,1.4,0.0,0.9,0.04,-0.06,-3.13,1.06,2.25,0.01,0.05,-0.04,-0.0,-0.0,0.06,11957.32,197.0,0.0,0.0,0.0,0.0
1775763150516366043,68944,0.0,1.0,0.028,0.2,-0.04,-0.06,-3.13,1.06,2.25,0.01,0.07,-0.03,0.06,-0.0,0.0,11957.32,197.0,0.0,0.0,0.0,0.0
1775763150620641232,69044,0.0,1.1,0.024,0.4,0.0,-0.06,-3.13,1.06,2.25,0.0,0.04,-0.03,0.06,-0.06,0.06,11957.32,199.0,0.0,0.0,0.0,0.0
1775763150713122443,69144,0.0,1.3,0.016,0.3,-0.12,0.02,-3.13,1.06,2.25,0.01,0.07,-0.01,0.06,-0.0,-0.06,11959.38,199.0,0.0,0.0,0.0,0.0
1775763150815357670,69244,0.0,1.3,0.02,0.3,-0.12,0.08,-3.13,1.06,2.25,0.02,0.07,0.0,0.06,-0.25,-0.06,11957.84,198.0,0.0,0.0,0.0,0.0
1775763150913700297,69344,0.0,1.5,0.012,0.1,0.1,-0.1,-3.13,1.06,2.25,0.0,0.05,-0.02,-0.06,-0.19,0.12,11960.41,191.0,0.0,0.0,0.0,0.0
1775763151011960447,69444,0.0,1.2,0.012,0.3,0.0,-0.14,-3.13,1.06,2.25,0.02,0.05,-0.03,-0.06,-0.12,0.0,11960.41,191.0,0.0,0.0,0.0,0.0
1775763151114378378,69544,0.0,1.2,0.024,0.5,0.16,-0.06,-3.13,1.06,2.25,0.03,0.07,-0.02,0.06,-0.06,-0.06,11953.89,188.0,0.0,0.0,0.0,0.0
1775763151212676572,69644,0.0,1.3,0.06,0.5,-0.04,-0.12,-3.13,1.06,2.25,0.02,0.05,-0.01,0.06,-0.19,0.0,11956.46,204.0,0.0,0.0,0.0,0.0
1775763151313171980,69744,0.0,1.4,0.052,0.3,0.0,-0.16,-3.13,1.06,2.25,0.0,0.07,-0.03,-0.0,-0.0,0.0,11958.35,204.0,0.0,0.0,0.0,0.0
1775763151411448990,69844,0.004,0.1,0.0,1.2,-0.04,-0.1,-3.13,1.06,2.25,0.01,0.05,-0.02,-0.06,0.25,0.06,11956.98,186.0,0.0,0.0,0.0,0.0
1775763151515689523,69944,0.0,0.9,0.04,0.2,-0.02,0.06,-3.13,1.06,2.25,0.04,0.06,0.0,-0.0,0.06,0.0,11956.64,206.0,0.0,0.0,0.0,0.0
1775763151620095011,70044,0.0,0.9,0.02,0.5,-0.08,-0.04,-3.13,1.06,2.25,0.02,0.05,-0.01,0.06,-0.06,0.0,11957.15,206.0,0.0,0.0,0.0,0.0
1775763151712358130,70145,0.0,1.3,0.02,0.1,0.04,0.04,-3.13,1.06,2.25,0.0,0.05,-0.01,-0.12,0.06,0.12,11955.61,200.0,0.0,0.0,0.0,0.0
1775763151820781674,70245,0.0,1.3,0.02,0.5,0.0,-0.02,-3.13,1.06,2.25,0.01,0.06,-0.02,-0.12,-0.0,0.0,11955.61,200.0,0.0,0.0,0.0,0.0
1775763151923234789,70345,0.0,1.0,0.008,0.2,-0.1,-0.02,-3.13,1.06,2.25,0.02,0.08,-0.02,-0.0,-0.0,-0.06,11957.67,206.0,0.0,0.0,0.0,0.0
1775763152021428449,70446,0.0,1.4,0.016,0.5,-0.06,-0.1,-3.13,1.06,2.25,0.02,0.05,0.0,-0.06,-0.19,0.0,11956.98,199.0,0.0,0.0,0.0,0.0
1775763152115897681,70546,0.0,1.2,0.0,0.5,-0.04,-0.18,-3.13,1.06,2.25,0.05,0.05,-0.03,-0.0,-0.0,-0.06,11957.49,199.0,0.0,0.0,0.0,0.0
1775763152216136350,70646,0.0,1.4,0.064,0.6,-0.1,-0.14,-3.13,1.06,2.25,0.0,0.05,-0.02,-0.06,-0.0,0.0,11956.64,212.0,0.0,0.0,0.0,0.0
1775763152312590453,70746,0.02,0.2,0.0,1.0,-0.02,0.0,-3.13,1.06,2.25,0.01,0.06,-0.02,-0.0,-0.06,-0.06,11956.29,210.0,0.0,0.0,0.0,0.0
1775763152414899898,70846,0.0,1.0,0.048,0.3,0.08,-0.2,-3.13,1.06,2.25,0.02,0.05,-0.01,-0.0,0.12,0.06,11960.07,210.0,0.0,0.0,0.0,0.0
1775763152513246784,70946,0.0,1.1,0.032,0.0,0.02,0.0,-3.13,1.06,2.25,-0.01,0.07,-0.02,0.06,0.06,-0.06,11958.52,214.0,0.0,0.0,0.0,0.0
1775763152623431497,71046,0.0,0.7,0.028,0.3,-0.23,0.04,-3.13,1.06,2.25,0.0,0.06,0.0,0.06,0.06,-0.06,11957.15,209.0,0.0,0.0,0.0,0.0
1775763152715893376,71146,0.0,0.8,0.016,0.3,0.06,0.0,-3.13,1.06,2.25,0.01,0.04,-0.03,-0.06,-0.0,0.0,11958.52,209.0,0.0,0.0,0.0,0.0
1775763152814051827,71246,0.0,0.9,0.02,0.4,0.0,-0.12,-3.13,1.06,2.25,0.04,0.05,-0.02,-0.0,0.06,-0.06,11955.95,205.0,0.0,0.0,0.0,0.0
1775763152916483062,71346,0.0,1.2,0.016,0.4,0.08,0.06,-3.13,1.06,2.25,0.01,0.07,-0.03,0.19,-0.19,0.0,11957.84,196.0,0.0,0.0,0.0,0.0
1775763153014810467,71446,0.0,0.7,0.016,0.5,-0.04,-0.02,-3.13,1.06,2.25,0.01,0.06,-0.02,-0.12,-0.19,0.12,11959.04,196.0,0.0,0.0,0.0,0.0
1775763153117168585,71546,0.0,0.9,0.024,0.2,-0.04,-0.08,-3.13,1.06,2.25,0.02,0.04,-0.04,0.06,-0.19,0.12,11957.15,206.0,0.0,0.0,0.0,0.0
1775763153215530388,71646,0.0,0.5,0.056,0.2,0.14,-0.08,-3.13,1.06,2.25,0.02,0.05,-0.01,-0.0,-0.12,0.06,11959.9,206.0,0.0,0.0,0.0,0.0
1775763153315961687,71746,0.0,1.4,0.048,0.6,-0.16,-0.06,-3.13,1.06,2.25,0.06,0.06,-0.01,0.06,-0.06,0.06,11958.87,202.0,0.0,0.0,0.0,0.0
1775763153414222272,71846,0.0,1.2,0.036,0.2,0.02,-0.08,-3.13,1.06,2.25,0.02,0.07,-0.03,-0.0,-0.0,0.06,11958.52,204.0,0.0,0.0,0.0,0.0
1775763153516598056,71946,0.0,1.2,0.024,0.6,-0.12,-0.06,-3.13,1.06,2.25,0.01,0.08,0.0,-0.0,-0.0,0.0,11961.61,204.0,0.0,0.0,0.0,0.0
1775763153622860754,72046,0.0,1.4,0.028,0.6,0.08,-0.02,-3.13,1.06,2.25,0.01,0.08,-0.02,-0.0,0.19,0.06,11959.38,182.0,0.0,0.0,0.0,0.0
1775763153715142170,72146,0.0,1.1,0.02,0.4,0.04,-0.06,-3.13,1.06,2.25,0.03,0.06,-0.01,-0.0,-0.06,-0.06,11957.67,200.0,0.0,0.0,0.0,0.0
1775763153823591156,72246,0.0,0.4,0.0,1.4,0.2,0.02,-3.13,1.06,2.25,0.0,0.06,0.0,-0.0,0.06,0.0,11958.35,200.0,0.0,0.0,0.0,0.0
1775763153915837314,72346,0.0,1.1,0.008,1.4,-0.08,-0.16,-3.13,1.06,2.25,0.0,0.03,-0.03,-0.0,0.12,0.0,11957.67,189.0,0.0,0.0,0.0,0.0
1775763154014135414,72446,0.0,1.2,0.012,0.3,0.04,-0.04,-3.13,1.06,2.25,0.03,0.03,-0.02,-0.0,0.06,0.12,11958.35,189.0,0.0,0.0,0.0,0.0
1775763154116517393,72545,0.0,1.4,0.004,0.5,-0.1,0.06,-3.13,1.06,2.25,0.01,0.06,-0.02,-0.0,-0.0,0.0,11958.69,195.0,0.0,0.0,0.0,0.0
1775763154214817485,72645,0.0,1.3,0.056,1.3,0.02,-0.04,-3.13,1.06,2.25,0.0,0.05,-0.01,0.06,0.12,0.06,11958.01,216.0,0.0,0.0,0.0,0.0
1775763154315278941,72745,0.0,0.7,0.052,0.5,0.02,0.02,-3.13,1.06,2.25,0.02,0.06,0.0,0.06,0.12,-0.06,11957.49,216.0,0.0,0.0,0.0,0.0
1775763154413561108,72845,0.0,0.7,0.036,0.0,0.16,-0.02,-3.13,1.06,2.25,0.02,0.07,-0.03,0.19,-0.0,-0.06,11958.01,210.0,0.0,0.0,0.0,0.0
1775763154517842017,72945,0.0,0.8,0.0,1.3,-0.14,-0.02,-3.13,1.06,2.25,0.0,0.06,-0.01,0.06,-0.0,0.0,11957.32,199.0,0.0,0.0,0.0,0.0
1775763154622107279,73046,0.0,1.2,0.024,0.5,-0.12,0.02,-3.13,1.06,2.25,0.01,0.06,-0.03,-0.0,-0.06,0.0,11957.32,199.0,0.0,0.0,0.0,0.0
1775763154724614029,73146,0.0,1.5,0.02,0.5,0.04,-0.04,-3.13,1.06,2.25,0.01,0.05,-0.02,-0.06,-0.06,-0.06,11956.29,192.0,0.0,0.0,0.0,0.0
1775763154822874457,73246,0.0,1.3,0.016,0.4,0.08,0.0,-3.13,1.06,2.25,0.0,0.06,-0.02,0.06,-0.0,-0.06,11957.32,204.0,0.0,0.0,0.0,0.0
1775763154917420556,73347,0.0,1.2,0.012,0.6,-0.06,0.0,-3.13,1.06,2.25,0.04,0.06,-0.04,-0.0,0.06,0.0,11956.81,204.0,0.0,0.0,0.0,0.0
1775763155023544600,73447,0.0,1.5,0.02,0.4,-0.18,-0.06,-3.13,1.06,2.25,0.0,0.06,-0.02,0.06,-0.0,0.0,11955.95,202.0,0.0,0.0,0.0,0.0
1775763155115881293,73546,0.0,1.5,0.024,0.6,-0.12,-0.02,-3.13,1.06,2.25,0.02,0.06,-0.02,-0.06,0.12,0.06,11957.49,186.0,0.0,0.0,0.0,0.0
1775763155224340388,73646,0.0,1.0,0.06,0.6,0.08,-0.06,-3.13,1.06,2.25,0.0,0.07,0.0,0.12,-0.06,0.06,11959.72,186.0,0.0,0.0,0.0,0.0
1775763155314634990,73746,0.0,1.1,0.048,0.3,-0.12,-0.18,-3.13,1.06,2.25,0.01,0.05,-0.02,-0.06,-0.06,-0.06,11958.87,205.0,0.0,0.0,0.0,0.0
1775763155417049217,73846,0.0,0.9,0.044,1.4,-0.06,-0.14,-3.13,1.06,2.25,0.02,0.05,-0.02,0.12,-0.12,0.0,11958.18,205.0,0.0,0.0,0.0,0.0
1775763155523177605,73946,0.004,0.3,0.0,1.2,-0.04,-0.14,-3.13,1.06,2.25,0.02,0.06,-0.04,-0.06,-0.0,0.12,11958.69,198.0,0.0,0.0,0.0,0.0
1775763155625721437,74046,0.0,1.4,0.024,0.3,-0.02,-0.14,-3.13,1.06,2.25,0.04,0.06,-0.02,-0.12,-0.06,0.0,11958.18,209.0,0.0,0.0,0.0,0.0
1775763155718012391,74146,0.0,1.3,0.012,0.2,0.02,-0.14,-3.13,1.06,2.25,0.02,0.07,0.01,0.06,0.12,0.12,11959.04,209.0,0.0,0.0,0.0,0.0
1775763155816220757,74246,0.0,1.1,0.008,0.1,0.0,-0.12,-3.13,1.06,2.25,0.01,0.08,0.0,0.06,-0.06,-0.06,11958.35,197.0,0.0,0.0,0.0,0.0
1775763155924579283,74346,0.0,1.3,0.016,0.7,-0.02,-0.2,-3.13,1.06,2.25,0.01,0.06,-0.02,-0.06,-0.06,0.0,11957.49,197.0,0.0,0.0,0.0,0.0
1775763156016994693,74446,0.0,1.2,0.008,0.4,0.12,0.04,-3.13,1.06,2.25,0.02,0.05,-0.02,-0.0,-0.0,0.06,11958.35,197.0,0.0,0.0,0.0,0.0
1775763156119302638,74547,0.0,1.3,0.016,0.3,-0.14,0.02,-3.13,1.06,2.25,0.01,0.06,-0.01,-0.0,0.06,0.0,11956.98,190.0,0.0,0.0,0.0,0.0
1775763156217674006,74647,0.0,1.2,0.056,0.3,0.0,-0.06,-3.13,1.06,2.25,0.01,0.05,0.0,-0.06,0.06,0.06,11957.84,190.0,0.0,0.0,0.0,0.0
1775763156318082353,74747,0.0,1.4,0.052,0.6,-0.08,-0.18,-3.13,1.06,2.25,0.0,0.06,-0.02,0.06,-0.25,-0.06,11957.67,202.0,0.0,0.0,0.0,0.0
1775763156416427407,74847,0.0,1.2,0.036,0.1,-0.04,0.08,-3.13,1.06,2.25,0.01,0.06,-0.04,-0.0,-0.0,0.0,11956.64,201.0,0.0,0.0,0.0,0.0
1775763156518724390,74947,0.0,1.2,0.024,0.5,-0.06,-0.08,-3.13,1.06,2.25,0.02,0.07,-0.02,-0.06,0.06,0.0,11958.18,201.0,0.0,0.0,0.0,0.0
1775763156618926895,75047,0.0,1.0,0.016,0.6,-0.04,-0.1,-3.13,1.06,2.25,0.0,0.06,-0.03,0.06,-0.06,-0.06,11958.87,206.0,0.0,0.0,0.0,0.0
1775763156721362056,75147,0.0,1.2,0.02,0.3,-0.06,0.1,-3.13,1.06,2.25,0.01,0.07,-0.03,-0.0,0.12,0.12,11952.69,214.0,0.0,0.0,0.0,0.0
1775763156819746960,75247,0.0,1.2,0.028,0.5,-0.08,-0.06,-3.13,1.06,2.25,0.01,0.07,0.0,-0.06,-0.0,-0.06,11958.87,214.0,0.0,0.0,0.0,0.0
1775763156922049683,75347,0.0,1.1,0.012,0.3,-0.02,-0.1,-3.13,1.06,2.25,0.0,0.06,0.0,-0.0,0.06,0.06,11957.84,195.0,0.0,0.0,0.0,0.0
1775763157026324238,75447,0.0,1.0,0.02,0.3,0.12,0.0,-3.13,1.06,2.25,0.01,0.04,-0.01,-0.06,-0.0,-0.06,11956.64,209.0,0.0,0.0,0.0,0.0
1775763157118756058,75547,0.0,1.1,0.008,0.3,-0.06,0.0,-3.13,1.06,2.25,0.01,0.07,-0.01,-0.06,0.06,0.0,11957.15,209.0,0.0,0.0,0.0,0.0
1775763157227036143,75648,0.0,0.7,0.06,0.2,-0.02,0.0,-3.13,1.06,2.25,0.03,0.07,-0.02,-0.0,-0.19,0.06,11956.46,186.0,0.0,0.0,0.0,0.0
1775763157317432409,75748,0.0,1.1,0.04,0.5,-0.08,-0.18,-3.13,1.06,2.25,0.01,0.06,-0.05,0.12,-0.0,0.06,11957.67,194.0,0.0,0.0,0.0,0.0
1775763157419764066,75848,0.0,0.9,0.04,0.3,-0.06,-0.06,-3.13,1.06,2.25,0.01,0.04,-0.04,-0.0,0.06,0.06,11959.21,194.0,0.0,0.0,0.0,0.0
1775763157519977766,75949,0.0,1.0,0.016,0.2,-0.08,-0.1,-3.13,1.06,2.25,0.0,0.06,-0.02,0.12,0.12,0.06,11957.15,193.0,0.0,0.0,0.0,0.0
1775763157628414565,76049,0.0,1.0,0.02,0.3,0.0,-0.14,-3.13,1.06,2.25,0.0,0.06,-0.01,-0.06,0.12,0.0,11960.92,193.0,0.0,0.0,0.0,0.0
1775763157720705670,76149,0.0,0.7,0.02,0.2,-0.08,-0.06,-3.13,1.06,2.25,0.0,0.06,0.0,-0.06,-0.0,0.0,11960.92,200.0,0.0,0.0,0.0,0.0
1775763157829111026,76250,0.0,1.0,0.02,0.3,0.0,-0.1,-3.13,1.06,2.25,0.0,0.06,-0.03,-0.06,0.06,0.0,11957.84,209.0,0.0,0.0,0.0,0.0
1775763157921536291,76350,0.0,1.0,0.024,0.2,0.04,-0.08,-3.13,1.06,2.25,0.01,0.05,0.0,-0.06,0.06,-0.06,11957.67,209.0,0.0,0.0,0.0,0.0
1775763158029798948,76450,0.0,1.0,0.016,0.2,0.16,-0.1,-3.13,1.06,2.25,0.0,0.05,-0.03,0.12,-0.12,-0.06,11959.21,205.0,0.0,0.0,0.0,0.0
1775763158122097637,76550,0.0,0.8,0.016,0.4,-0.12,0.08,-3.13,1.06,2.25,0.01,0.05,-0.02,0.12,-0.0,0.0,11957.15,196.0,0.0,0.0,0.0,0.0
1775763158230603091,76650,0.0,1.1,0.064,0.5,0.06,-0.18,-3.13,1.06,2.25,0.0,0.06,-0.01,-0.06,0.12,-0.06,11960.92,196.0,0.0,0.0,0.0,0.0
1775763158320875244,76750,0.0,1.2,0.044,0.2,-0.1,-0.06,-3.13,1.06,2.25,0.03,0.05,-0.01,-0.0,-0.06,0.06,11959.38,200.0,0.0,0.0,0.0,0.0
1775763158419082621,76850,0.0,0.9,0.044,0.5,0.02,-0.02,-3.13,1.06,2.25,0.02,0.07,-0.03,-0.19,-0.06,0.0,11960.92,200.0,0.0,0.0,0.0,0.0
1775763158527536595,76950,0.0,1.0,0.044,0.5,-0.06,-0.14,-3.13,1.06,2.25,0.0,0.05,-0.02,-0.0,-0.12,-0.06,11961.1,197.0,0.0,0.0,0.0,0.0
1775763158621762657,77050,0.0,1.0,0.028,0.1,-0.02,-0.12,-3.13,1.06,2.25,0.0,0.06,-0.04,-0.12,0.06,-0.06,11956.64,167.0,0.0,0.0,0.0,0.0
1775763158724233003,77150,0.0,1.1,0.02,0.4,0.08,-0.06,-3.13,1.06,2.25,0.0,0.05,-0.03,-0.12,-0.12,-0.06,11956.12,167.0,0.0,0.0,0.0,0.0
1775763158822469897,77250,0.0,1.1,0.028,0.4,-0.08,-0.08,-3.13,1.06,2.25,0.01,0.05,-0.02,-0.0,-0.19,0.0,11957.49,192.0,0.0,0.0,0.0,0.0
1775763158924826247,77350,0.0,0.9,0.024,1.4,0.1,0.06,-3.13,1.06,2.25,0.01,0.07,-0.03,0.06,-0.12,0.0,11957.67,208.0,0.0,0.0,0.0,0.0
1775763159023263298,77450,0.0,1.3,0.016,0.1,0.02,0.0,-3.13,1.06,2.25,0.0,0.04,-0.03,0.06,-0.12,-0.12,11957.84,208.0,0.0,0.0,0.0,0.0
1775763159121367060,77549,0.0,1.2,0.004,0.4,-0.08,0.02,-3.13,1.06,2.25,0.02,0.04,-0.03,-0.0,-0.0,0.0,11960.24,204.0,0.0,0.0,0.0,0.0
1775763159223833990,77649,0.0,1.3,0.056,0.3,0.12,0.0,-3.13,1.06,2.25,0.01,0.05,-0.01,0.12,0.06,0.06,11958.35,207.0,0.0,0.0,0.0,0.0
1775763159320237813,77749,0.0,1.4,0.052,0.5,0.0,-0.12,-3.13,1.06,2.25,0.03,0.04,-0.03,-0.06,-0.0,0.0,11958.35,207.0,0.0,0.0,0.0,0.0
1775763159422593173,77849,0.0,1.3,0.048,0.4,0.06,-0.06,-3.13,1.06,2.25,0.01,0.07,-0.03,0.12,-0.0,0.0,11959.04,205.0,0.0,0.0,0.0,0.0
1775763159526974143,77949,0.0,1.4,0.032,1.2,0.02,-0.02,-3.13,1.06,2.25,0.0,0.06,-0.03,-0.12,0.19,0.12,11958.69,205.0,0.0,0.0,0.0,0.0
1775763159621180124,78049,0.0,1.0,0.012,0.2,-0.23,-0.1,-3.13,1.06,2.25,0.02,0.06,-0.05,0.12,0.06,0.0,11959.38,205.0,0.0,0.0,0.0,0.0
1775763159729509002,78149,0.0,0.7,0.016,0.2,-0.1,0.08,-3.13,1.06,2.25,0.0,0.05,-0.05,-0.06,0.12,0.0,11956.81,196.0,0.0,0.0,0.0,0.0
1775763159821868217,78249,0.0,1.0,0.016,0.6,0.02,-0.16,-3.13,1.06,2.25,0.0,0.05,-0.02,0.06,-0.06,0.06,11957.15,196.0,0.0,0.0,0.0,0.0
1775763159930174078,78349,0.0,1.0,0.02,0.0,-0.14,-0.02,-3.13,1.06,2.25,0.0,0.07,-0.02,0.06,-0.19,0.0,11956.46,218.0,0.0,0.0,0.0,0.0
1775763160022471536,78449,0.0,0.9,0.012,0.5,-0.02,-0.1,-3.13,1.06,2.25,0.04,0.07,-0.03,-0.0,-0.0,0.0,11954.75,210.0,0.0,0.0,0.0,0.0
1775763160130909734,78550,0.0,0.9,0.016,0.3,0.0,-0.06,-3.13,1.06,2.25,0.0,0.05,-0.01,0.06,-0.0,-0.12,11956.29,210.0,0.0,0.0,0.0,0.0
1775763160223159743,78650,0.0,0.9,0.064,0.2,0.1,-0.04,-3.13,1.06,2.25,0.02,0.06,-0.03,0.06,-0.0,0.0,11954.58,186.0,0.0,0.0,0.0,0.0
1775763160323647015,78750,0.0,1.0,0.052,0.1,-0.1,-0.02,-3.13,1.06,2.25,0.01,0.05,-0.03,-0.0,-0.06,0.06,11954.75,210.0,0.0,0.0,0.0,0.0
1775763160421958000,78850,0.0,1.0,0.036,0.4,-0.12,-0.08,-3.13,1.06,2.25,0.02,0.06,-0.02,0.06,-0.0,0.0,11958.18,210.0,0.0,0.0,0.0,0.0
1775763160530312220,78950,0.0,0.9,0.044,0.6,0.02,-0.16,-3.13,1.06,2.25,0.0,0.05,-0.02,-0.0,-0.0,0.0,11955.26,197.0,0.0,0.0,0.0,0.0
1775763160624496250,79050,0.0,1.0,0.024,0.5,-0.04,-0.08,-3.13,1.06,2.25,0.03,0.09,-0.02,-0.0,-0.0,0.0,11955.44,193.0,0.0,0.0,0.0,0.0
1775763160722899749,79150,0.0,1.0,0.024,0.3,0.16,-0.18,-3.13,1.06,2.25,0.03,0.06,-0.03,-0.0,-0.12,-0.06,11956.29,193.0,0.0,0.0,0.0,0.0
1775763160825223177,79250,0.0,0.9,0.024,0.2,0.02,0.06,-3.13,1.06,2.25,0.01,0.05,0.0,-0.0,0.06,0.12,11955.61,207.0,0.0,0.0,0.0,0.0
1775763160923555439,79350,0.0,0.7,0.02,0.1,0.18,0.04,-3.13,1.06,2.25,0.0,0.05,-0.03,-0.0,-0.12,0.06,11957.67,207.0,0.0,0.0,0.0,0.0
1775763161025912216,79451,0.0,0.9,0.016,0.2,-0.2,0.1,-3.13,1.06,2.25,0.02,0.07,0.0,0.06,-0.0,0.0,11956.98,218.0,0.0,0.0,0.0,0.0
1775763161124206379,79551,0.0,1.1,0.028,0.1,0.0,0.1,-3.13,1.06,2.25,0.0,0.07,0.0,-0.0,0.06,0.06,11958.01,193.0,0.0,0.0,0.0,0.0
1775763161226686679,79651,0.0,1.0,0.056,0.2,-0.08,-0.06,-3.13,1.06,2.25,0.01,0.06,-0.03,-0.06,-0.0,0.06,11956.98,193.0,0.0,0.0,0.0,0.0
1775763161323133021,79751,0.0,1.0,0.052,0.2,-0.06,-0.1,-3.13,1.06,2.25,0.03,0.06,-0.03,-0.0,-0.06,0.0,11957.67,207.0,0.0,0.0,0.0,0.0
1775763161425327372,79851,0.0,1.1,0.044,0.3,-0.04,0.1,-3.13,1.06,2.25,0.01,0.06,-0.02,0.06,0.12,-0.06,11955.44,187.0,0.0,0.0,0.0,0.0
1775763161523636812,79951,0.0,0.9,0.032,0.4,-0.06,-0.02,-3.13,1.06,2.25,0.01,0.07,-0.01,-0.06,0.06,0.0,11956.81,187.0,0.0,0.0,0.0,0.0
1775763161633983690,80051,0.0,0.7,0.032,0.2,0.06,0.04,-3.13,1.06,2.25,0.02,0.06,-0.01,0.06,-0.19,-0.06,11956.29,201.0,0.0,0.0,0.0,0.0
1775763161732306277,80151,0.0,0.8,0.012,0.1,0.08,-0.14,-3.13,1.06,2.25,0.01,0.05,-0.01,-0.0,0.06,-0.06,11957.32,218.0,0.0,0.0,0.0,0.0
1775763161834760172,80251,0.0,1.1,0.008,0.2,0.06,-0.02,-3.13,1.06,2.25,0.01,0.07,0.0,0.12,-0.0,0.0,11959.21,218.0,0.0,0.0,0.0,0.0
1775763161932965191,80352,0.0,0.9,0.028,0.6,-0.06,-0.08,-3.13,1.06,2.25,0.0,0.05,0.0,-0.19,-0.0,-0.12,11957.49,197.0,0.0,0.0,0.0,0.0
1775763162025340130,80452,0.0,0.9,0.004,0.4,-0.04,-0.23,-3.13,1.06,2.25,0.02,0.04,0.0,-0.12,-0.06,-0.06,11956.12,197.0,0.0,0.0,0.0,0.0
1775763162133663834,80551,0.0,0.8,0.016,0.5,0.04,-0.06,-3.13,1.06,2.25,0.0,0.05,-0.03,-0.12,0.12,0.0,11959.72,200.0,0.0,0.0,0.0,0.0
1775763162225943659,80651,0.0,1.2,0.052,0.0,-0.14,-0.06,-3.13,1.06,2.25,0.02,0.08,-0.02,-0.06,-0.12,0.06,11958.35,203.0,0.0,0.0,0.0,0.0
1775763162322358402,80751,0.0,1.1,0.04,0.4,0.0,-0.04,-3.13,1.06,2.25,0.01,0.06,0.0,-0.06,0.06,-0.12,11958.35,203.0,0.0,0.0,0.0,0.0
1775763162424673425,80850,0.0,1.2,0.0,1.1,0.08,-0.02,-3.13,1.06,2.25,0.0,0.05,-0.01,-0.0,0.06,0.06,11958.18,181.0,0.0,0.0,0.0,0.0
1775763162528930023,80950,0.0,1.0,0.024,0.3,0.08,-0.1,-3.13,1.06,2.25,0.01,0.06,-0.02,0.06,-0.0,0.0,11956.29,207.0,0.0,0.0,0.0,0.0
1775763162633310633,81050,0.0,0.7,0.02,0.1,0.14,-0.12,-3.13,1.06,2.25,0.03,0.06,0.0,0.06,-0.12,0.12,11957.32,207.0,0.0,0.0,0.0,0.0
1775763162725617736,81150,0.0,0.8,0.012,0.3,0.04,0.0,-3.13,1.06,2.25,0.01,0.06,0.0,-0.0,-0.12,0.0,11956.29,196.0,0.0,0.0,0.0,0.0
1775763162823910631,81250,0.0,1.0,0.008,0.2,-0.06,0.08,-3.13,1.06,2.25,0.01,0.06,-0.02,0.06,-0.0,0.12,11958.18,209.0,0.0,0.0,0.0,0.0
1775763162926393387,81350,0.0,1.0,0.024,0.2,0.04,0.0,-3.13,1.06,2.25,0.02,0.04,-0.02,-0.12,-0.0,0.0,11956.64,209.0,0.0,0.0,0.0,0.0
1775763163024622636,81451,0.0,1.0,0.016,0.2,0.04,-0.04,-3.13,1.06,2.25,0.02,0.05,0.0,0.06,-0.19,0.06,11956.98,213.0,0.0,0.0,0.0,0.0
1775763163127077200,81551,0.0,0.9,0.008,1.3,0.0,-0.04,-3.13,1.06,2.25,0.01,0.05,0.0,-0.06,0.06,0.06,11956.64,213.0,0.0,0.0,0.0,0.0
1775763163223497824,81651,0.036,0.1,0.0,1.2,-0.02,-0.14,-3.13,1.06,2.25,0.01,0.07,-0.02,-0.0,0.06,0.06,11957.49,202.0,0.0,0.0,0.0,0.0
1775763163325764599,81751,0.0,1.0,0.056,0.3,0.02,-0.12,-3.13,1.06,2.25,0.0,0.08,-0.03,0.06,-0.0,0.0,11955.95,222.0,0.0,0.0,0.0,0.0
1775763163431924989,81850,0.0,1.0,0.036,0.3,0.02,-0.02,-3.13,1.06,2.25,0.01,0.07,-0.02,-0.06,0.06,0.0,11957.32,222.0,0.0,0.0,0.0,0.0
1775763163534393570,81950,0.0,1.1,0.036,0.7,-0.02,-0.04,-3.13,1.06,2.25,0.0,0.06,-0.03,-0.06,-0.06,0.0,11957.15,211.0,0.0,0.0,0.0,0.0
1775763163632765454,82051,0.0,0.3,0.0,1.5,-0.02,-0.02,-3.13,1.06,2.25,0.0,0.05,-0.03,-0.06,0.19,0.06,11956.98,206.0,0.0,0.0,0.0,0.0
1775763163725042124,82151,0.0,0.3,0.0,1.4,0.06,0.06,-3.13,1.06,2.25,0.02,0.04,-0.01,-0.19,-0.0,0.12,11958.01,206.0,0.0,0.0,0.0,0.0
1775763163833348802,82251,0.0,1.2,0.016,0.3,0.08,-0.14,-3.13,1.06,2.25,0.01,0.07,0.0,-0.06,-0.12,0.06,11955.78,200.0,0.0,0.0,0.0,0.0
1775763163925686192,82351,0.0,1.0,0.012,0.3,-0.14,-0.12,-3.13,1.06,2.25,0.02,0.06,-0.01,0.06,0.12,0.0,11954.75,219.0,0.0,0.0,0.0,0.0
1775763164034090307,82451,0.0,1.2,0.012,0.5,0.08,-0.1,-3.13,1.06,2.25,0.01,0.05,-0.01,-0.0,-0.06,0.0,11957.32,219.0,0.0,0.0,0.0,0.0
1775763164126340638,82550,0.0,1.2,0.008,0.3,-0.16,-0.14,-3.13,1.06,2.25,0.0,0.07,-0.02,-0.12,0.06,0.0,11955.78,186.0,0.0,0.0,0.0,0.0
1775763164222735645,82650,0.0,1.5,0.052,0.5,-0.06,0.08,-3.13,1.06,2.25,0.03,0.06,0.0,0.06,-0.06,-0.06,11957.32,186.0,0.0,0.0,0.0,0.0
1775763164325082872,82750,0.0,1.4,0.052,0.3,0.04,-0.25,-3.13,1.06,2.25,0.01,0.06,0.0,0.06,-0.06,-0.12,11957.67,179.0,0.0,0.0,0.0,0.0
1775763164425268033,82850,0.0,1.5,0.04,0.6,-0.02,-0.04,-3.13,1.06,2.25,0.02,0.05,0.0,-0.0,0.12,0.0,11956.12,198.0,0.0,0.0,0.0,0.0
1775763164533739935,82950,0.0,1.2,0.032,0.3,0.02,-0.14,-3.13,1.06,2.25,0.04,0.06,-0.01,-0.0,0.06,0.06,11956.98,198.0,0.0,0.0,0.0,0.0
1775763164626012821,83050,0.0,1.1,0.028,0.2,-0.08,0.06,-3.13,1.06,2.25,0.02,0.06,-0.01,0.06,0.06,-0.06,11957.15,202.0,0.0,0.0,0.0,0.0
1775763164734411245,83150,0.0,1.4,0.012,0.3,-0.12,0.0,-3.13,1.06,2.25,0.0,0.07,-0.01,0.12,-0.12,-0.06,11955.09,198.0,0.0,0.0,0.0,0.0
1775763164832723717,83250,0.0,1.2,0.004,0.3,-0.02,0.12,-3.13,1.06,2.25,0.03,0.08,0.0,0.12,0.12,-0.06,11957.49,198.0,0.0,0.0,0.0,0.0
1775763164924995361,83350,0.0,1.4,0.012,0.6,0.02,-0.12,-3.13,1.06,2.25,0.01,0.07,-0.01,0.06,-0.06,0.0,11955.09,214.0,0.0,0.0,0.0,0.0
1775763165033392173,83450,0.0,1.5,0.024,0.5,-0.06,-0.02,-3.13,1.06,2.25,0.01,0.06,-0.02,0.06,-0.19,0.0,11955.26,218.0,0.0,0.0,0.0,0.0
1775763165131681046,83550,0.0,1.2,0.012,0.4,-0.14,-0.06,-3.13,1.06,2.25,0.0,0.06,0.0,-0.06,-0.06,0.0,11957.49,218.0,0.0,0.0,0.0,0.0
1775763165226162931,83650,0.0,1.1,0.06,0.3,0.02,-0.1,-3.13,1.06,2.25,0.01,0.06,0.0,-0.0,-0.0,0.06,11959.38,186.0,0.0,0.0,0.0,0.0
1775763165324408714,83750,0.0,1.4,0.048,0.3,-0.06,-0.16,-3.13,1.06,2.25,0.03,0.07,0.0,-0.19,0.19,0.12,11960.41,186.0,0.0,0.0,0.0,0.0
1775763165424631866,83850,0.0,0.9,0.036,0.3,0.06,0.12,-3.13,1.06,2.25,0.02,0.05,0.0,-0.06,0.06,-0.06,11960.41,198.0,0.0,0.0,0.0,0.0
1775763165533092260,83950,0.0,0.6,0.032,0.5,0.04,-0.06,-3.13,1.06,2.25,0.02,0.07,-0.03,-0.0,0.06,0.0,11959.21,202.0,0.0,0.0,0.0,0.0
1775763165625440505,84050,0.0,1.1,0.028,0.1,-0.06,-0.08,-3.13,1.06,2.25,0.01,0.08,0.0,0.06,0.12,0.0,11960.41,202.0,0.0,0.0,0.0,0.0
1775763165733767072,84150,0.0,1.1,0.032,0.5,0.08,0.02,-3.13,1.06,2.25,0.03,0.06,-0.03,-0.06,0.06,0.06,11961.1,206.0,0.0,0.0,0.0,0.0
1775763165826042080,84250,0.0,0.9,0.02,0.3,-0.02,0.0,-3.13,1.06,2.25,0.01,0.05,-0.03,0.12,0.06,-0.06,11959.72,192.0,0.0,0.0,0.0,0.0
1775763165924342952,84350,0.0,1.0,0.024,-0.1,-0.02,-0.02,-3.13,1.06,2.25,0.02,0.05,-0.02,0.06,-0.06,0.0,11960.41,192.0,0.0,0.0,0.0,0.0
1775763166026728243,84450,0.0,1.0,0.02,0.5,0.12,0.0,-3.13,1.06,2.25,0.02,0.06,-0.03,0.12,-0.19,0.06,11960.24,218.0,0.0,0.0,0.0,0.0
1775763166135122280,84550,0.0,0.7,0.02,0.5,0.0,0.18,-3.13,1.06,2.25,0.0,0.05,-0.03,0.06,-0.0,0.0,11954.92,198.0,0.0,0.0,0.0,0.0
1775763166225546572,84651,0.0,0.9,0.06,0.1,-0.1,-0.06,-3.13,1.06,2.25,0.01,0.04,-0.03,-0.0,-0.19,0.0,11958.35,198.0,0.0,0.0,0.0,0.0
1775763166323892157,84750,0.0,0.9,0.052,0.2,-0.1,-0.06,-3.13,1.06,2.25,0.01,0.05,0.0,0.19,-0.0,0.12,11957.32,197.0,0.0,0.0,0.0,0.0
1775763166428057190,84850,0.0,0.9,0.04,0.5,-0.02,-0.1,-3.13,1.06,2.25,0.0,0.05,0.0,-0.06,-0.12,0.0,11956.46,205.0,0.0,0.0,0.0,0.0
1775763166526428477,84951,0.0,0.9,0.04,0.3,0.04,-0.12,-3.13,1.06,2.25,0.02,0.07,-0.02,-0.06,-0.0,0.06,11957.67,205.0,0.0,0.0,0.0,0.0
1775763166628791706,85050,0.0,1.1,0.028,0.3,0.06,-0.1,-3.13,1.06,2.25,0.0,0.06,-0.01,-0.12,-0.0,-0.06,11959.9,189.0,0.0,0.0,0.0,0.0
1775763166727130162,85150,0.0,0.8,0.02,0.1,-0.02,-0.08,-3.13,1.06,2.25,0.01,0.07,0.0,-0.0,-0.0,0.0,11961.44,189.0,0.0,0.0,0.0,0.0
1775763166829468133,85251,0.0,0.7,0.016,0.5,0.02,-0.04,-3.13,1.06,2.25,0.02,0.08,0.0,-0.06,-0.0,0.0,11960.75,209.0,0.0,0.0,0.0,0.0
1775763166927792108,85351,0.0,1.2,0.016,0.4,-0.06,-0.06,-3.13,1.06,2.25,0.02,0.06,-0.02,-0.0,0.06,0.0,11959.04,194.0,0.0,0.0,0.0,0.0
1775763167030257220,85451,0.0,1.4,0.02,0.4,0.08,0.02,-3.13,1.06,2.25,0.03,0.04,-0.01,0.06,-0.06,-0.06,11959.9,194.0,0.0,0.0,0.0,0.0
1775763167128485062,85552,0.0,1.3,0.02,0.2,-0.08,-0.08,-3.13,1.06,2.25,0.0,0.06,-0.02,-0.12,0.06,0.0,11955.61,189.0,0.0,0.0,0.0,0.0
1775763167228908857,85652,0.0,1.2,0.056,0.7,0.0,-0.12,-3.13,1.06,2.25,0.0,0.07,-0.02,0.06,-0.06,0.0,11955.61,197.0,0.0,0.0,0.0,0.0
1775763167327209344,85752,0.0,0.7,0.048,0.2,0.06,-0.04,-3.13,1.06,2.25,0.0,0.06,-0.03,0.19,0.06,0.06,11955.78,197.0,0.0,0.0,0.0,0.0
1775763167437487024,85853,0.0,0.7,0.04,0.4,0.02,-0.21,-3.13,1.06,2.25,-0.01,0.06,-0.03,0.12,-0.06,0.06,11955.78,201.0,0.0,0.0,0.0,0.0
1775763167529956398,85953,0.0,1.2,0.024,0.5,0.12,-0.04,-3.13,1.06,2.25,0.01,0.05,-0.02,0.06,-0.06,0.0,11956.12,201.0,0.0,0.0,0.0,0.0
1775763167628136132,86053,0.0,0.9,0.016,0.3,0.02,-0.08,-3.13,1.06,2.25,0.02,0.06,-0.06,0.06,-0.12,-0.12,11959.04,204.0,0.0,0.0,0.0,0.0
1775763167736552178,86153,0.0,1.0,0.02,0.2,-0.04,-0.12,-3.13,1.06,2.25,0.01,0.06,-0.03,0.12,-0.12,-0.06,11959.38,210.0,0.0,0.0,0.0,0.0
1775763167830998533,86253,0.0,1.1,0.024,0.5,0.0,0.02,-3.13,1.06,2.25,0.01,0.07,-0.05,0.06,-0.12,-0.06,11959.55,210.0,0.0,0.0,0.0,0.0
1775763167937178999,86353,0.0,0.7,0.016,0.6,-0.06,-0.06,-3.13,1.06,2.25,0.01,0.07,-0.02,-0.0,-0.12,-0.06,11956.81,208.0,0.0,0.0,0.0,0.0
1775763168029517138,86453,0.0,0.9,0.004,0.5,0.0,-0.1,-3.13,1.06,2.25,0.01,0.07,0.0,-0.06,-0.0,-0.06,11959.72,195.0,0.0,0.0,0.0,0.0
1775763168137938880,86553,0.0,1.0,0.02,0.2,0.0,-0.12,-3.13,1.06,2.25,0.0,0.05,-0.02,0.12,-0.0,0.06,11957.15,195.0,0.0,0.0,0.0,0.0
1775763168228348566,86653,0.0,0.9,0.064,0.3,0.04,-0.04,-3.13,1.06,2.25,0.01,0.06,-0.02,0.12,-0.06,0.0,11958.69,189.0,0.0,0.0,0.0,0.0
1775763168336651407,86753,0.0,0.9,0.0,1.5,0.02,0.0,-3.13,1.06,2.25,0.01,0.07,-0.01,-0.06,-0.0,0.0,11960.24,197.0,0.0,0.0,0.0,0.0
1775763168430912411,86853,0.0,1.3,0.04,0.5,-0.16,0.06,-3.13,1.06,2.25,0.02,0.06,-0.01,0.06,-0.06,-0.12,11961.27,197.0,0.0,0.0,0.0,0.0
1775763168529178689,86953,0.0,1.3,0.0,1.3,-0.02,-0.23,-3.13,1.06,2.25,0.0,0.05,-0.03,-0.0,0.06,0.0,11960.58,193.0,0.0,0.0,0.0,0.0
1775763168631559679,87053,0.0,1.1,0.028,0.2,0.0,-0.06,-3.13,1.06,2.25,0.0,0.04,-0.03,-0.0,-0.12,-0.06,11959.21,208.0,0.0,0.0,0.0,0.0
1775763168729913731,87153,0.0,1.0,0.024,0.3,-0.08,0.0,-3.13,1.06,2.25,0.01,0.06,-0.03,0.06,0.19,0.06,11957.49,208.0,0.0,0.0,0.0,0.0
1775763168832300832,87252,0.0,0.9,0.02,0.1,0.0,-0.14,-3.13,1.06,2.25,0.0,0.05,-0.03,0.12,-0.0,0.06,11956.46,202.0,0.0,0.0,0.0,0.0
1775763168930639014,87352,0.0,1.0,0.012,0.1,0.06,-0.06,-3.13,1.06,2.25,0.01,0.07,-0.03,0.06,-0.06,-0.06,11958.01,202.0,0.0,0.0,0.0,0.0
1775763169038927409,87452,0.0,1.0,0.008,0.2,0.18,-0.14,-3.13,1.06,2.25,0.02,0.07,-0.05,0.12,-0.06,0.06,11958.52,215.0,0.0,0.0,0.0,0.0
1775763169131404584,87553,0.0,0.3,0.0,1.5,0.02,-0.04,-3.13,1.06,2.25,0.02,0.06,-0.03,0.06,-0.06,0.0,11956.46,193.0,0.0,0.0,0.0,0.0
1775763169231725887,87653,0.0,1.4,0.052,0.3,-0.02,-0.04,-3.13,1.06,2.25,0.0,0.06,-0.03,-0.0,-0.0,0.0,11958.18,193.0,0.0,0.0,0.0,0.0
1775763169330030952,87753,0.0,1.6,0.052,0.3,-0.08,-0.1,-3.13,1.06,2.25,0.0,0.08,-0.03,-0.0,0.06,-0.06,11958.35,192.0,0.0,0.0,0.0,0.0
1775763169430315775,87853,0.0,1.2,0.036,0.2,-0.08,-0.1,-3.13,1.06,2.25,0.04,0.06,-0.03,-0.19,-0.0,0.06,11957.32,201.0,0.0,0.0,0.0,0.0
1775763169530716852,87953,0.0,1.3,0.02,0.2,-0.06,-0.02,-3.13,1.06,2.25,0.0,0.06,-0.03,0.19,-0.06,0.06,11958.18,201.0,0.0,0.0,0.0,0.0
1775763169631046118,88053,0.0,1.0,0.032,0.3,-0.02,0.02,-3.13,1.06,2.25,-0.02,0.07,-0.03,0.06,0.06,0.0,11958.18,189.0,0.0,0.0,0.0,0.0
1775763169731386198,88153,0.0,0.9,0.02,0.2,0.04,0.0,-3.13,1.06,2.25,0.01,0.08,-0.01,-0.12,0.06,-0.06,11958.01,189.0,0.0,0.0,0.0,0.0
1775763169837656275,88253,0.0,1.0,0.02,0.3,0.0,0.0,-3.13,1.06,2.25,0.01,0.04,-0.01,0.06,-0.06,-0.12,11957.49,216.0,0.0,0.0,0.0,0.0
1775763169929915071,88353,0.0,0.9,0.0,1.6,-0.12,-0.06,-3.13,1.06,2.25,0.01,0.05,-0.01,0.06,-0.12,0.0,11956.81,182.0,0.0,0.0,0.0,0.0
1775763170038328914,88453,0.0,0.2,0.0,1.4,0.0,-0.12,-3.13,1.06,2.25,0.0,0.07,-0.02,0.06,0.12,0.12,11957.67,182.0,0.0,0.0,0.0,0.0
1775763170130641886,88552,0.0,1.4,0.02,0.2,0.14,-0.04,-3.13,1.06,2.25,0.03,0.06,-0.02,0.06,-0.0,-0.06,11958.87,198.0,0.0,0.0,0.0,0.0
1775763170231038826,88652,0.0,1.3,0.068,0.2,-0.04,-0.16,-3.13,1.06,2.25,0.02,0.04,-0.01,0.06,-0.12,-0.06,11956.81,190.0,0.0,0.0,0.0,0.0
1775763170329353625,88752,0.0,1.5,0.048,0.3,-0.04,-0.04,-3.13,1.06,2.25,0.02,0.07,-0.03,0.12,-0.0,0.06,11958.18,190.0,0.0,0.0,0.0,0.0
1775763170429574000,88852,0.0,1.3,0.04,0.7,-0.14,-0.04,-3.13,1.06,2.25,0.02,0.08,-0.02,-0.12,0.06,0.0,11958.35,203.0,0.0,0.0,0.0,0.0
1775763170531969160,88952,0.0,0.5,0.036,0.6,0.02,0.08,-3.13,1.06,2.25,0.01,0.06,-0.03,-0.06,-0.0,0.06,11957.32,217.0,0.0,0.0,0.0,0.0
1775763170630314735,89052,0.0,1.0,0.032,0.0,0.1,0.02,-3.13,1.06,2.25,0.0,0.05,0.0,-0.06,-0.0,0.06,11958.52,217.0,0.0,0.0,0.0,0.0
1775763170738624892,89151,0.0,0.9,0.032,0.2,-0.12,-0.16,-3.13,1.06,2.25,0.02,0.07,-0.04,-0.0,-0.06,0.0,11956.64,203.0,0.0,0.0,0.0,0.0
1775763170830963493,89251,0.0,1.0,0.024,0.2,-0.02,-0.08,-3.13,1.06,2.25,0.0,0.06,0.0,-0.0,-0.06,-0.12,11957.49,202.0,0.0,0.0,0.0,0.0
1775763170929329419,89351,0.0,0.9,0.0,0.1,-0.04,-0.02,-3.13,1.06,2.25,0.0,0.06,-0.03,-0.12,-0.06,0.0,11956.64,202.0,0.0,0.0,0.0,0.0
1775763171037658629,89451,0.0,1.2,0.016,0.6,0.04,-0.12,-3.13,1.06,2.25,0.0,0.06,-0.03,-0.06,-0.0,0.12,11957.15,201.0,0.0,0.0,0.0,0.0
1775763171130023518,89551,0.0,1.4,0.012,0.6,-0.06,-0.06,-3.13,1.06,2.25,0.01,0.06,0.0,-0.12,-0.06,0.12,11959.9,201.0,0.0,0.0,0.0,0.0
1775763171230398341,89652,0.0,1.1,0.0,0.9,-0.12,0.02,-3.13,1.06,2.25,0.03,0.06,-0.01,-0.06,0.06,-0.06,11958.18,192.0,0.0,0.0,0.0,0.0
1775763171334811602,89752,0.0,0.6,0.048,0.4,-0.1,-0.1,-3.13,1.06,2.25,0.03,0.07,-0.03,-0.06,0.06,0.0,11957.84,195.0,0.0,0.0,0.0,0.0
1775763171431117433,89852,0.004,0.9,0.04,1.2,-0.02,-0.08,-3.13,1.06,2.25,0.02,0.06,-0.04,-0.06,-0.0,-0.06,11959.55,195.0,0.0,0.0,0.0,0.0
1775763171537372033,89952,0.0,1.1,0.04,0.4,0.12,-0.04,-3.13,1.06,2.25,0.0,0.04,-0.03,-0.0,-0.0,0.0,11958.35,207.0,0.0,0.0,0.0,0.0
1775763171639779445,90052,0.0,0.9,0.024,0.7,0.06,-0.02,-3.13,1.06,2.25,0.0,0.06,-0.03,-0.12,-0.06,-0.12,11957.49,212.0,0.0,0.0,0.0,0.0
1775763171732137279,90152,0.0,0.9,0.016,0.3,-0.06,-0.2,-3.13,1.06,2.25,0.0,0.06,-0.01,-0.0,0.06,0.06,11958.87,212.0,0.0,0.0,0.0,0.0
1775763171830351853,90252,0.0,1.0,0.028,0.3,0.02,-0.08,-3.13,1.06,2.25,0.01,0.07,-0.02,-0.12,0.19,0.0,11957.32,206.0,0.0,0.0,0.0,0.0
1775763171938749906,90352,0.0,1.2,0.024,0.3,-0.1,0.04,-3.13,1.06,2.25,0.01,0.07,0.0,-0.0,0.06,0.06,11957.67,206.0,0.0,0.0,0.0,0.0
1775763172031022390,90452,0.0,1.2,0.024,0.3,0.14,-0.02,-3.13,1.06,2.25,0.0,0.06,-0.02,-0.12,-0.06,0.0,11957.67,213.0,0.0,0.0,0.0,0.0
1775763172139414103,90552,0.0,0.9,0.024,0.4,0.0,0.06,-3.13,1.06,2.25,0.01,0.04,-0.03,-0.06,0.12,-0.06,11956.81,175.0,0.0,0.0,0.0,0.0
1775763172229788858,90652,0.0,1.0,0.072,0.2,0.04,-0.1,-3.13,1.06,2.25,0.02,0.07,0.0,-0.0,-0.0,-0.12,11958.87,175.0,0.0,0.0,0.0,0.0
1775763172332142228,90753,0.0,0.9,0.056,0.5,0.06,-0.04,-3.13,1.06,2.25,0.03,0.07,-0.01,-0.0,-0.0,0.06,11955.61,198.0,0.0,0.0,0.0,0.0
1775763172433184494,90853,0.0,1.0,0.044,0.2,0.0,0.16,-3.13,1.06,2.25,0.02,0.08,0.0,-0.06,-0.0,0.06,11954.92,213.0,0.0,0.0,0.0,0.0
