timestamp_ns,time_ms,voltage_left,current_left_ma,voltage_right,current_right_ma,motor_current_left,motor_current_right,euler_x,euler_y,euler_z,acc_lin_x,acc_lin_y,acc_lin_z,gyro_x,gyro_y,gyro_z,sonar_mm,tof_mm,rpm_left,rpm_right,rotations_left,rotations_right
1775763988395764751,159101,3230050.0,0.0,1.4,0.008,0.5,0.02,0.14,-0.0,0.02,8.19,0.14,1.56,-2.38,0.07,0.14,-0.38,0.25,-0.06,0.06,191.39,203.0
1775763988397902525,230050,0.0,1.4,0.008,0.5,0.02,-0.14,,,,,,,,,,,,,,,
1775763988399799016,1915,0.0,1.2,0.02,0.4,0.08,-0.23,29.06,4.31,-11.19,-0.33,0.99,1.44,18.25,5.25,30.0,354.83,341.0,0.0,0.0,0.0,0.0
1775763988405266417,2015,0.0,1.4,0.02,0.2,0.02,-0.1,31.87,2.5,-9.56,0.26,0.35,1.72,21.5,12.31,33.75,11979.96,339.0,0.0,0.0,0.0,0.0
1775763988406903764,2115,0.0,1.3,0.004,0.1,-0.04,-0.04,35.69,0.5,-7.5,-0.07,0.59,0.97,19.56,17.62,52.5,392.39,339.0,0.0,0.0,0.0,0.0
1775763988423954560,2214,0.0,1.3,0.0,0.2,-0.02,0.04,41.81,-1.37,-5.75,0.27,0.23,1.2,12.31,9.19,78.44,11981.68,365.0,0.0,0.0,0.0,0.0
1775763988432307949,2314,0.0,1.3,0.008,0.2,-0.02,-0.18,50.31,-2.5,-4.69,0.06,0.34,0.7,1.31,-0.88,96.31,11981.85,432.0,0.0,0.0,0.0,0.0
1775763988438595006,2414,0.0,1.3,0.004,0.8,-0.06,-0.21,60.5,-3.06,-4.81,-0.35,0.45,-0.09,-12.25,-3.0,108.06,616.03,432.0,0.0,0.0,0.0,0.0
1775763988440978862,2513,0.0,1.4,0.044,0.3,-0.14,-0.12,70.44,-3.69,-5.88,0.17,0.75,-0.7,-15.06,-3.5,94.12,684.46,568.0,0.0,0.0,0.0,0.0
1775763988452597755,2613,0.0,1.4,0.036,0.2,0.04,-0.25,78.12,-4.69,-6.31,0.51,0.77,-1.53,-4.44,1.69,69.62,11980.48,748.0,0.0,0.0,0.0,0.0
1775763988457636005,2713,0.0,1.2,0.028,0.2,0.0,-0.14,84.0,-5.56,-5.81,-0.07,1.11,-0.4,-0.25,7.13,54.25,797.13,748.0,0.0,0.0,0.0,0.0
1775763988460743563,2812,0.0,1.3,0.02,0.4,0.06,-0.29,88.62,-7.13,-5.38,0.03,1.42,-0.46,-0.94,19.62,48.19,828.69,791.0,0.0,0.0,0.0,0.0
1775763988522299461,2913,0.0,1.4,0.008,0.2,0.02,-0.04,92.62,-9.44,-5.13,0.04,0.72,-0.68,-2.38,24.5,34.44,902.26,791.0,0.0,0.0,0.0,0.0
1775763988530600917,3014,0.0,1.3,0.004,0.2,-0.02,-0.08,95.12,-11.56,-5.0,-0.68,-0.04,-0.74,-7.75,15.19,20.19,1032.43,949.0,0.0,0.0,0.0,0.0
1775763988534883709,3113,0.0,1.4,0.0,0.2,-0.04,-0.06,96.37,-12.25,-6.0,-0.93,-0.14,-0.87,-16.94,-3.31,7.0,1031.23,1851.0,0.0,0.0,0.0,0.0
1775763988538897797,3213,0.0,1.5,0.0,0.5,0.06,-0.08,97.12,-10.94,-7.56,-0.19,-0.0,-1.79,-14.56,-20.5,2.69,1066.39,1851.0,0.0,0.0,0.0,0.0
1775763988551622484,3313,0.0,1.3,0.0,0.5,-0.08,-0.06,97.31,-8.31,-8.0,0.16,-0.08,-1.84,2.63,-36.19,-1.75,1097.26,1359.0,0.0,0.0,0.0,0.0
1775763988563708288,3412,0.0,1.3,0.0,0.6,-0.08,-0.18,97.5,-5.19,-7.06,0.24,-0.08,-1.87,12.94,-26.94,5.19,1131.21,1185.0,0.0,0.0,0.0,0.0
1775763988620584425,3513,0.0,1.3,0.048,0.3,0.04,-0.12,98.37,-3.63,-5.38,0.64,-0.21,-1.3,19.94,-7.75,12.19,1172.72,1185.0,0.0,0.0,0.0,0.0
1775763988632429594,3614,0.0,1.5,0.04,0.5,-0.08,-0.14,99.62,-3.44,-3.25,0.61,-0.3,-0.85,22.06,0.12,13.19,1206.5,1506.0,0.0,0.0,0.0,0.0
1775763988645112798,3715,0.0,1.5,0.028,0.6,-0.02,-0.18,100.56,-3.81,-1.63,0.05,-0.66,-0.11,12.63,4.0,8.06,1131.04,1083.0,0.0,0.0,0.0,0.0
1775763988657057496,3815,0.0,1.4,0.016,0.2,-0.04,-0.18,101.19,-4.81,-1.0,-0.43,-0.6,0.2,-2.13,14.44,5.69,1165.69,1083.0,0.0,0.0,0.0,0.0
1775763988669401925,3914,0.0,1.1,0.016,0.1,-0.16,-0.02,101.31,-6.19,-1.56,-0.3,-0.32,0.04,-9.06,5.44,-1.5,1127.1,1081.0,0.0,0.0,0.0,0.0
1775763988723082276,4014,0.0,1.6,0.012,0.3,0.1,-0.1,101.31,-6.44,-2.75,-0.78,0.83,-0.44,-13.88,-0.63,1.0,1115.44,1081.0,0.0,0.0,0.0,0.0
1775763988735426168,4114,0.0,1.4,0.0,0.6,0.0,-0.12,101.37,-6.5,-3.94,-1.1,1.1,-0.34,-9.56,3.63,-0.19,1221.94,1192.0,0.0,0.0,0.0,0.0
1775763988747961115,4214,0.0,1.2,0.0,0.5,-0.1,-0.08,101.37,-6.44,-4.25,-0.45,1.07,-0.69,-1.88,3.31,-0.19,1188.15,3214.0,0.0,0.0,0.0,0.0
1775763988759310063,4314,0.0,1.5,0.004,0.3,0.02,-0.12,101.5,-5.69,-3.13,-0.59,0.79,-0.8,17.37,-3.13,2.88,1149.05,3214.0,0.0,0.0,0.0,0.0
1775763988772723231,4414,0.0,1.2,0.004,0.3,-0.02,-0.18,101.5,-5.25,-1.12,0.19,0.63,-0.41,19.37,-2.5,1.94,1128.64,1799.0,0.0,0.0,0.0,0.0
1775763988821403054,4513,0.0,1.6,0.04,0.2,-0.02,-0.1,101.56,-5.19,0.12,-0.85,0.62,0.38,7.88,5.94,-7.44,1108.06,1064.0,0.0,0.0,0.0,0.0
1775763988834392332,4613,0.0,1.2,0.036,0.5,-0.04,-0.1,100.25,-5.56,0.56,-0.33,0.36,-0.21,3.75,-1.37,-13.69,1117.32,1064.0,0.0,0.0,0.0,0.0
1775763989059596696,4714,0.0,1.4,0.024,0.1,-0.14,-0.14,99.0,-5.44,0.75,-0.03,0.18,-0.17,3.5,-0.88,-10.63,1136.36,1369.0,0.0,0.0,0.0,0.0
1775763989124674171,4813,0.0,1.4,0.004,0.3,0.02,-0.02,-19.87,0.95,-0.39,-24.94,-0.4,-2.88,11.31,-1300.83,2103.0,0.0,0.0,0.0,0.0,0.0,
1775763989137415965,7715,0.0,1.3,0.012,0.2,-0.12,-0.02,127.06,-2.63,-19.87,-0.39,0.95,0.4,24.94,2.88,-11.31,1300.83,2103.0,0.0,0.0,0.0,0.0
1775763989150436481,7816,0.0,1.5,0.028,0.6,0.18,-0.02,125.31,-3.06,-17.87,-0.11,0.01,0.25,17.69,12.88,-15.63,1308.54,2409.0,0.0,0.0,0.0,0.0
1775763989163722527,7915,0.0,1.1,0.02,0.2,0.04,-0.08,123.87,-3.06,-16.5,0.0,-0.25,-0.56,14.13,-4.56,-12.81,1334.27,2409.0,0.0,0.0,0.0,0.0
1775763989227128932,8014,0.0,1.1,0.012,0.1,-0.08,-0.18,122.25,-2.44,-15.06,-0.5,-0.0,-1.42,16.94,-1.0,-21.94,1336.33,1452.0,0.0,0.0,0.0,0.0
1775763989240604733,8115,0.0,1.2,0.004,0.3,0.06,-0.08,119.37,-1.63,-13.13,-0.46,-0.7,-1.02,28.25,-2.44,-37.81,1248.01,1279.0,0.0,0.0,0.0,0.0
1775763989252614891,8215,0.0,1.2,0.004,0.6,0.12,-0.12,114.94,-0.69,-9.38,0.23,-0.65,-0.66,54.19,-7.25,-50.88,1186.44,1279.0,0.0,0.0,0.0,0.0
1775763989265577380,8315,0.0,1.4,0.0,0.3,0.02,-0.04,110.25,0.12,-3.69,-0.14,0.24,-0.32,57.56,0.56,-40.81,1206.85,1155.0,0.0,0.0,0.0,0.0
1775763989325452574,8416,0.0,1.3,0.008,0.3,-0.12,-0.2,107.25,-0.69,0.75,-0.15,-0.03,-0.1,32.38,18.5,-20.69,1139.1,1155.0,0.0,0.0,0.0,0.0
1775763989333824621,8517,0.0,1.4,0.048,0.5,0.18,-0.1,105.56,-2.31,2.94,-0.25,-0.4,0.5,12.5,14.63,-13.88,1087.31,1401.0,0.0,0.0,0.0,0.0
1775763989337718148,8617,0.0,1.2,0.032,1.1,0.08,0.0,104.31,-3.75,3.38,-0.21,-0.3,0.16,-2.94,13.38,-12.88,1090.23,1358.0,0.0,0.0,0.0,0.0
1775763989427879062,8717,0.0,1.1,0.04,0.5,0.0,-0.1,103.25,-4.94,2.56,0.03,0.13,-0.04,-9.56,7.75,-10.13,1112.86,1358.0,0.0,0.0,0.0,0.0
1775763989526222622,8818,0.0,1.1,0.02,0.6,0.08,-0.1,102.5,-4.88,1.63,-0.26,0.27,-0.32,-10.5,-6.63,-7.56,1126.76,1226.0,0.0,0.0,0.0,0.0
1775763989628697114,8918,0.0,1.1,0.008,0.1,-0.04,-0.06,101.69,-3.88,0.44,-0.32,0.05,-0.63,-12.13,-9.0,-8.75,1146.48,1322.0,0.0,0.0,0.0,0.0
1775763989727045805,9018,0.0,1.0,0.016,0.3,-0.06,-0.04,101.12,-3.38,-0.88,-0.16,-0.23,-0.64,-14.56,0.19,-6.88,1151.79,1322.0,0.0,0.0,0.0,0.0
1775763989825361962,9118,0.0,1.1,0.016,0.6,-0.04,-0.14,100.62,-3.44,-2.38,-0.02,0.12,-0.84,-14.19,0.06,-3.81,1171.52,1267.0,0.0,0.0,0.0,0.0
1775763989947599447,9218,0.0,1.0,0.016,0.2,0.04,-0.12,100.5,-3.25,-3.5,0.16,0.29,-0.78,-7.44,-8.19,0.19,1178.89,1354.0,0.0,0.0,0.0,0.0
1775763990036222483,9319,0.0,0.9,0.008,0.5,-0.08,-0.16,100.75,-2.63,-3.63,0.43,0.93,-0.56,3.81,-7.5,2.5,1180.78,1354.0,0.0,0.0,0.0,0.0
1775763990128631997,9418,0.0,1.0,0.012,0.4,0.08,-0.2,100.81,-2.25,-2.81,0.5,0.16,-0.58,10.56,-1.5,0.0,1212.51,1427.0,0.0,0.0,0.0,0.0
1775763990231063426,9519,0.0,0.7,0.048,0.4,-0.1,-0.14,101.0,-2.06,-2.0,0.17,-0.5,-0.35,5.5,-1.19,4.5,1180.95,1095.0,0.0,0.0,0.0,0.0
1775763990329403574,9620,0.0,0.9,0.036,0.1,0.0,-0.14,101.44,-1.69,-1.75,-0.05,-0.04,-0.19,1.12,-8.0,3.06,1155.22,1095.0,0.0,0.0,0.0,0.0
1775763990427746964,9719,0.0,1.0,0.028,0.5,0.02,-0.1,101.56,-0.88,-1.5,0.0,0.22,-0.1,3.5,-5.75,-1.94,1154.19,1904.0,0.0,0.0,0.0,0.0
1775763990530158013,9820,0.0,1.2,0.028,0.3,-0.1,-0.12,101.25,-0.75,-1.25,-0.03,0.01,-0.23,1.12,0.5,-2.88,1163.63,1904.0,0.0,0.0,0.0,0.0
1775763990632622920,9921,0.0,0.9,0.016,0.5,-0.06,0.0,101.0,-0.75,-1.31,-0.2,0.23,-0.28,-3.75,-3.06,-3.31,1159.17,1120.0,0.0,0.0,0.0,0.0
1775763990730985911,10021,0.0,1.7,0.012,0.3,0.08,-0.08,100.31,-0.69,-1.81,0.1,0.1,-0.5,-7.13,2.44,-8.13,1167.4,1408.0,0.0,0.0,0.0,0.0
1775763990833429549,10122,0.0,1.3,0.008,0.3,0.0,-0.23,99.81,-1.19,-2.38,0.11,-0.34,-0.52,-3.19,8.0,-2.5,1183.52,1408.0,0.0,0.0,0.0,0.0
1775763990931772829,10222,0.0,1.4,0.004,0.3,-0.12,-0.12,99.62,-1.44,-2.5,-0.03,-0.16,-0.44,1.63,0.69,-2.63,1179.58,1765.0,0.0,0.0,0.0,0.0
1775763991030084000,10321,0.0,1.5,0.004,0.3,-0.16,-0.04,99.12,-1.37,-2.44,-0.09,0.3,-0.26,-1.31,-1.94,-7.25,1167.74,1381.0,0.0,0.0,0.0,0.0
1775763991132552425,10421,0.0,1.4,0.008,0.4,-0.08,-0.04,98.37,-1.0,-2.94,-0.15,0.14,-0.02,-7.81,-4.19,-6.75,1196.21,1381.0,0.0,0.0,0.0,0.0
1775763991251600314,10521,0.0,1.4,0.04,0.3,0.02,-0.1,97.75,-0.63,-4.06,0.13,0.17,-0.45,-14.06,-2.56,-5.13,1188.84,1373.0,0.0,0.0,0.0,0.0
1775763991333342251,10621,0.0,1.4,0.036,0.5,-0.04,-0.29,97.69,-0.44,-5.19,0.14,0.06,-0.41,-6.81,1.44,3.06,1211.82,1373.0,0.0,0.0,0.0,0.0
1775763991431665876,10721,0.0,1.3,0.02,0.3,-0.04,-0.16,98.06,-0.69,-5.56,0.24,0.13,-0.6,2.63,4.19,4.81,1212.51,1512.0,0.0,0.0,0.0,0.0
1775763991529933087,10821,0.0,1.4,0.02,0.2,-0.08,-0.1,98.44,-0.75,-5.19,-0.04,-0.13,-0.47,3.38,-2.63,2.81,1207.19,1368.0,0.0,0.0,0.0,0.0
1775763991632425319,10920,0.0,1.5,0.0,0.5,0.04,-0.08,98.75,-0.44,-5.0,0.0,0.19,-0.35,0.06,-0.37,2.69,1197.93,1368.0,0.0,0.0,0.0,0.0
1775763991730800836,11020,0.0,1.3,0.004,0.5,-0.02,-0.33,98.94,-0.56,-4.88,-0.27,-0.24,-0.37,2.5,0.69,1.12,1189.01,1382.0,0.0,0.0,0.0,0.0
1775763991847598767,11120,0.0,1.2,0.0,0.3,-0.02,-0.16,98.94,-0.56,-4.81,0.0,-0.0,-0.34,-0.19,-3.06,-1.12,1203.59,1452.0,0.0,0.0,0.0,0.0
1775763991931609022,11220,0.0,1.2,0.0,0.1,0.02,-0.08,98.81,-0.37,-4.63,0.09,0.21,-0.12,1.94,-1.0,-0.31,1189.18,1452.0,0.0,0.0,0.0,0.0
1775763992033992206,11321,0.0,1.2,0.004,0.5,-0.08,-0.16,98.94,-0.37,-4.5,-0.1,0.12,-0.36,-0.75,1.25,3.38,1197.41,1387.0,0.0,0.0,0.0,0.0
1775763992132365928,11421,0.0,1.4,0.0,0.3,0.12,-0.02,99.5,-0.5,-4.81,0.35,0.06,-0.59,-5.69,1.88,5.31,1194.15,745.0,0.0,0.0,0.0,0.0
1775763992234809939,11522,0.0,1.1,0.036,0.5,-0.08,-0.1,99.62,-0.81,-5.06,0.15,-0.32,-0.21,1.63,1.06,-1.06,1191.07,745.0,0.0,0.0,0.0,0.0
1775763992333153223,11622,0.0,1.2,0.028,0.1,0.02,0.0,99.31,-0.5,-5.0,0.0,0.1,-0.17,-1.88,-6.44,-2.94,1206.33,1544.0,0.0,0.0,0.0,0.0
1775763992431453304,11721,0.0,1.3,0.02,0.2,-0.04,-0.06,99.56,-0.25,-5.38,0.0,0.07,-0.27,-5.13,-3.25,8.38,1193.64,1143.0,0.0,0.0,0.0,0.0
1775763992533878492,11822,0.0,1.4,0.008,0.6,-0.14,0.06,100.75,-0.25,-6.0,-0.32,0.05,-0.58,-7.69,-2.19,13.19,1209.93,1143.0,0.0,0.0,0.0,0.0
1775763992636326690,11923,0.0,1.3,0.004,0.3,0.06,-0.21,101.75,-0.0,-6.69,1.04,0.39,-0.66,-5.13,-4.88,6.13,1215.76,1684.0,0.0,0.0,0.0,0.0
1775763992734702043,12022,0.0,1.2,0.004,0.5,0.02,-0.23,102.0,0.56,-6.5,0.66,0.24,-0.49,9.81,-4.38,0.63,1208.22,1684.0,0.0,0.0,0.0,0.0
1775763992837131974,12123,0.0,1.2,0.012,0.3,-0.04,-0.06,102.44,0.63,-6.06,0.35,0.15,-0.67,-0.25,4.06,7.5,1232.06,1639.0,0.0,0.0,0.0,0.0
1775763992935482372,12223,0.0,1.6,0.008,0.3,-0.02,-0.1,102.56,0.12,-6.75,0.8,0.18,-0.37,-3.56,7.31,-5.44,1191.92,1192.0,0.0,0.0,0.0,0.0
1775763993033817558,12322,0.0,1.6,0.004,0.3,-0.06,-0.08,101.69,-0.44,-8.06,0.62,0.21,-0.49,-6.38,6.63,-7.56,1216.45,1192.0,0.0,0.0,0.0,0.0
1775763993136262222,12422,0.0,1.2,0.004,0.1,0.14,-0.06,101.06,-0.63,-9.31,0.8,0.36,-0.33,-4.94,3.19,-4.56,1230.86,1160.0,0.0,0.0,0.0,0.0
1775763993234598655,12522,0.0,1.5,0.044,0.3,-0.08,-0.04,100.31,-0.44,-10.69,-0.67,0.21,0.22,-8.13,3.75,-13.44,1221.77,1598.0,0.0,0.0,0.0,0.0
1775763993332946610,12621,0.0,1.1,0.028,0.3,-0.04,-0.12,98.19,-0.44,-10.69,-0.45,-0.17,0.15,6.0,1.44,-21.25,1215.08,1598.0,0.0,0.0,0.0,0.0
1775763993435407596,12721,0.0,1.2,0.024,0.3,0.06,-0.21,96.81,-0.25,-10.06,-0.97,-0.37,-0.3,3.56,3.38,-15.19,1220.22,1533.0,0.0,0.0,0.0,0.0
1775763993533673205,12822,0.0,1.2,0.016,-0.1,0.08,-0.18,95.25,-0.12,-10.38,-1.93,-0.94,-0.44,-9.38,-2.19,-14.75,1229.66,1533.0,0.0,0.0,0.0,0.0
1775763993636131745,12921,0.0,1.3,0.012,0.3,-0.08,-0.14,94.37,0.25,-11.38,-0.44,-0.83,-0.03,-3.13,-1.44,-1.81,1245.6,1455.0,0.0,0.0,0.0,0.0
1775763993734459619,13022,0.0,1.3,0.008,0.2,-0.02,-0.12,94.25,-0.0,-10.69,-0.42,-0.41,-0.81,11.56,7.69,-1.69,1236.52,1234.0,0.0,0.0,0.0,0.0
1775763993832824729,13121,0.0,1.3,0.008,0.2,0.0,-0.06,94.0,-0.69,-9.75,-0.33,-0.64,-0.69,4.5,2.38,-1.69,1224.0,1234.0,0.0,0.0,0.0,0.0
1775763993935283417,13220,0.0,1.2,0.004,0.3,-0.12,-0.06,94.19,-0.81,-9.63,0.27,-0.33,-0.91,-1.19,-3.88,2.69,1225.88,1798.0,0.0,0.0,0.0,0.0
1775763994179592182,13321,0.0,1.3,0.0,0.3,0.04,-0.12,94.56,-0.63,-9.88,0.67,-0.26,-0.47,1.69,-6.13,5.25,1208.73,1881.0,0.0,0.0,0.0,0.0
1775763994234378051,13422,0.0,1.4,0.004,0.3,-0.02,-0.18,95.06,-0.06,-9.56,0.67,-0.0,0.11,4.0,-7.44,4.13,1201.53,1881.0,0.0,0.0,0.0,0.0
1775763994247048001,13521,0.0,1.2,0.04,0.7,0.1,-0.25,96.06,-0.06,-9.19,-0.84,-0.22,0.44,3.94,3.19,17.94,1186.95,1471.0,0.0,0.0,0.0,0.0
1775763994336770016,13622,0.0,1.4,0.016,0.1,-0.04,-0.18,97.75,-0.75,-8.69,-0.35,-0.03,0.02,4.81,2.25,14.44,1208.9,1334.0,0.0,0.0,0.0,0.0
1775763994435133571,13722,0.0,1.3,0.02,0.3,0.02,-0.21,99.62,-0.75,-8.19,-1.43,0.39,-0.14,1.63,-4.0,23.81,1245.09,1334.0,0.0,0.0,0.0,0.0
1775763994537547637,13822,0.0,1.4,0.004,0.2,0.04,0.0,101.87,-0.44,-7.81,-1.01,0.62,-0.08,-12.69,0.81,20.75,1289.51,1386.0,0.0,0.0,0.0,0.0
1775763994635873382,13922,0.0,1.3,0.008,0.6,0.0,-0.2,103.19,-0.69,-8.63,-0.4,0.11,-0.68,-2.38,-1.81,8.75,1255.72,1215.0,0.0,0.0,0.0,0.0
1775763994736183422,14021,0.0,1.3,0.0,0.4,0.1,-0.18,103.81,-0.31,-9.0,-0.62,0.33,-0.76,-8.44,-5.0,4.25,11981.33,1630.0,0.0,0.0,0.0,0.0
1775763994836692148,14121,0.0,1.3,0.0,0.3,-0.08,-0.14,104.0,-0.06,-9.44,0.03,0.53,-0.61,1.44,0.19,-0.5,1286.59,1630.0,0.0,0.0,0.0,0.0
1775763994934985306,14222,0.0,1.2,0.004,0.5,0.02,-0.21,104.12,-0.19,-9.25,0.54,0.37,-0.8,5.31,5.13,3.38,1231.54,1630.0,0.0,0.0,0.0,0.0
1775763995051590565,14322,0.0,1.3,0.0,0.3,-0.2,-0.16,104.06,-0.94,-9.31,0.31,-0.04,-0.51,0.37,10.56,-5.19,1241.66,1410.0,0.0,0.0,0.0,0.0
1775763995137698319,14423,0.0,1.6,0.008,0.2,-0.08,-0.14,103.0,-1.37,-10.06,0.93,0.02,-0.09,-6.44,4.75,-13.38,11980.82,1560.0,0.0,0.0,0.0,0.0
1775763995238203653,14523,0.0,1.2,0.044,0.4,-0.06,-0.16,101.0,-1.0,-10.81,-0.47,-0.01,0.8,-2.94,-3.94,-26.75,1232.74,1560.0,0.0,0.0,0.0,0.0
1775763995336579821,14623,0.0,1.3,0.036,0.5,-0.06,-0.14,98.56,0.31,-10.75,-1.13,-0.34,0.33,0.12,-16.5,-29.94,11980.13,2745.0,0.0,0.0,0.0,0.0
1775763995438988576,14723,0.0,1.2,0.032,0.1,-0.02,-0.12,95.75,2.13,-10.69,-0.69,-0.89,0.13,-3.0,-8.75,-33.25,1259.5,1194.0,0.0,0.0,0.0,0.0
1775763995537320024,14823,0.0,1.6,0.032,0.0,0.08,-0.06,92.31,3.31,-10.81,-1.07,-1.25,0.66,0.25,0.56,-35.88,1288.82,1194.0,0.0,0.0,0.0,0.0
1775763995639737967,14923,0.0,1.5,0.024,0.3,0.16,-0.04,89.5,4.0,-10.38,-0.94,-1.15,-0.25,6.63,-3.88,-18.37,1387.61,1491.0,0.0,0.0,0.0,0.0
1775763995740016017,15024,0.0,1.3,0.012,0.2,0.04,-0.14,88.81,4.63,-9.69,-0.75,-0.36,-0.84,6.63,-8.63,4.13,11979.62,1711.0,0.0,0.0,0.0,0.0
1775763995848457145,15124,0.0,1.4,0.016,0.2,0.04,0.02,89.62,4.81,-9.0,-0.16,-0.02,-1.01,10.75,-2.19,11.5,11983.91,1197.0,0.0,0.0,0.0,0.0
1775763995975613154,15224,0.0,1.4,0.008,0.1,-0.12,-0.08,90.87,4.56,-7.81,-0.21,-0.3,-0.93,13.75,3.19,12.38,1299.28,1197.0,0.0,0.0,0.0,0.0
1775763996041312847,15325,0.0,1.3,0.02,0.6,0.04,-0.18,91.75,4.31,-7.19,0.2,0.05,-1.0,-5.56,1.75,-0.19,1350.91,1197.0,0.0,0.0,0.0,0.0
1775763996139641565,15426,0.0,1.1,0.028,0.3,-0.06,-0.12,91.25,4.31,-8.75,0.6,-0.64,-0.4,-22.94,-2.81,-5.19,1307.52,1649.0,0.0,0.0,0.0,0.0
1775763996242071106,15525,0.0,1.1,0.056,0.5,0.06,-0.18,91.19,4.88,-11.0,1.12,-0.35,0.02,-19.81,-10.75,2.5,1344.9,1614.0,0.0,0.0,0.0,0.0
1775763996340382318,15626,0.0,0.9,0.048,0.1,-0.04,-0.06,91.5,5.44,-12.19,0.73,0.29,0.54,2.63,2.94,5.44,1368.91,1614.0,0.0,0.0,0.0,0.0
1775763996442798595,15727,0.0,0.9,0.036,0.2,-0.08,-0.16,91.94,4.44,-11.06,-0.33,0.14,-0.21,16.87,14.56,5.56,1398.41,1410.0,0.0,0.0,0.0,0.0
1775763996545223542,15827,0.0,1.0,0.028,0.2,-0.06,-0.14,92.94,3.06,-9.44,-0.43,0.42,-0.38,13.56,12.06,17.37,1317.46,2037.0,0.0,0.0,0.0,0.0
1775763996643588105,15928,0.0,1.1,0.02,0.3,-0.02,-0.14,94.94,1.88,-8.69,-0.75,0.45,-0.13,4.31,1.56,24.0,1328.44,2037.0,0.0,0.0,0.0,0.0
1775763996751981809,16028,0.0,1.2,0.02,0.3,-0.12,-0.18,97.62,2.44,-8.13,-0.57,0.4,-0.17,1.75,-17.12,28.62,1379.89,1900.0,0.0,0.0,0.0,0.0
1775763996844369853,16129,0.0,1.0,0.008,0.3,0.1,-0.12,99.81,4.31,-7.94,-1.38,-0.23,-0.71,1.75,-25.62,12.75,1344.9,1367.0,0.0,0.0,0.0,0.0
1775763996963596675,16229,0.0,1.1,0.016,0.3,0.1,-0.23,100.31,6.69,-8.06,-1.67,-0.41,-0.93,-4.31,-19.62,-1.94,1345.76,1367.0,0.0,0.0,0.0,0.0
1775763997045124675,16328,0.0,0.9,0.004,0.5,-0.06,-0.2,99.87,7.94,-8.5,-0.8,-0.25,-0.95,-11.44,-5.56,-6.56,1376.29,1261.0,0.0,0.0,0.0,0.0
1775763997143477183,16428,0.0,1.0,0.02,0.5,0.0,-0.21,99.12,7.75,-9.69,0.05,0.12,-0.71,-13.25,8.31,-6.31,1372.17,1261.0,0.0,0.0,0.0,0.0
1775763997245893920,16528,0.0,1.1,0.048,0.3,-0.12,-0.12,98.69,6.69,-10.5,-0.11,0.59,-0.47,-3.56,14.25,0.44,1345.25,2065.0,0.0,0.0,0.0,0.0
1775763997344195652,16628,0.0,1.1,0.04,0.4,-0.2,-0.04,98.75,5.06,-10.19,-0.69,-0.06,-0.11,5.81,16.87,1.56,1364.97,1650.0,0.0,0.0,0.0,0.0
1775763997446676392,16729,0.0,0.9,0.032,0.1,0.04,-0.16,98.25,3.69,-9.81,-0.83,-1.13,0.02,-0.31,12.5,-7.19,1304.77,1650.0,0.0,0.0,0.0,0.0
1775763997544936239,16829,0.0,0.7,0.036,0.5,0.04,-0.02,97.31,3.25,-9.94,-0.81,-1.61,0.31,-3.19,-0.06,-11.13,1341.3,2190.0,0.0,0.0,0.0,0.0
1775763997647406976,16929,0.0,0.6,0.032,0.2,-0.08,-0.14,96.19,3.81,-10.0,-0.89,-0.66,-0.07,0.25,-5.88,-11.81,1323.47,1613.0,0.0,0.0,0.0,0.0
1775763997745744312,17029,0.0,0.7,0.016,0.2,-0.1,-0.12,95.44,3.81,-9.44,-0.62,-0.58,-0.27,-0.25,-2.75,-6.13,1311.46,1613.0,0.0,0.0,0.0,0.0
1775763997856096150,17130,0.0,1.0,0.024,0.3,0.02,-0.1,95.25,3.75,-9.19,-0.12,-0.52,-0.42,1.69,0.31,1.63,11984.93,1715.0,0.0,0.0,0.0,0.0
1775763997946505665,17230,0.0,0.9,0.016,0.6,0.06,-0.16,95.56,3.63,-8.38,0.09,-0.35,-0.38,14.0,4.13,5.19,1396.87,1497.0,0.0,0.0,0.0,0.0
1775763998048949354,17331,0.0,0.9,0.012,0.7,-0.02,-0.2,96.56,2.75,-6.81,-0.53,0.18,-0.35,18.06,7.81,13.81,1346.79,1497.0,0.0,0.0,0.0,0.0
1775763998147271607,17431,0.0,0.7,0.036,0.3,0.04,-0.16,98.19,1.75,-5.69,-0.68,0.38,-0.46,7.44,9.31,16.69,1247.15,1360.0,0.0,0.0,0.0,0.0
1775763998255659967,17530,0.0,0.7,0.056,0.5,-0.06,-0.06,99.56,0.88,-5.44,-1.01,0.19,-0.01,1.37,7.31,10.0,1289.68,1360.0,0.0,0.0,0.0,0.0
1775763998348037801,17631,0.0,1.0,0.036,0.7,0.0,0.0,99.69,0.44,-5.25,0.18,0.05,0.36,3.75,4.19,-4.69,1289.85,1544.0,0.0,0.0,0.0,0.0
1775763998446289698,17731,0.0,1.1,0.032,0.3,0.0,0.0,98.5,0.75,-4.69,0.13,0.33,-0.21,6.81,-6.56,-17.87,1302.03,1758.0,0.0,0.0,0.0,0.0
1775763998548764148,17830,0.0,0.9,0.02,0.2,-0.1,-0.14,96.69,1.88,-4.31,-1.15,0.53,0.1,0.81,-11.81,-19.25,1297.05,1758.0,0.0,0.0,0.0,0.0
1775763998647113780,17931,0.0,0.9,0.012,0.1,0.0,-0.18,95.19,2.94,-4.0,-0.01,0.41,-0.45,-1.19,-5.56,-11.81,1236.34,1291.0,0.0,0.0,0.0,0.0
1775763998749555497,18031,0.0,1.2,0.012,0.3,0.0,0.0,94.62,2.88,-5.06,0.14,0.38,-0.2,-14.63,8.44,-3.0,1272.7,1427.0,0.0,0.0,0.0,0.0
1775763998847877398,18131,0.0,0.9,0.02,0.2,-0.02,-0.1,94.19,2.06,-6.19,0.06,-0.08,-0.58,-7.81,10.06,-4.63,1275.27,1427.0,0.0,0.0,0.0,0.0
1775763998946165326,18231,0.0,0.7,0.008,0.3,-0.14,-0.08,93.87,1.37,-6.44,0.06,0.01,-0.52,1.75,5.25,-1.06,1281.62,1525.0,0.0,0.0,0.0,0.0
1775763999048629975,18330,0.0,0.8,0.012,0.2,-0.08,-0.14,93.69,1.12,-6.19,0.08,0.03,-0.75,4.0,3.5,-3.31,1306.49,2364.0,0.0,0.0,0.0,0.0
1775763999295593870,18430,0.0,0.8,0.02,0.3,0.02,-0.06,93.44,0.69,-5.81,-0.1,-0.28,-0.25,4.0,3.25,0.94,1265.16,2364.0,0.0,0.0,0.0,0.0
1775763999347733251,18530,0.0,1.0,0.052,0.5,0.04,-0.14,93.69,0.5,-5.44,-0.06,-0.16,-0.38,2.0,0.75,1.88,1259.15,1993.0,0.0,0.0,0.0,0.0
1775763999356107693,18629,0.0,1.0,0.04,0.6,0.08,-0.1,93.62,0.12,-5.38,-0.07,-0.12,0.01,-1.25,5.0,-2.13,1262.93,2031.0,0.0,0.0,0.0,0.0
1775763999445978875,18729,0.0,1.0,0.04,0.3,-0.1,-0.2,93.44,-0.0,-5.69,-0.05,-0.24,-0.35,-5.5,-0.19,-2.19,1271.67,2031.0,0.0,0.0,0.0,0.0
1775763999548439395,18830,0.0,1.1,0.024,0.3,-0.02,-0.18,93.5,-0.0,-6.25,0.0,-0.11,-0.31,-4.13,-2.5,2.06,1287.79,1486.0,0.0,0.0,0.0,0.0
1775763999646779826,18930,0.0,1.1,0.02,0.5,0.08,-0.14,93.62,0.19,-6.63,-0.22,0.03,-0.41,-4.69,-1.0,0.06,1269.96,1486.0,0.0,0.0,0.0,0.0
1775763999749227638,19030,0.0,0.7,0.012,0.6,0.0,-0.1,93.62,0.06,-7.13,0.04,-0.21,-0.5,-6.19,1.37,1.0,1290.71,1367.0,0.0,0.0,0.0,0.0
1775763999847544357,19131,0.0,1.0,0.008,0.5,-0.12,-0.16,93.81,0.06,-7.63,-0.03,0.09,-0.3,-3.75,-1.19,2.75,1296.54,1239.0,0.0,0.0,0.0,0.0
1775763999951914184,19230,0.0,1.0,0.0,0.1,0.02,-0.14,94.06,-0.06,-7.94,-0.07,0.11,-0.24,-3.38,4.75,1.19,11977.73,1279.0,0.0,0.0,0.0,0.0
1775764000048322995,19330,0.0,1.0,0.004,0.1,-0.02,-0.16,93.94,-0.44,-8.25,-0.03,-0.16,-0.45,-2.88,2.19,-0.88,1383.49,1279.0,0.0,0.0,0.0,0.0
1775764000150764631,19430,0.0,0.9,0.02,0.5,-0.02,-0.08,94.0,-0.37,-8.44,-0.09,0.07,-0.37,-1.31,-2.25,0.63,1334.1,1608.0,0.0,0.0,0.0,0.0
1775764000249085586,19530,0.0,1.1,0.032,0.4,-0.1,-0.1,94.0,-0.31,-8.56,0.06,0.01,-0.36,-1.31,-0.37,0.19,1326.72,1608.0,0.0,0.0,0.0,0.0
1775764000351504734,19630,0.0,0.9,0.032,0.4,0.0,-0.16,94.06,-0.25,-8.56,0.0,0.05,-0.42,1.56,-0.88,0.19,1322.95,1178.0,0.0,0.0,0.0,0.0
1775764000449825355,19731,0.0,0.9,0.024,0.2,-0.02,-0.18,94.12,-0.25,-8.38,-0.03,0.14,-0.34,3.31,1.69,1.44,1311.63,1178.0,0.0,0.0,0.0,0.0
1775764000548128046,19830,0.0,1.1,0.012,0.5,0.02,-0.1,94.31,-0.5,-8.06,0.02,-0.13,-0.41,2.44,0.63,3.0,1444.37,1264.0,0.0,0.0,0.0,0.0
1775764000650583556,19930,0.0,0.9,0.004,0.2,-0.02,-0.1,94.56,-0.5,-7.88,-0.04,0.02,-0.37,1.69,-1.0,1.88,1467.87,1671.0,0.0,0.0,0.0,0.0
1775764000750819496,20030,0.0,0.9,0.004,0.5,-0.06,-0.16,94.62,-0.44,-7.75,-0.03,-0.03,-0.48,0.44,-1.0,0.06,11977.56,1447.0,0.0,0.0,0.0,0.0
1775764000851340905,20130,0.0,1.1,0.0,0.5,-0.2,-0.04,94.62,-0.31,-7.63,-0.05,-0.02,-0.33,2.06,0.25,-0.31,1380.92,1447.0,0.0,0.0,0.0,0.0
1775764000949665287,20230,0.0,1.1,0.012,0.0,-0.02,-0.12,94.56,-0.37,-7.44,-0.14,-0.07,-0.29,1.19,0.75,-0.81,1366.85,1304.0,0.0,0.0,0.0,0.0
1775764001048024630,20330,0.0,1.1,0.004,0.8,-0.06,-0.08,94.5,-0.44,-7.38,-0.16,0.02,-0.26,-0.63,1.44,-2.56,1349.36,1304.0,0.0,0.0,0.0,0.0
1775764001167601144,20429,0.0,1.1,0.016,0.3,0.0,-0.1,94.25,-0.5,-7.56,-0.06,-0.09,-0.38,-3.06,0.12,-1.0,1365.48,1380.0,0.0,0.0,0.0,0.0
1775764001248748228,20530,0.0,1.0,0.036,0.6,-0.06,-0.1,94.31,-0.5,-7.88,-0.1,0.05,-0.39,-2.63,0.44,0.56,1372.0,1946.0,0.0,0.0,0.0,0.0
1775764001351136312,20630,0.0,0.9,0.024,0.3,0.08,-0.23,94.31,-0.56,-8.13,-0.14,-0.01,-0.48,-3.69,1.06,0.12,11980.3,1504.0,0.0,0.0,0.0,0.0
1775764001449522322,20730,0.0,0.9,0.016,0.2,-0.02,-0.16,94.37,-0.37,-8.63,0.06,-0.03,-0.49,-3.38,-3.19,1.31,1450.38,1504.0,0.0,0.0,0.0,0.0
1775764001551907238,20831,0.0,1.0,0.012,0.2,0.02,-0.06,94.37,-0.25,-8.88,-0.06,0.09,-0.35,-0.31,-0.31,-2.0,1411.96,2025.0,0.0,0.0,0.0,0.0
1775764001650234009,20930,0.0,1.2,0.0,0.5,-0.12,-0.14,94.19,-0.25,-8.94,-0.02,-0.0,-0.29,-0.44,-0.12,-0.31,1360.0,2025.0,0.0,0.0,0.0,0.0
1775764001748541349,21030,0.0,0.9,0.008,0.3,-0.21,-0.16,94.19,-0.25,-8.94,-0.03,-0.0,-0.32,-0.88,0.44,-0.94,1337.87,1607.0,0.0,0.0,0.0,0.0
1775764001850995840,21130,0.0,0.9,0.0,0.4,-0.06,-0.1,94.12,-0.25,-9.06,0.05,-0.02,-0.46,-0.5,-0.88,0.25,1343.19,1607.0,0.0,0.0,0.0,0.0
1775764001949391277,21230,0.0,1.0,0.0,0.5,-0.12,-0.18,94.25,-0.19,-9.0,0.16,0.17,-0.05,1.94,-0.81,2.94,1317.29,1836.0,0.0,0.0,0.0,0.0
1775764002051746987,21330,0.028,0.2,0.0,1.4,0.06,-0.18,94.62,-0.25,-8.63,-0.04,0.13,0.11,5.81,1.94,4.06,1339.59,1626.0,0.0,0.0,0.0,0.0
1775764002150080264,21430,0.036,0.1,0.0,1.4,0.0,-0.2,94.87,-0.69,-8.06,0.0,-0.15,0.02,3.44,4.19,0.63,1354.85,1626.0,0.0,0.0,0.0,0.0
1775764002248347765,21530,0.0,1.2,0.0,1.1,0.04,-0.18,94.69,-0.75,-7.88,0.0,-0.08,-0.01,1.0,-1.5,-3.19,1320.38,1146.0,0.0,0.0,0.0,0.0
1775764002350814839,21629,0.064,0.4,0.0,0.5,-0.08,-0.16,94.44,-0.5,-7.81,0.07,0.14,0.0,1.31,-1.25,-1.19,1373.37,1289.0,0.0,0.0,0.0,0.0
1775764002449156396,21729,0.0,1.2,0.012,0.5,-0.02,-0.12,94.5,-0.5,-7.69,0.02,-0.06,0.09,2.56,0.56,1.0,1368.91,1289.0,0.0,0.0,0.0,0.0
1775764002551590349,21830,0.0,0.7,0.02,0.5,0.06,-0.04,94.56,-0.5,-7.44,-0.11,-0.04,0.09,0.88,0.37,0.44,1334.96,1336.0,0.0,0.0,0.0,0.0
1775764002653964547,21931,0.0,1.0,0.016,0.2,-0.1,-0.1,94.56,-0.5,-7.44,0.0,-0.0,0.08,0.37,-0.31,-0.37,1267.04,1336.0,0.0,0.0,0.0,0.0
1775764002752323220,22031,0.0,1.0,0.008,0.1,0.12,-0.25,94.56,-0.56,-7.44,-0.02,-0.0,0.02,0.37,1.0,-0.37,1275.45,1339.0,0.0,0.0,0.0,0.0
1775764002850626304,22131,0.0,1.0,0.0,0.5,-0.08,-0.23,94.5,-0.63,-7.44,0.0,-0.05,0.0,-1.69,0.88,-0.5,1275.79,1321.0,0.0,0.0,0.0,0.0
1775764002953072724,22232,0.0,0.7,0.004,0.6,0.04,-0.02,94.44,-0.69,-7.63,0.0,-0.03,0.0,-1.44,0.88,-1.0,1289.17,1321.0,0.0,0.0,0.0,0.0
1775764003295598111,22332,0.0,0.9,0.0,0.3,-0.06,-0.2,94.37,-0.69,-7.75,0.06,-0.01,0.04,-0.75,0.25,-0.19,1279.73,1505.0,0.0,0.0,0.0,0.0
1775764003354565436,22431,0.0,0.9,0.016,0.2,-0.2,-0.1,94.37,-0.75,-7.75,0.06,-0.05,0.0,-0.44,0.37,-0.12,1302.2,1118.0,0.0,0.0,0.0,0.0
1775764003368483962,22532,0.0,1.2,0.036,0.6,-0.04,-0.12,94.37,-0.75,-7.75,-0.04,-0.13,0.0,0.56,-1.37,-0.5,1314.38,1118.0,0.0,0.0,0.0,0.0
1775764003380507231,22632,0.0,1.0,0.032,0.5,0.04,-0.21,94.37,-0.5,-7.69,0.23,-0.0,0.02,0.81,-3.06,-0.06,1287.62,1915.0,0.0,0.0,0.0,0.0
1775764003452866935,22732,0.052,0.4,0.0,1.6,0.0,-0.12,94.56,-0.19,-7.5,0.06,-0.09,-0.16,3.19,-5.0,3.13,1263.44,999.0,0.0,0.0,0.0,0.0
1775764003555269485,22833,0.0,1.4,0.016,0.4,0.12,-0.1,95.06,0.19,-7.19,0.26,-0.07,0.01,6.5,-5.0,8.19,1271.16,999.0,0.0,0.0,0.0,0.0
1775764003653545256,22934,0.0,1.3,0.012,0.5,-0.16,-0.06,96.0,0.37,-6.69,0.15,-0.21,0.08,5.0,-2.63,10.75,1248.18,1566.0,0.0,0.0,0.0,0.0
1775764003756077559,23033,0.0,1.5,0.016,0.1,0.04,-0.16,97.19,0.31,-6.5,0.13,-0.25,0.11,2.19,-1.12,12.31,1276.47,1697.0,0.0,0.0,0.0,0.0
1775764003854386541,23133,0.0,1.3,0.012,0.2,0.02,-0.1,98.25,0.12,-6.31,-0.2,-0.04,-0.05,-0.44,1.44,9.69,1314.03,1697.0,0.0,0.0,0.0,0.0
1775764003952651791,23233,0.0,1.2,0.0,0.1,0.02,-0.16,99.0,-0.0,-6.38,0.15,0.11,-0.08,-1.06,-1.63,5.56,1324.15,1244.0,0.0,0.0,0.0,0.0
1775764004055118635,23332,0.0,1.3,0.0,0.3,0.02,-0.21,99.31,0.31,-6.19,0.73,0.39,0.51,3.94,-3.81,2.31,1301.86,1244.0,0.0,0.0,0.0,0.0
1775764004153443223,23433,0.0,1.4,0.032,0.3,0.12,-0.21,99.5,0.94,-6.31,0.12,0.43,0.02,-3.81,-6.06,0.12,1266.18,1653.0,0.0,0.0,0.0,0.0
1775764004255828673,23532,0.0,1.6,0.044,0.3,-0.08,-0.1,99.5,1.63,-7.19,0.35,0.48,-0.29,-6.63,-0.06,1.12,1276.3,1495.0,0.0,0.0,0.0,0.0
1775764004354187843,23631,0.0,1.4,0.036,0.1,0.0,-0.33,99.56,1.75,-7.94,0.56,0.31,-0.24,0.69,3.13,-0.81,1249.89,1495.0,0.0,0.0,0.0,0.0
1775764004456623415,23732,0.0,1.2,0.028,0.3,-0.04,-0.21,99.37,1.63,-8.5,0.46,0.26,-0.17,2.69,7.44,-1.12,1284.36,2304.0,0.0,0.0,0.0,0.0
1775764004554900345,23833,0.0,1.5,0.016,0.2,-0.06,-0.1,99.12,1.12,-9.13,0.77,0.36,-0.07,-3.5,11.44,-1.5,1271.33,1346.0,0.0,0.0,0.0,0.0
1775764004657317764,23933,0.0,1.3,0.008,0.5,0.0,-0.14,98.75,0.25,-10.19,0.79,0.01,0.34,-1.69,8.75,-5.31,1305.63,1346.0,0.0,0.0,0.0,0.0
1775764004755640148,24033,0.0,1.4,0.0,0.1,-0.08,-0.14,98.0,0.31,-9.75,-0.79,-0.19,0.83,13.25,-5.88,-8.44,1220.05,1375.0,0.0,0.0,0.0,0.0
1775764004854003801,24132,0.0,1.5,0.0,0.6,0.0,-0.12,97.31,0.94,-8.56,-0.75,-0.08,0.54,3.56,-1.06,-11.56,1265.33,1375.0,0.0,0.0,0.0,0.0
1775764004956417479,24231,0.0,1.6,0.008,0.5,0.08,-0.08,96.0,1.12,-8.38,-2.07,-0.99,0.1,-2.31,-2.56,-7.44,1267.21,1337.0,0.0,0.0,0.0,0.0
1775764005054732972,24332,0.0,1.4,0.0,0.3,0.02,-0.21,95.81,1.19,-8.56,-0.93,-0.9,0.22,3.81,5.19,2.0,1211.65,1663.0,0.0,0.0,0.0,0.0
1775764005153053589,24431,0.0,1.4,0.016,0.1,-0.06,-0.08,95.69,0.88,-7.81,-0.29,-0.54,-0.48,5.94,-0.06,-5.44,1261.38,1663.0,0.0,0.0,0.0,0.0
1775764005251362999,24530,0.0,1.6,0.048,0.5,-0.08,-0.27,95.25,0.63,-7.63,-0.28,-0.5,-0.09,-0.69,0.94,-0.06,1203.76,2079.0,0.0,0.0,0.0,0.0
1775764005353814795,24630,0.0,0.3,0.024,0.2,-0.02,-0.08,95.25,0.12,-7.56,0.27,-0.62,-0.5,-3.81,1.75,0.12,1210.96,1539.0,0.0,0.0,0.0,0.0
1775764005452114222,24730,0.0,1.1,0.0,0.2,0.0,-0.02,95.44,-0.25,-8.63,0.49,-0.58,-0.36,-6.88,-3.44,2.94,1261.38,1539.0,0.0,0.0,0.0,0.0
1775764005554531770,24829,0.0,1.3,0.008,0.3,-0.02,-0.14,95.75,-0.0,-9.63,0.7,-0.31,0.23,-1.69,-12.75,1.5,1238.57,1515.0,0.0,0.0,0.0,0.0
1775764005667641634,24930,0.0,1.0,0.0,0.3,0.16,-0.14,96.06,1.19,-9.63,0.23,-0.07,1.07,2.81,-11.19,5.06,1264.47,2052.0,0.0,0.0,0.0,0.0
1775764005751180560,25029,0.0,1.0,0.0,0.2,0.12,-0.12,97.5,0.75,-8.44,-1.42,0.02,0.75,21.25,10.69,18.69,1208.56,2052.0,0.0,0.0,0.0,0.0
1775764005853636690,25128,0.0,0.8,0.0,0.3,-0.12,-0.21,98.62,-0.19,-7.5,-1.37,0.04,0.18,-6.19,4.38,9.0,1214.39,1558.0,0.0,0.0,0.0,0.0
1775764005951922243,25229,0.0,1.0,0.008,0.5,0.06,-0.08,99.75,-0.31,-8.19,-1.87,0.72,0.15,-6.0,-3.81,13.5,1206.33,1558.0,0.0,0.0,0.0,0.0
1775764006054341787,25330,0.0,1.1,0.004,0.3,-0.1,0.04,100.81,0.25,-8.25,-0.74,0.75,-0.04,1.88,-4.75,6.44,1231.71,2463.0,0.0,0.0,0.0,0.0
1775764006156774875,25431,0.0,1.0,0.004,0.2,-0.04,-0.21,101.44,0.12,-8.31,-0.72,0.31,-0.46,-7.25,5.38,5.25,1239.43,2231.0,0.0,0.0,0.0,0.0
1775764006255093797,25532,0.0,1.0,0.04,0.2,0.1,-0.14,101.5,0.5,-7.88,-0.4,0.55,-0.34,1.75,-1.31,-2.31,1233.43,2231.0,0.0,0.0,0.0,0.0
1775764006357509122,25632,0.0,0.9,0.016,0.2,0.04,-0.02,101.25,0.63,-7.69,0.23,0.52,-0.25,-3.38,5.0,-2.38,1222.28,1242.0,0.0,0.0,0.0,0.0
1775764006455824489,25732,0.0,1.1,0.008,0.3,0.1,-0.16,100.75,0.06,-8.63,0.62,0.33,0.06,-7.44,12.06,-6.0,1206.67,1470.0,0.0,0.0,0.0,0.0
1775764006554095123,25832,0.0,0.9,0.016,0.1,0.04,-0.2,99.5,-0.56,-8.88,0.72,0.44,0.54,5.5,8.5,-15.31,1230.86,1470.0,0.0,0.0,0.0,0.0
1775764006656516135,25931,0.0,0.9,0.0,0.4,-0.02,-0.02,97.94,-0.37,-9.06,0.1,0.04,1.01,-0.81,-3.69,-20.12,1247.66,1205.0,0.0,0.0,0.0,0.0
1775764006754879900,26031,0.0,1.0,0.016,0.3,-0.04,-0.18,95.87,0.94,-8.69,-1.92,-0.06,0.85,10.19,-13.38,-21.31,1208.39,1853.0,0.0,0.0,0.0,0.0
1775764007111594821,26132,0.0,0.7,0.0,0.3,0.04,-0.08,94.25,2.19,-8.38,-1.4,-0.63,-0.32,-11.25,-4.56,-12.81,1250.23,1853.0,0.0,0.0,0.0,0.0
1775764007156355945,26231,0.0,0.9,0.0,0.4,-0.14,-0.1,93.69,2.19,-9.38,-0.86,-0.88,0.35,-3.06,5.94,1.94,1241.83,2299.0,0.0,0.0,0.0,0.0
1775764007168723697,26331,0.0,0.9,0.0,0.5,-0.04,-0.04,93.87,1.63,-8.75,-0.64,-0.65,-0.38,5.5,0.69,-1.69,1295.68,2299.0,0.0,0.0,0.0,0.0
1775764007181774379,26431,0.0,0.9,0.02,0.1,-0.1,-0.21,93.69,1.25,-8.25,-0.16,-0.28,-0.28,-1.44,-0.88,1.31,1250.58,1328.0,0.0,0.0,0.0,0.0
1775764007254641054,26530,0.0,1.0,0.048,0.3,-0.08,-0.1,94.37,0.94,-8.38,0.13,-0.31,-0.48,-1.88,-0.56,10.63,1261.55,2313.0,0.0,0.0,0.0,0.0
1775764007357068511,26631,0.0,0.9,0.04,0.2,-0.02,-0.14,95.75,0.56,-8.69,0.53,-0.36,-0.25,-0.19,-0.06,14.44,1259.67,2313.0,0.0,0.0,0.0,0.0
1775764007455445176,26732,0.0,1.0,0.024,0.2,-0.02,-0.08,97.25,0.25,-9.44,0.6,-0.54,0.61,-2.69,-4.69,16.87,1316.61,1537.0,0.0,0.0,0.0,0.0
1775764007553685777,26831,0.0,0.9,0.004,0.4,-0.02,-0.12,98.81,0.19,-8.69,-0.37,-0.08,1.26,18.19,2.56,16.44,1229.31,1722.0,0.0,0.0,0.0,0.0
1775764007656116068,26931,0.0,1.1,0.0,0.3,-0.06,-0.16,100.25,-0.81,-6.81,-1.08,-0.38,0.3,11.13,10.38,12.25,1218.16,1722.0,0.0,0.0,0.0,0.0
1775764007754444797,27031,0.0,0.9,0.004,0.5,0.0,0.02,101.19,-1.25,-7.38,-1.86,0.54,-0.09,-15.31,-2.44,9.5,1238.74,1134.0,0.0,0.0,0.0,0.0
1775764007856881441,27130,0.0,1.1,0.0,0.2,-0.08,-0.12,102.0,-0.88,-8.44,-0.96,0.77,-0.03,-1.5,-7.13,6.38,1258.81,1013.0,0.0,0.0,0.0,0.0
1775764007955204836,27230,0.0,1.0,0.0,0.4,-0.1,-0.14,102.75,-0.56,-8.19,-0.58,0.57,-0.86,-1.81,1.44,9.69,1268.93,1013.0,0.0,0.0,0.0,0.0
1775764008053468479,27330,0.0,1.0,0.008,0.2,-0.02,-0.04,103.5,-0.81,-8.5,-0.37,0.25,-0.35,-3.75,2.13,4.63,1292.25,953.0,0.0,0.0,0.0,0.0
1775764008179599257,27430,0.0,0.8,0.012,0.5,0.0,0.02,103.44,-0.69,-8.5,0.15,0.57,-0.28,-5.31,3.38,-4.5,1250.06,782.0,0.0,0.0,0.0,0.0
1775764008254253212,27530,0.0,1.1,0.04,0.0,-0.04,-0.18,102.69,-1.31,-9.38,0.43,0.38,0.94,-7.31,10.88,-9.56,1271.16,782.0,0.0,0.0,0.0,0.0
1775764008356650106,27630,0.0,0.9,0.004,0.2,0.1,-0.18,101.44,-1.94,-9.94,0.31,0.11,0.42,-9.56,7.5,-17.0,1234.8,1709.0,0.0,0.0,0.0,0.0
1775764008455005587,27730,0.0,0.9,0.032,0.0,0.04,-0.08,99.12,-1.37,-11.38,-1.37,0.14,1.13,-8.44,-15.75,-32.44,1302.03,1709.0,0.0,0.0,0.0,0.0
1775764008557363085,27831,0.0,0.6,0.016,0.3,0.1,-0.14,96.37,0.69,-11.31,-1.84,0.03,-0.14,3.38,-10.63,-23.12,1249.38,1796.0,0.0,0.0,0.0,0.0
1775764008655714807,27930,0.0,1.1,0.0,0.5,-0.04,-0.18,94.69,1.19,-11.38,-0.76,-0.62,0.33,1.12,5.25,-11.13,1319.01,2127.0,0.0,0.0,0.0,0.0
1775764008754047135,28029,0.0,1.1,0.0,0.8,0.12,-0.04,93.81,1.0,-10.75,-0.75,-0.37,-0.49,5.94,0.37,-6.88,1283.68,2127.0,0.0,0.0,0.0,0.0
1775764008856460329,28130,0.0,1.0,0.0,0.4,-0.16,-0.16,93.69,0.81,-10.25,-0.17,-0.16,-0.42,2.13,0.88,4.38,1261.38,2288.0,0.0,0.0,0.0,0.0
1775764008954776599,28230,0.0,1.0,0.0,0.6,0.14,-0.18,94.19,0.75,-9.88,0.12,-0.39,-0.45,5.25,-2.63,6.5,1242.17,2105.0,0.0,0.0,0.0,0.0
1775764009059123504,28329,0.0,1.0,0.0,0.3,0.04,-0.12,95.25,0.81,-9.81,0.4,-0.31,-0.1,0.75,-5.88,14.25,11985.45,1190.0,0.0,0.0,0.0,0.0
1775764009155537093,28429,0.0,1.0,0.004,0.3,0.06,0.04,97.0,0.63,-10.31,0.41,-0.49,0.36,-0.94,-4.56,17.06,1278.7,1190.0,0.0,0.0,0.0,0.0
1775764009253805191,28528,0.0,1.0,0.04,0.2,0.04,-0.12,98.44,1.0,-9.94,0.14,-0.49,1.36,11.81,-5.81,15.06,1223.14,1190.0,0.0,0.0,0.0,0.0
1775764009352151524,28627,0.0,0.9,0.02,0.2,-0.02,-0.2,100.25,0.63,-8.06,-0.94,-0.11,0.45,20.62,6.56,17.94,1219.19,2053.0,0.0,0.0,0.0,0.0
1775764009454569715,28727,0.0,0.9,0.016,0.4,-0.06,-0.2,101.44,-0.37,-7.13,-2.34,0.12,0.02,2.25,9.81,5.38,1262.75,2527.0,0.0,0.0,0.0,0.0
1775764009552869188,28827,0.0,1.0,0.016,0.6,-0.16,-0.12,101.12,-0.69,-6.63,-1.07,0.34,-0.19,3.06,-0.5,-10.31,1259.84,2527.0,0.0,0.0,0.0,0.0
1775764009651122505,28926,0.0,0.9,0.004,0.5,-0.12,0.0,100.12,-0.12,-6.19,-0.11,0.17,-0.39,3.5,-5.81,-10.56,1355.54,1573.0,0.0,0.0,0.0,0.0
1775764009753573998,29027,0.0,0.7,0.012,0.2,-0.1,-0.04,98.75,1.06,-6.0,-0.36,0.54,-0.17,-1.75,-14.88,-19.62,1228.45,2904.0,0.0,0.0,0.0,0.0
1775764009851929592,29127,0.0,1.1,0.0,0.3,0.0,-0.04,97.0,2.38,-6.13,-0.13,0.91,-0.1,-3.13,-3.06,-14.31,1257.61,2904.0,0.0,0.0,0.0,0.0
1775764009954338873,29227,0.0,1.0,0.004,0.4,-0.04,-0.23,95.62,3.44,-6.88,0.14,1.15,-0.18,-15.63,8.06,-11.19,1218.85,2093.0,0.0,0.0,0.0,0.0
1775764010064660521,29328,0.0,0.7,0.0,0.1,0.0,-0.16,94.81,3.38,-8.5,0.33,0.59,0.16,-10.31,18.81,-1.31,11986.48,843.0,0.0,0.0,0.0,0.0
1775764010155079496,29428,0.0,0.9,0.0,0.5,0.04,-0.16,94.31,2.06,-8.94,-0.67,-0.22,0.82,3.31,4.31,-9.88,1322.44,843.0,0.0,0.0,0.0,0.0
1775764010253373966,29528,0.0,0.7,0.052,0.5,0.14,-0.12,93.75,2.5,-7.81,-1.33,-0.59,0.9,12.94,-8.31,2.94,1244.06,2036.0,0.0,0.0,0.0,0.0
1775764010355793761,29628,0.0,0.7,0.036,0.4,-0.12,-0.08,94.06,2.44,-6.69,-1.61,-1.0,-0.36,6.19,10.19,2.31,1246.46,880.0,0.0,0.0,0.0,0.0
1775764010454118959,29727,0.0,0.9,0.028,0.3,-0.04,-0.04,94.44,1.19,-6.19,-0.42,-0.93,-0.18,5.88,11.94,6.69,1250.75,880.0,0.0,0.0,0.0,0.0
1775764010556491116,29827,0.0,0.7,0.016,0.1,0.04,-0.1,95.44,0.06,-6.31,-0.22,-0.59,-0.49,-9.13,6.63,15.31,1243.55,1999.0,0.0,0.0,0.0,0.0
1775764010654817795,29928,0.0,1.1,0.004,0.5,-0.02,-0.06,97.12,-0.88,-6.81,-0.06,-0.29,-0.45,-3.25,3.06,18.06,1236.34,1999.0,0.0,0.0,0.0,0.0
1775764010757265206,30028,0.0,1.0,0.0,0.3,0.02,-0.1,98.81,-1.06,-6.81,0.7,-0.85,-0.52,1.5,-4.69,17.75,1276.3,862.0,0.0,0.0,0.0,0.0
1775764010855592033,30129,0.0,0.9,0.0,0.5,-0.04,-0.02,100.75,-0.0,-6.75,0.26,-0.8,0.0,-1.0,-20.44,20.31,1248.86,1586.0,0.0,0.0,0.0,0.0
1775764010953897005,30228,0.0,0.9,0.0,0.3,0.1,-0.1,102.81,1.88,-6.81,0.58,-0.71,0.94,3.38,-20.81,20.44,1222.62,1586.0,0.0,0.0,0.0,0.0
1775764011056302955,30327,0.0,1.0,0.0,0.1,0.04,0.02,104.75,2.81,-6.0,-0.57,-0.41,0.22,12.88,-3.75,17.62,1226.91,1908.0,0.0,0.0,0.0,0.0
1775764011154631016,30427,0.0,0.9,0.004,0.4,-0.21,-0.12,105.62,2.38,-4.25,-1.3,0.22,0.25,23.62,3.13,-1.06,1210.1,1534.0,0.0,0.0,0.0,0.0
1775764011252933201,30527,0.0,1.1,0.036,0.2,-0.1,-0.1,104.87,2.44,-2.63,-1.45,0.81,-0.47,2.69,-4.5,-8.19,1231.71,1534.0,0.0,0.0,0.0,0.0
1775764011355360856,30626,0.0,1.0,0.024,0.2,0.06,-0.12,104.75,3.31,-3.19,-0.64,0.95,0.38,-6.69,-13.63,5.56,1223.82,1379.0,0.0,0.0,0.0,0.0
1775764011453626092,30727,0.0,0.9,0.02,0.1,0.04,-0.12,105.25,4.19,-3.31,-0.35,0.69,-0.19,2.81,-0.5,0.44,1217.31,1379.0,0.0,0.0,0.0,0.0
1775764011556031855,30827,0.0,0.8,0.008,0.5,0.0,-0.12,105.12,3.69,-3.38,0.02,0.11,-0.31,-3.5,7.94,-3.13,1202.04,886.0,0.0,0.0,0.0,0.0
1775764011654367212,30927,0.0,1.0,0.004,0.5,-0.02,-0.08,104.25,3.19,-3.75,0.16,0.13,-0.26,-5.38,5.25,-17.5,1199.3,1213.0,0.0,0.0,0.0,0.0
1775764011756813648,31028,0.0,1.2,0.0,0.2,-0.02,-0.08,101.81,3.0,-4.56,-0.54,0.18,0.21,-19.19,3.19,-35.31,1212.68,1213.0,0.0,0.0,0.0,0.0
1775764011855113278,31129,0.0,1.0,0.0,0.2,0.0,-0.16,97.62,3.69,-6.13,-2.48,-0.97,2.03,-12.5,-17.75,-46.88,1218.51,2044.0,0.0,0.0,0.0,0.0
1775764011957530746,31228,0.0,1.1,0.004,0.6,0.08,-0.16,94.31,5.63,-5.31,-0.72,-0.22,-0.03,16.06,-8.13,-25.06,1205.3,1677.0,0.0,0.0,0.0,0.0
1775764012055903830,31328,0.0,0.9,0.004,0.1,0.0,-0.12,92.06,6.06,-3.63,-1.44,-0.39,0.51,9.94,0.88,-18.12,1247.66,1677.0,0.0,0.0,0.0,0.0
1775764012164201020,31428,0.0,0.9,0.008,0.5,-0.12,0.02,91.19,5.56,-3.31,-1.48,-0.47,-0.19,-6.44,10.0,-0.12,1204.62,1656.0,0.0,0.0,0.0,0.0
1775764012256573668,31528,0.0,0.6,0.032,0.3,0.06,-0.16,91.25,4.44,-3.0,-0.24,-0.62,-0.07,0.75,2.69,2.44,1196.38,1384.0,0.0,0.0,0.0,0.0
1775764012354850724,31628,0.0,1.0,0.024,0.5,0.1,-0.06,92.06,4.0,-2.69,-0.43,-0.54,0.35,2.31,-2.56,15.88,1230.34,1384.0,0.0,0.0,0.0,0.0
1775764012457299272,31728,0.0,1.1,0.02,0.3,0.0,-0.02,94.19,3.69,-2.38,-0.94,-0.07,0.3,3.81,3.0,22.5,1201.7,1003.0,0.0,0.0,0.0,0.0
1775764012555585682,31827,0.0,0.9,0.016,0.2,0.02,-0.06,96.06,3.19,-1.69,-0.45,0.07,-0.12,-5.69,7.25,18.69,1201.87,1180.0,0.0,0.0,0.0,0.0
1775764012663944492,31927,0.0,1.0,0.008,0.5,-0.06,-0.12,98.06,2.56,-2.31,0.19,0.36,0.04,-3.56,4.56,19.81,1228.8,1180.0,0.0,0.0,0.0,0.0
1775764012756345255,32027,0.0,1.0,0.0,0.1,0.0,-0.25,99.31,2.5,-2.5,0.45,0.48,0.22,0.44,1.37,6.31,1235.83,1306.0,0.0,0.0,0.0,0.0
1775764012854623330,32128,0.0,1.0,0.004,0.4,0.06,-0.14,99.31,2.31,-2.75,-0.19,0.34,0.05,-6.06,2.31,-4.56,1261.9,1306.0,0.0,0.0,0.0,0.0
1775764012957088714,32228,0.0,1.1,0.0,0.5,-0.12,0.04,98.31,2.5,-3.06,-0.18,0.08,0.06,-2.69,-0.94,-13.06,1240.29,1439.0,0.0,0.0,0.0,0.0
1775764013055343472,32328,0.0,1.1,0.004,0.5,0.14,-0.16,97.69,2.38,-3.13,-0.02,0.06,-0.22,-2.94,5.19,-1.31,1235.31,2161.0,0.0,0.0,0.0,0.0
1775764013157784662,32429,0.0,0.9,0.004,0.3,-0.04,-0.16,97.19,1.69,-3.56,0.01,-0.21,0.04,-3.13,7.0,-8.63,1246.29,2161.0,0.0,0.0,0.0,0.0
1775764013260258301,32530,0.0,1.0,0.048,0.6,-0.02,-0.18,96.12,1.31,-3.63,-0.09,-0.17,0.06,-2.25,1.25,-11.81,1295.0,1578.0,0.0,0.0,0.0,0.0
1775764013358508369,32629,0.0,1.1,0.028,0.5,-0.06,0.02,95.06,1.25,-4.06,-0.2,0.02,0.25,-8.0,1.63,-9.38,1281.62,754.0,0.0,0.0,0.0,0.0
1775764013456827816,32729,0.0,1.0,0.02,0.5,0.12,-0.1,94.19,1.12,-5.0,-0.03,0.02,0.0,-11.88,1.25,-8.63,1273.22,754.0,0.0,0.0,0.0,0.0
1775764013559194515,32829,0.0,1.1,0.012,0.2,-0.06,-0.02,93.5,1.19,-5.94,0.09,0.04,-0.18,-7.69,0.37,-5.75,1266.53,2912.0,0.0,0.0,0.0,0.0
1775764013657524668,32928,0.0,1.0,0.004,0.3,0.0,-0.27,93.19,1.12,-6.31,0.01,-0.04,-0.15,-0.75,0.88,-1.69,1284.02,2912.0,0.0,0.0,0.0,0.0
1775764013755840707,33028,0.0,1.0,0.004,0.1,0.04,-0.1,93.06,1.06,-6.25,-0.08,-0.06,0.23,0.94,0.5,-0.56,1275.62,1503.0,0.0,0.0,0.0,0.0
1775764013858278768,33128,0.0,0.7,0.0,0.2,0.02,-0.14,93.12,1.0,-6.38,0.03,-0.01,0.29,-4.38,2.69,0.75,1269.79,1512.0,0.0,0.0,0.0,0.0
1775764013956592603,33227,0.0,1.0,0.004,0.2,-0.02,-0.06,93.19,0.69,-6.88,-0.05,-0.09,-0.11,-5.44,2.0,0.88,1282.82,1512.0,0.0,0.0,0.0,0.0
1775764014054883324,33327,0.0,0.9,0.0,0.4,-0.12,-0.12,93.31,0.56,-7.31,0.13,-0.01,-0.08,-1.81,1.19,1.69,1283.68,1448.0,0.0,0.0,0.0,0.0
1775764014157312537,33427,0.0,1.0,0.004,0.2,-0.06,-0.12,93.44,0.37,-7.44,0.24,-0.06,0.01,1.69,2.06,2.25,1296.54,358.0,0.0,0.0,0.0,0.0
1775764014255633232,33526,0.0,1.0,0.04,0.4,0.0,-0.12,93.62,0.19,-7.25,0.13,-0.03,-0.06,1.0,1.63,1.12,1286.94,358.0,0.0,0.0,0.0,0.0
1775764014358010142,33627,0.0,1.0,0.028,0.6,-0.12,-0.18,93.56,-0.0,-7.19,0.12,-0.09,0.06,2.19,1.5,-1.69,1293.8,1890.0,0.0,0.0,0.0,0.0
1775764014456320354,33728,0.0,0.7,0.02,0.4,0.08,-0.18,93.5,-0.0,-7.0,0.17,-0.04,0.15,1.88,0.31,0.12,1283.68,1408.0,0.0,0.0,0.0,0.0
1775764014558728953,33828,0.0,1.2,0.0,0.5,-0.02,-0.16,93.5,-0.0,-6.94,0.02,-0.04,0.17,0.56,-0.81,-0.63,1292.08,1408.0,0.0,0.0,0.0,0.0
1775764014657046870,33929,0.0,0.8,0.012,0.3,-0.06,-0.16,93.44,0.06,-6.94,0.14,-0.13,-0.03,-0.25,-1.0,-0.63,1287.79,318.0,0.0,0.0,0.0,0.0
1775764014759486584,34028,0.0,1.0,0.0,0.2,0.0,-0.14,93.31,0.12,-6.88,0.02,-0.06,-0.08,2.13,-1.5,-0.81,1281.62,2999.0,0.0,0.0,0.0,0.0
1775764014857794018,34128,0.0,0.6,0.0,0.3,-0.04,-0.12,93.31,0.31,-6.63,0.04,0.03,0.05,1.88,-0.69,-0.06,1281.45,2999.0,0.0,0.0,0.0,0.0
1775764014960198413,34229,0.0,0.7,0.0,0.3,-0.08,-0.06,93.31,0.25,-6.5,-0.02,-0.05,0.0,1.63,0.88,-0.37,1301.51,1722.0,0.0,0.0,0.0,0.0
1775764015058515542,34328,0.0,0.7,0.0,0.1,0.14,-0.1,93.25,0.25,-6.31,0.0,-0.06,0.06,2.88,-1.12,-1.37,1278.7,1722.0,0.0,0.0,0.0,0.0
1775764015156824769,34427,0.0,0.8,0.016,0.6,-0.06,-0.23,93.19,0.37,-6.0,-0.03,0.06,0.14,2.44,-0.75,-0.81,1264.81,2246.0,0.0,0.0,0.0,0.0
1775764015259239053,34527,0.0,1.0,0.04,0.2,0.16,-0.21,93.19,0.37,-5.88,-0.01,-0.0,0.04,1.06,-0.31,-0.12,1267.04,1654.0,0.0,0.0,0.0,0.0
1775764015357552446,34627,0.0,1.0,0.02,0.6,-0.02,-0.06,93.19,0.37,-5.75,0.09,0.02,0.0,1.81,-0.75,0.25,1265.84,1654.0,0.0,0.0,0.0,0.0
1775764015455865636,34726,0.0,1.0,0.012,0.4,-0.06,-0.08,93.19,0.37,-5.5,0.01,0.01,-0.02,2.44,-0.0,0.44,1282.99,980.0,0.0,0.0,0.0,0.0
1775764015554095224,34826,0.0,0.7,0.004,0.3,0.04,0.02,93.19,0.37,-5.38,0.11,-0.0,0.04,0.81,-0.19,-0.25,1284.88,651.0,0.0,0.0,0.0,0.0
1775764015656546290,34925,0.0,0.7,0.012,0.5,-0.14,-0.14,93.19,0.37,-5.38,0.11,0.01,0.04,-1.5,-0.44,0.06,1277.67,651.0,0.0,0.0,0.0,0.0
1775764015754927803,35025,0.036,0.4,0.0,1.5,-0.04,-0.2,93.19,0.44,-5.63,0.29,0.03,-0.08,-0.81,-1.06,-0.69,1259.84,2279.0,0.0,0.0,0.0,0.0
1775764015857308712,35126,0.0,1.3,0.004,0.2,0.06,-0.1,93.12,0.5,-5.63,0.18,-0.01,-0.08,2.38,-0.75,-0.06,1278.7,2279.0,0.0,0.0,0.0,0.0
1775764015959724347,35227,0.0,1.4,0.0,0.3,-0.23,-0.21,93.19,0.56,-5.5,0.5,-0.14,-0.09,3.69,-1.69,-0.5,1270.47,943.0,0.0,0.0,0.0,0.0
1775764016058010584,35328,0.0,1.6,0.016,0.5,-0.1,-0.18,92.94,0.88,-5.25,0.16,-0.08,-0.11,6.56,-4.75,-5.69,1281.45,862.0,0.0,0.0,0.0,0.0
1775764016166391693,35428,0.0,1.4,0.02,0.5,-0.04,-0.14,92.5,1.31,-4.81,-0.44,0.14,-0.23,3.88,-2.5,-2.25,1286.08,862.0,0.0,0.0,0.0,0.0
1775764016258741644,35527,0.0,1.3,0.04,0.3,-0.14,-0.1,92.56,1.44,-4.44,0.12,0.03,-0.94,3.25,0.69,2.69,1255.38,1771.0,0.0,0.0,0.0,0.0
1775764016357075156,35627,0.0,1.3,0.048,0.3,0.08,-0.14,93.06,1.44,-4.06,0.15,0.06,-1.52,4.0,-0.81,7.06,1206.5,788.0,0.0,0.0,0.0,0.0
1775764016459486854,35728,0.0,1.4,0.04,0.2,-0.02,-0.16,93.87,1.19,-3.75,-0.34,0.33,-1.33,5.13,5.0,10.38,1200.67,788.0,0.0,0.0,0.0,0.0
1775764016557733152,35828,0.0,1.4,0.02,0.2,-0.18,-0.25,95.12,0.75,-3.13,-0.44,-0.02,-1.42,6.63,-0.69,14.56,1135.67,2451.0,0.0,0.0,0.0,0.0
1775764016660140072,35928,0.0,1.3,0.012,0.2,0.0,-0.14,96.56,1.37,-2.25,-0.37,0.06,-1.02,7.56,-14.44,15.38,1105.32,834.0,0.0,0.0,0.0,0.0
1775764016758494345,36028,0.0,1.3,0.024,0.5,-0.14,-0.16,98.25,3.06,-1.5,-0.47,0.53,-0.43,7.0,-18.25,16.12,968.63,834.0,0.0,0.0,0.0,0.0
1775764016860895746,36128,0.0,1.4,0.02,0.3,0.04,-0.21,99.31,3.88,-0.69,-0.19,0.53,-0.36,8.63,2.13,6.0,874.14,986.0,0.0,0.0,0.0,0.0
1775764016959234147,36228,0.0,1.2,0.02,0.3,0.12,-0.14,99.62,2.56,0.06,-0.38,0.19,-0.24,8.38,20.0,1.88,775.69,986.0,0.0,0.0,0.0,0.0
1775764017061620254,36329,0.0,1.3,0.012,0.3,0.2,-0.08,99.87,0.75,0.75,-0.27,-0.4,-0.04,4.63,14.88,4.69,711.04,1074.0,0.0,0.0,0.0,0.0
1775764017159926905,36429,0.0,1.2,0.028,0.3,-0.06,-0.06,100.44,0.31,0.75,-0.22,-0.61,0.94,-4.25,-0.69,6.0,645.87,1023.0,0.0,0.0,0.0,0.0
1775764017262326524,36529,0.0,1.2,0.048,0.3,0.0,-0.14,100.94,0.31,0.06,0.0,0.82,1.87,-9.38,2.31,4.75,533.88,1023.0,0.0,0.0,0.0,0.0
1775764017360641639,36629,0.0,1.3,0.032,0.4,0.08,-0.06,101.12,-0.56,-0.31,0.45,0.31,0.84,1.69,12.19,-0.31,487.06,711.0,0.0,0.0,0.0,0.0
1775764017459027113,36728,0.0,1.3,0.024,0.3,0.04,-0.21,100.69,-1.44,0.31,0.11,0.1,0.99,11.44,2.0,-6.0,11983.91,582.0,0.0,0.0,0.0,0.0
1775764017563163908,36828,0.0,1.4,0.016,0.5,-0.04,-0.12,100.12,-1.19,1.5,-0.22,-0.42,0.95,13.06,-4.56,-6.69,11983.73,397.0,0.0,0.0,0.0,0.0
1775764017661690433,36928,0.0,1.4,0.004,0.5,-0.1,-0.18,99.56,-0.31,2.25,-0.39,-0.04,0.64,1.56,-8.19,-3.13,11983.91,397.0,0.0,0.0,0.0,0.0
1775764017762080109,37028,0.0,1.4,0.008,0.3,-0.14,-0.2,99.69,0.25,2.38,-0.16,-0.0,0.46,-4.0,-5.44,4.81,318.3,334.0,0.0,0.0,0.0,0.0
1775764017862316214,37129,0.0,1.4,0.0,0.5,0.12,-0.12,100.19,-0.0,2.0,-0.08,0.19,0.22,-3.75,13.13,4.69,11982.7,276.0,0.0,0.0,0.0,0.0
1775764017970694382,37229,0.0,1.4,0.004,0.3,0.0,0.02,100.56,-1.37,1.56,-0.41,-0.3,0.54,-5.19,16.37,2.63,11982.7,276.0,0.0,0.0,0.0,0.0
1775764018063009142,37329,0.0,1.3,0.004,0.3,0.04,-0.04,100.62,-2.88,1.0,-0.22,-0.34,0.24,-7.25,10.94,-3.44,11981.85,238.0,0.0,0.0,0.0,0.0
1775764018163558354,37429,0.0,1.3,0.02,0.2,0.0,-0.21,100.19,-3.38,0.25,0.45,-0.56,0.6,-4.5,-3.44,-4.63,250.56,238.0,0.0,0.0,0.0,0.0
1775764018263736623,37529,0.0,1.5,0.04,0.3,0.04,-0.14,100.0,-2.5,0.56,0.24,0.27,-0.84,10.19,-9.5,2.38,11983.22,214.0,0.0,0.0,0.0,0.0
1775764018360197695,37629,0.0,1.2,0.036,0.2,-0.1,-0.16,100.12,-1.75,1.94,-0.7,0.04,0.15,14.06,-6.63,0.44,11981.68,203.0,0.0,0.0,0.0,0.0
1775764018462567243,37729,0.0,1.5,0.024,0.3,0.08,-0.16,100.19,-1.12,2.5,-0.8,0.81,0.25,-0.12,-1.25,1.94,11982.88,203.0,0.0,0.0,0.0,0.0
1775764018562681488,37829,0.0,1.3,0.028,0.2,-0.06,-0.12,100.31,-1.44,2.56,-0.17,-0.31,0.26,-1.06,4.38,0.12,11983.39,189.0,0.0,0.0,0.0,0.0
1775764018665160268,37929,0.0,1.3,0.016,0.1,0.06,-0.06,100.31,-1.69,2.38,0.24,-0.09,0.02,-0.63,0.56,0.0,11982.7,200.0,0.0,0.0,0.0,0.0
1775764018763578170,38029,0.0,1.4,0.008,0.7,-0.02,-0.02,100.31,-1.63,2.5,-0.08,0.2,0.06,1.37,-1.19,0.19,11982.53,200.0,0.0,0.0,0.0,0.0
1775764018871901328,38129,0.0,1.3,0.016,0.3,0.04,-0.06,100.31,-1.56,2.5,0.02,0.04,0.03,-0.5,0.75,0.0,11983.73,197.0,0.0,0.0,0.0,0.0
1775764018970175328,38230,0.0,1.5,0.0,0.1,-0.04,-0.04,100.31,-1.56,2.5,0.0,0.07,0.0,0.44,-0.25,0.0,11981.33,202.0,0.0,0.0,0.0,0.0
1775764019064739847,38330,0.0,1.2,0.0,0.5,0.04,-0.08,100.31,-1.56,2.5,0.0,0.07,0.0,-0.19,0.12,-0.06,11980.65,202.0,0.0,0.0,0.0,0.0
1775764019164859825,38430,0.0,1.3,0.024,0.2,0.0,-0.04,100.31,-1.56,2.5,-0.01,0.06,0.0,0.12,-0.06,-0.06,11977.22,196.0,0.0,0.0,0.0,0.0
1775764019263289215,38530,0.0,1.4,0.04,0.4,-0.04,-0.1,100.31,-1.56,2.5,0.0,0.05,0.02,-0.12,0.19,0.0,11981.5,196.0,0.0,0.0,0.0,0.0
1775764019363665456,38630,0.0,1.4,0.028,0.4,0.04,-0.23,100.31,-1.56,2.5,0.0,0.05,0.01,0.06,-0.0,0.0,11983.91,192.0,0.0,0.0,0.0,0.0
1775764019461978595,38730,0.0,1.4,0.016,0.1,0.0,-0.16,100.31,-1.5,2.5,0.0,0.05,0.0,-0.12,-0.0,-0.19,11981.5,190.0,0.0,0.0,0.0,0.0
1775764019564377787,38830,0.0,1.4,0.016,0.5,0.04,-0.08,100.31,-1.5,2.5,0.0,0.05,0.0,-0.0,-0.0,0.06,11984.08,190.0,0.0,0.0,0.0,0.0
1775764019664630851,38930,0.0,1.1,0.016,0.1,0.0,-0.1,100.31,-1.5,2.5,0.0,0.05,0.02,-0.12,0.12,0.0,11981.68,195.0,0.0,0.0,0.0,0.0
1775764019773111322,39030,0.0,1.1,0.004,0.1,0.0,-0.12,100.31,-1.5,2.5,0.0,0.04,0.02,0.06,0.12,0.0,11983.73,204.0,0.0,0.0,0.0,0.0
1775764019865440172,39130,0.0,1.0,0.016,0.1,-0.08,-0.1,100.31,-1.5,2.5,0.0,0.06,0.01,-0.06,0.06,0.0,11984.59,204.0,0.0,0.0,0.0,0.0
1775764019973771482,39230,0.0,0.9,0.016,0.2,0.0,-0.16,100.31,-1.5,2.5,-0.01,0.06,0.0,-0.0,-0.0,0.06,11982.88,199.0,0.0,0.0,0.0,0.0
1775764020066076754,39330,0.0,1.1,0.0,0.2,-0.06,0.02,100.31,-1.5,2.5,-0.01,0.04,0.02,-0.06,0.19,0.06,11979.1,199.0,0.0,0.0,0.0,0.0
1775764020164436501,39430,0.0,1.1,0.008,0.6,-0.04,-0.12,100.31,-1.5,2.5,-0.02,0.04,0.0,-0.06,-0.12,0.0,11979.62,199.0,0.0,0.0,0.0,0.0
1775764020266777354,39530,0.0,1.0,0.036,0.0,0.06,-0.08,100.31,-1.5,2.5,0.0,0.04,0.0,-0.12,-0.19,-0.12,11982.53,193.0,0.0,0.0,0.0,0.0
1775764020363239248,39630,0.0,1.1,0.024,0.6,-0.02,-0.14,100.31,-1.5,2.5,0.0,0.06,0.0,-0.12,0.06,0.0,11980.99,199.0,0.0,0.0,0.0,0.0
1775764020471485506,39730,0.0,1.0,0.024,0.5,-0.02,-0.21,100.31,-1.5,2.5,0.0,0.07,0.0,0.06,-0.12,0.06,11979.62,199.0,0.0,0.0,0.0,0.0
1775764020565780028,39830,0.0,1.1,0.012,0.5,-0.08,-0.1,100.31,-1.5,2.5,-0.02,0.06,0.0,-0.12,-0.06,0.0,11978.07,194.0,0.0,0.0,0.0,0.0
1775764020668295562,39930,0.0,0.9,0.0,0.2,-0.18,-0.04,100.31,-1.5,2.5,0.0,0.06,-0.02,-0.06,-0.06,-0.12,11980.13,194.0,0.0,0.0,0.0,0.0
1775764020766506074,40030,0.0,1.1,0.012,0.1,0.02,-0.08,100.31,-1.5,2.5,-0.01,0.04,-0.02,-0.12,-0.12,0.0,11980.99,192.0,0.0,0.0,0.0,0.0
1775764020864817520,40130,0.0,1.1,0.004,0.5,0.14,-0.14,100.31,-1.5,2.5,0.0,0.07,0.0,-0.12,0.12,0.06,11980.3,192.0,0.0,0.0,0.0,0.0
1775764020967306329,40230,0.0,1.0,0.012,0.5,0.04,-0.1,100.31,-1.5,2.5,-0.01,0.06,0.0,-0.12,0.12,0.0,11979.96,192.0,0.0,0.0,0.0,0.0
1775764021065542797,40330,0.0,0.9,0.0,0.4,-0.12,-0.08,100.31,-1.5,2.5,-0.01,0.06,-0.01,-0.06,-0.12,-0.06,11979.27,192.0,0.0,0.0,0.0,0.0
1775764021173950196,40430,0.0,0.9,0.016,0.4,0.02,-0.06,100.31,-1.5,2.5,-0.02,0.07,0.0,0.06,-0.12,0.06,11975.84,198.0,0.0,0.0,0.0,0.0
1775764021272222117,40530,0.0,1.0,0.052,0.4,0.02,-0.1,100.31,-1.5,2.5,0.0,0.05,-0.01,0.12,-0.19,0.0,11978.42,198.0,0.0,0.0,0.0,0.0
1775764021362635242,40630,0.0,1.0,0.024,0.6,-0.04,0.0,100.31,-1.5,2.5,-0.02,0.05,-0.02,0.12,-0.06,0.0,11976.19,198.0,0.0,0.0,0.0,0.0
1775764021465003657,40730,0.0,1.1,0.02,0.5,-0.06,-0.21,100.31,-1.5,2.5,-0.01,0.05,-0.02,0.19,0.06,0.0,240.27,198.0,0.0,0.0,0.0,0.0
1775764021565233773,40829,0.0,0.6,0.028,0.3,-0.08,-0.14,100.31,-1.5,2.5,-0.01,0.07,0.0,0.06,0.06,-0.06,11977.9,196.0,0.0,0.0,0.0,0.0
1775764021673707232,40929,0.0,1.1,0.008,0.5,-0.04,-0.02,100.31,-1.5,2.5,0.01,0.04,0.01,-0.0,0.06,-0.06,11977.22,200.0,0.0,0.0,0.0,0.0
1775764021766064235,41029,0.0,1.0,0.008,0.6,-0.16,0.06,100.31,-1.5,2.5,-0.02,0.06,-0.02,-0.0,-0.0,0.12,11977.39,200.0,0.0,0.0,0.0,0.0
1775764021864297468,41129,0.0,1.1,0.008,0.1,-0.08,-0.12,100.31,-1.5,2.5,-0.01,0.06,0.0,-0.12,0.12,0.0,11979.79,195.0,0.0,0.0,0.0,0.0
1775764021966678551,41229,0.0,1.0,0.004,0.3,0.08,-0.06,100.31,-1.5,2.5,-0.01,0.06,0.04,-0.06,-0.12,0.0,11979.1,196.0,0.0,0.0,0.0,0.0
1775764022065060080,41329,0.0,0.9,0.004,0.2,-0.06,-0.14,100.31,-1.5,2.5,-0.01,0.07,0.02,-0.0,0.06,0.0,11979.45,196.0,0.0,0.0,0.0,0.0
1775764022167410151,41430,0.0,1.1,0.028,0.5,-0.06,-0.14,100.31,-1.5,2.5,-0.02,0.05,0.01,-0.06,0.06,0.06,11979.45,195.0,0.0,0.0,0.0,0.0
1775764022265727410,41530,0.0,0.9,0.044,0.2,-0.06,0.04,100.31,-1.5,2.5,0.0,0.05,0.02,-0.12,0.19,-0.12,11979.27,200.0,0.0,0.0,0.0,0.0
1775764022366222085,41630,0.0,1.0,0.028,0.3,-0.06,-0.08,100.31,-1.5,2.5,-0.03,0.06,0.0,0.06,0.06,0.0,11979.45,200.0,0.0,0.0,0.0,0.0
1775764022464547992,41730,0.0,1.1,0.024,0.3,-0.04,-0.12,100.31,-1.5,2.5,0.0,0.06,0.0,-0.0,-0.06,0.0,11979.62,198.0,0.0,0.0,0.0,0.0
1775764022568775869,41830,0.0,1.2,0.012,0.6,0.0,-0.14,100.31,-1.5,2.5,-0.02,0.06,0.02,-0.06,0.12,0.06,11979.45,191.0,0.0,0.0,0.0,0.0
1775764022667178633,41930,0.0,1.2,0.012,0.5,-0.06,0.02,100.31,-1.5,2.5,0.0,0.06,0.0,-0.0,-0.0,0.0,11980.13,191.0,0.0,0.0,0.0,0.0
1775764022769523352,42031,0.0,1.1,0.012,0.6,0.1,-0.1,100.31,-1.5,2.5,0.0,0.05,0.0,-0.0,0.12,0.0,11979.27,194.0,0.0,0.0,0.0,0.0
1775764022867867260,42131,0.0,1.1,0.0,0.5,-0.1,-0.1,100.31,-1.5,2.5,0.0,0.07,0.01,-0.12,-0.06,0.0,11980.82,194.0,0.0,0.0,0.0,0.0
1775764022970224795,42231,0.0,1.0,0.008,0.5,0.0,-0.16,100.31,-1.5,2.5,0.0,0.06,0.01,-0.06,0.06,0.0,11979.27,198.0,0.0,0.0,0.0,0.0
1775764023068571339,42331,0.0,1.1,0.004,0.2,0.08,-0.2,100.31,-1.5,2.5,0.0,0.05,0.0,-0.0,-0.19,0.0,11977.9,198.0,0.0,0.0,0.0,0.0
1775764023169040297,42431,0.0,0.9,0.024,0.6,0.08,-0.06,100.31,-1.5,2.5,0.0,0.06,0.0,-0.0,-0.0,0.06,11980.82,198.0,0.0,0.0,0.0,0.0
1775764023269274724,42531,0.0,1.1,0.048,0.2,0.0,-0.16,100.31,-1.5,2.5,-0.02,0.07,0.0,-0.0,-0.0,0.06,11980.99,204.0,0.0,0.0,0.0,0.0
1775764023365690932,42631,0.0,1.0,0.028,0.3,0.08,-0.12,100.31,-1.5,2.5,0.0,0.04,0.04,-0.06,-0.06,0.0,11978.42,196.0,0.0,0.0,0.0,0.0
1775764023468051110,42731,0.0,0.7,0.028,0.2,-0.12,-0.21,100.31,-1.5,2.5,0.0,0.05,0.03,0.12,-0.06,0.06,11979.1,196.0,0.0,0.0,0.0,0.0
1775764023572372344,42831,0.0,1.0,0.02,0.1,-0.04,-0.1,100.31,-1.5,2.5,0.0,0.06,0.0,-0.0,-0.0,0.19,11981.33,196.0,0.0,0.0,0.0,0.0
1775764023666654820,42931,0.0,1.0,0.008,0.4,-0.1,-0.08,100.31,-1.5,2.5,-0.01,0.05,0.02,0.06,0.12,0.0,11977.9,196.0,0.0,0.0,0.0,0.0
1775764023774969634,43030,0.0,1.1,0.004,0.2,0.06,-0.25,100.31,-1.5,2.5,0.0,0.06,0.0,-0.0,-0.12,0.12,11978.93,200.0,0.0,0.0,0.0,0.0
1775764023867321517,43130,0.0,1.5,0.012,0.3,0.02,-0.06,100.31,-1.5,2.5,-0.02,0.06,0.01,0.06,-0.0,0.06,11977.73,196.0,0.0,0.0,0.0,0.0
1775764023975659777,43230,0.0,1.6,0.012,0.2,0.08,-0.1,100.31,-1.5,2.5,0.01,0.07,0.01,0.06,-0.06,-0.06,11978.25,196.0,0.0,0.0,0.0,0.0
1775764024067992446,43330,0.0,1.1,0.0,0.1,-0.06,-0.04,100.31,-1.5,2.5,0.0,0.05,0.01,-0.19,0.06,0.0,11977.56,191.0,0.0,0.0,0.0,0.0
1775764024166251470,43430,0.0,1.1,0.024,0.0,0.02,-0.1,100.31,-1.5,2.5,-0.01,0.05,0.02,0.12,-0.0,-0.12,11977.9,197.0,0.0,0.0,0.0,0.0
1775764024268776894,43530,0.0,1.0,0.0,1.6,-0.06,-0.18,100.31,-1.5,2.5,0.0,0.06,0.01,0.12,-0.0,-0.06,11977.9,197.0,0.0,0.0,0.0,0.0
1775764024365182360,43630,0.0,1.2,0.032,0.6,0.0,-0.1,100.31,-1.5,2.5,0.02,0.07,0.01,0.06,0.12,-0.06,11981.33,194.0,0.0,0.0,0.0,0.0
1775764024473394183,43730,0.0,0.2,0.0,1.2,-0.1,-0.2,100.31,-1.5,2.5,0.0,0.06,0.02,-0.0,-0.0,-0.06,11980.13,196.0,0.0,0.0,0.0,0.0
1775764024567752657,43830,0.0,1.0,0.016,0.2,-0.12,-0.1,100.31,-1.5,2.5,-0.01,0.06,0.01,0.06,-0.0,-0.19,11979.62,196.0,0.0,0.0,0.0,0.0
1775764024676148212,43930,0.0,0.7,0.016,0.2,-0.04,-0.14,100.31,-1.5,2.5,-0.01,0.04,0.03,-0.06,-0.0,0.06,11978.76,196.0,0.0,0.0,0.0,0.0
1775764024768424025,44030,0.0,1.0,0.004,0.4,-0.06,-0.23,100.31,-1.5,2.5,0.0,0.05,0.01,-0.06,-0.06,0.0,11978.07,202.0,0.0,0.0,0.0,0.0
1775764024876897046,44130,0.0,0.9,0.004,0.3,0.02,-0.12,100.31,-1.5,2.5,-0.01,0.04,0.01,0.06,-0.06,0.0,11979.96,202.0,0.0,0.0,0.0,0.0
1775764024969123542,44230,0.0,0.9,0.004,0.1,0.06,-0.12,100.31,-1.5,2.5,0.0,0.08,0.0,-0.06,-0.06,-0.06,11976.19,197.0,0.0,0.0,0.0,0.0
1775764025067540914,44331,0.0,0.7,0.004,1.1,0.06,-0.14,100.31,-1.5,2.5,0.0,0.06,0.03,-0.0,-0.12,0.0,11978.59,197.0,0.0,0.0,0.0,0.0
1775764025175822444,44431,0.0,0.1,0.0,1.2,-0.04,-0.02,100.31,-1.5,2.5,-0.02,0.05,0.02,0.06,0.06,0.0,11979.27,195.0,0.0,0.0,0.0,0.0
1775764025268161027,44531,0.0,1.1,0.044,0.5,0.0,-0.14,100.31,-1.5,2.5,-0.01,0.06,0.01,0.19,0.06,0.0,11977.56,203.0,0.0,0.0,0.0,0.0
1775764025368633192,44632,0.0,1.0,0.032,0.6,0.06,0.02,100.31,-1.5,2.5,-0.01,0.04,0.01,-0.06,0.25,0.19,11978.59,203.0,0.0,0.0,0.0,0.0
1775764025466879685,44731,0.0,1.4,0.024,0.5,0.08,-0.18,100.31,-1.5,2.5,-0.01,0.06,0.0,0.06,0.06,-0.06,11979.62,191.0,0.0,0.0,0.0,0.0
1775764025577196379,44831,0.0,0.9,0.008,0.5,-0.08,-0.1,100.31,-1.5,2.5,0.0,0.05,0.01,0.12,0.06,-0.12,11977.73,198.0,0.0,0.0,0.0,0.0
1775764025669652505,44931,0.0,1.5,0.016,0.3,0.0,-0.2,100.31,-1.5,2.5,-0.01,0.07,0.03,-0.06,0.06,0.06,11979.96,198.0,0.0,0.0,0.0,0.0
1775764025777955442,45031,0.0,1.4,0.0,1.0,-0.1,0.0,100.31,-1.5,2.5,0.0,0.04,0.02,0.06,-0.0,0.06,11979.45,198.0,0.0,0.0,0.0,0.0
1775764025870341583,45131,0.0,0.4,0.0,1.1,0.0,-0.16,100.31,-1.5,2.5,-0.01,0.05,0.03,0.12,-0.0,-0.06,11980.3,198.0,0.0,0.0,0.0,0.0
1775764025978649466,45232,0.0,0.9,0.016,0.2,-0.02,-0.1,100.31,-1.5,2.5,0.0,0.06,0.03,0.12,-0.06,0.0,11978.93,193.0,0.0,0.0,0.0,0.0
1775764026070949418,45332,0.0,0.9,0.0,1.6,0.04,-0.16,100.31,-1.5,2.5,-0.01,0.08,0.01,-0.12,0.06,0.0,11978.42,191.0,0.0,0.0,0.0,0.0
1775764026179340472,45432,0.0,1.5,0.028,0.5,0.02,-0.04,100.31,-1.5,2.5,0.0,0.03,0.02,-0.06,0.06,-0.06,11979.96,191.0,0.0,0.0,0.0,0.0
1775764026271663081,45532,0.0,1.5,0.044,0.3,-0.08,0.0,100.31,-1.5,2.5,0.0,0.06,0.0,-0.06,0.06,-0.12,11979.96,196.0,0.0,0.0,0.0,0.0
1775764026368170590,45632,0.0,1.4,0.028,0.9,0.02,-0.2,100.31,-1.5,2.5,0.0,0.06,0.01,-0.0,0.06,-0.06,11978.59,196.0,0.0,0.0,0.0,0.0
1775764026470404002,45732,0.0,1.0,0.032,0.6,-0.02,-0.21,100.31,-1.5,2.5,0.0,0.07,0.02,-0.12,0.06,0.06,11980.13,196.0,0.0,0.0,0.0,0.0
1775764026570639857,45832,0.0,1.2,0.012,0.4,0.02,-0.1,100.31,-1.5,2.5,0.0,0.07,0.01,0.06,-0.06,-0.06,11978.93,196.0,0.0,0.0,0.0,0.0
1775764026679050264,45932,0.0,0.9,0.008,0.4,0.0,-0.16,100.31,-1.5,2.5,-0.02,0.05,0.01,0.12,-0.12,0.06,11979.45,195.0,0.0,0.0,0.0,0.0
1775764026771465321,46032,0.0,1.1,0.0,0.3,-0.12,0.0,100.31,-1.5,2.5,-0.02,0.07,0.0,-0.06,-0.19,0.12,11980.99,195.0,0.0,0.0,0.0,0.0
1775764026879822318,46132,0.0,0.9,0.012,0.1,-0.06,0.02,100.31,-1.5,2.5,0.0,0.06,0.01,0.06,-0.12,0.0,11978.25,195.0,0.0,0.0,0.0,0.0
1775764026978091876,46232,0.0,1.3,0.0,0.2,0.0,0.02,100.31,-1.5,2.5,0.0,0.07,0.02,0.06,-0.06,0.06,11978.59,194.0,0.0,0.0,0.0,0.0
1775764027070529516,46332,0.0,1.5,0.008,0.5,-0.06,-0.16,100.31,-1.5,2.5,-0.02,0.07,0.01,0.06,-0.06,0.0,11979.79,194.0,0.0,0.0,0.0,0.0
1775764027178795071,46432,0.0,1.4,0.028,0.5,0.06,-0.18,100.31,-1.5,2.5,0.0,0.05,0.02,-0.06,0.12,0.0,11979.1,191.0,0.0,0.0,0.0,0.0
1775764027271200689,46532,0.0,1.4,0.04,0.3,-0.06,-0.21,100.31,-1.5,2.5,0.0,0.04,0.02,-0.0,-0.12,-0.06,11980.3,191.0,0.0,0.0,0.0,0.0
1775764027367554342,46632,0.0,1.4,0.032,0.5,-0.1,-0.1,100.31,-1.5,2.5,-0.01,0.06,0.02,-0.0,-0.12,0.06,11980.48,190.0,0.0,0.0,0.0,0.0
1775764027469840092,46732,0.0,1.4,0.016,0.3,0.0,-0.16,100.31,-1.5,2.5,0.0,0.04,0.01,-0.0,-0.0,-0.06,11979.27,198.0,0.0,0.0,0.0,0.0
1775764027572226106,46832,0.0,1.5,0.012,0.2,-0.2,-0.1,100.31,-1.5,2.5,-0.01,0.06,0.0,-0.0,-0.0,0.06,11980.99,198.0,0.0,0.0,0.0,0.0
1775764027672488699,46932,0.0,1.4,0.012,0.2,0.06,-0.06,100.31,-1.5,2.5,-0.01,0.05,0.01,0.12,-0.12,0.0,11980.3,190.0,0.0,0.0,0.0,0.0
1775764027770793192,47032,0.0,1.4,0.004,0.6,-0.06,-0.08,100.31,-1.5,2.5,-0.02,0.06,0.0,0.06,0.19,0.0,11978.93,193.0,0.0,0.0,0.0,0.0
1775764027879178750,47132,0.0,1.5,0.0,0.2,0.2,-0.21,100.31,-1.5,2.5,0.0,0.04,0.01,-0.06,-0.0,0.0,11979.62,193.0,0.0,0.0,0.0,0.0
1775764027971494365,47233,0.0,1.1,0.0,0.2,0.06,-0.14,100.31,-1.5,2.5,0.0,0.05,0.0,-0.0,-0.12,0.06,11979.1,197.0,0.0,0.0,0.0,0.0
1775764028073865460,47333,0.0,1.4,0.008,0.5,0.04,-0.14,100.31,-1.5,2.5,-0.02,0.04,0.01,0.06,-0.12,0.0,11980.65,192.0,0.0,0.0,0.0,0.0
1775764028182395120,47433,0.0,1.5,0.028,0.4,0.02,0.0,100.31,-1.5,2.5,0.0,0.08,0.01,-0.06,-0.0,0.0,11981.33,192.0,0.0,0.0,0.0,0.0
1775764028274591571,47534,0.0,1.4,0.04,0.1,-0.12,-0.16,100.31,-1.5,2.5,0.0,0.05,0.01,-0.0,-0.0,0.0,11977.56,195.0,0.0,0.0,0.0,0.0
1775764028375096742,47634,0.0,1.3,0.028,0.5,0.02,-0.04,100.31,-1.5,2.5,-0.01,0.07,0.0,-0.0,0.06,0.0,11980.99,195.0,0.0,0.0,0.0,0.0
1775764028479343066,47734,0.0,1.7,0.02,0.3,-0.12,-0.23,100.31,-1.5,2.5,-0.02,0.07,0.0,0.12,-0.0,-0.12,11980.3,200.0,0.0,0.0,0.0,0.0
1775764028573578145,47834,0.0,1.0,0.012,0.3,-0.02,0.0,100.31,-1.5,2.5,0.0,0.05,0.0,0.06,-0.0,0.06,11980.13,192.0,0.0,0.0,0.0,0.0
1775764028676097368,47934,0.0,1.1,0.008,0.6,-0.02,0.1,100.31,-1.5,2.5,-0.01,0.06,0.01,-0.12,-0.0,0.12,11980.82,192.0,0.0,0.0,0.0,0.0
1775764028774302700,48034,0.0,0.7,0.004,0.2,0.2,-0.14,100.31,-1.5,2.5,0.0,0.06,0.02,-0.06,-0.06,-0.12,11980.65,193.0,0.0,0.0,0.0,0.0
1775764028876705847,48134,0.0,1.0,0.0,0.5,0.06,-0.1,100.31,-1.5,2.5,-0.01,0.06,0.0,-0.19,-0.06,0.12,11979.45,192.0,0.0,0.0,0.0,0.0
1775764028975058386,48234,0.0,1.0,0.0,0.0,-0.02,-0.16,100.31,-1.5,2.5,-0.01,0.06,0.0,-0.06,-0.0,-0.06,11980.13,192.0,0.0,0.0,0.0,0.0
1775764029077405637,48334,0.0,1.5,0.004,0.2,0.08,-0.16,100.31,-1.5,2.5,0.0,0.03,0.0,-0.06,0.12,0.0,11978.76,198.0,0.0,0.0,0.0,0.0
1775764029175715109,48434,0.0,1.2,0.024,0.5,-0.18,-0.16,100.31,-1.5,2.5,0.0,0.06,0.0,-0.06,0.06,-0.06,11980.3,200.0,0.0,0.0,0.0,0.0
1775764029274053210,48534,0.0,1.5,0.04,0.4,0.08,-0.04,100.31,-1.5,2.5,-0.01,0.05,0.0,-0.06,0.06,0.0,11980.3,200.0,0.0,0.0,0.0,0.0
1775764029374497893,48634,0.0,1.3,0.028,0.0,-0.04,-0.16,100.31,-1.5,2.5,-0.01,0.04,0.02,-0.12,0.06,0.0,11979.79,193.0,0.0,0.0,0.0,0.0
1775764029472762956,48734,0.0,1.4,0.02,0.1,0.02,-0.08,100.31,-1.5,2.5,0.0,0.05,0.0,-0.0,0.06,0.0,11979.27,193.0,0.0,0.0,0.0,0.0
1775764029583073065,48834,0.0,1.4,0.008,1.1,-0.08,-0.08,100.31,-1.5,2.5,-0.01,0.05,0.04,-0.0,0.06,0.06,11981.68,198.0,0.0,0.0,0.0,0.0
1775764029675423265,48934,0.0,0.3,0.0,1.2,-0.1,-0.08,100.31,-1.5,2.5,-0.01,0.07,0.03,0.19,0.12,0.0,11979.62,197.0,0.0,0.0,0.0,0.0
1775764029783922930,49034,0.0,0.1,0.0,1.1,0.02,-0.31,100.31,-1.5,2.5,-0.02,0.05,-0.01,0.06,-0.0,0.0,11978.42,197.0,0.0,0.0,0.0,0.0
1775764029882154307,49134,0.0,1.1,0.0,0.5,0.16,-0.21,100.31,-1.5,2.5,-0.02,0.06,0.01,-0.06,-0.0,0.06,11973.62,195.0,0.0,0.0,0.0,0.0
1775764029974417263,49234,0.0,0.9,0.0,0.3,-0.25,-0.04,100.31,-1.5,2.5,-0.01,0.06,0.0,0.06,-0.19,0.0,11977.56,195.0,0.0,0.0,0.0,0.0
1775764030082804146,49334,0.0,0.9,0.004,0.2,-0.08,-0.06,100.31,-1.5,2.5,-0.01,0.06,0.01,0.06,0.12,0.06,11979.1,195.0,0.0,0.0,0.0,0.0
1775764030175132957,49434,0.0,1.1,0.024,0.4,0.0,-0.14,100.31,-1.5,2.5,-0.02,0.05,0.01,-0.06,0.12,0.0,11977.73,196.0,0.0,0.0,0.0,0.0
1775764030283556868,49534,0.0,1.0,0.048,0.4,-0.08,-0.14,100.31,-1.5,2.5,0.0,0.06,0.01,0.12,-0.06,0.0,11977.56,198.0,0.0,0.0,0.0,0.0
1775764030373948778,49634,0.0,0.9,0.036,0.3,0.0,0.0,100.31,-1.5,2.5,0.0,0.06,0.0,-0.06,-0.0,0.06,11979.1,198.0,0.0,0.0,0.0,0.0
1775764030472221033,49734,0.0,1.0,0.028,0.6,-0.02,-0.18,100.31,-1.5,2.5,-0.02,0.05,-0.02,-0.0,0.06,0.06,11977.56,194.0,0.0,0.0,0.0,0.0
1775764030576580066,49835,0.0,1.0,0.008,0.2,-0.08,-0.29,100.31,-1.5,2.5,0.0,0.05,0.01,-0.12,0.12,0.0,11979.1,194.0,0.0,0.0,0.0,0.0
1775764030684912753,49935,0.0,0.9,0.024,0.5,0.04,-0.14,100.31,-1.5,2.5,-0.01,0.05,-0.02,-0.0,-0.19,0.0,11978.59,191.0,0.0,0.0,0.0,0.0
1775764030777226841,50035,0.0,0.8,0.008,0.5,-0.04,-0.12,100.31,-1.5,2.5,-0.01,0.04,-0.01,-0.0,-0.12,0.0,11976.53,205.0,0.0,0.0,0.0,0.0
1775764030875539855,50135,0.0,1.1,0.004,0.2,0.02,-0.14,100.31,-1.5,2.5,-0.01,0.07,0.0,-0.12,-0.06,0.06,11978.25,205.0,0.0,0.0,0.0,0.0
1775764030977912006,50235,0.0,1.1,0.0,0.3,-0.08,-0.08,100.31,-1.5,2.5,-0.01,0.04,-0.02,-0.06,-0.06,0.06,11978.42,189.0,0.0,0.0,0.0,0.0
1775764031076230454,50335,0.0,1.0,0.0,0.5,-0.04,-0.1,100.31,-1.5,2.5,-0.01,0.07,0.0,-0.0,-0.0,0.06,11978.07,199.0,0.0,0.0,0.0,0.0
1775764031184618853,50435,0.0,1.1,0.016,0.5,0.0,-0.02,100.31,-1.5,2.5,-0.01,0.06,0.0,0.12,-0.06,0.0,11978.42,199.0,0.0,0.0,0.0,0.0
1775764031276942032,50534,0.0,1.0,0.048,0.4,-0.06,-0.12,100.31,-1.5,2.5,0.0,0.06,0.0,0.06,-0.0,0.0,11977.9,196.0,0.0,0.0,0.0,0.0
1775764031373322771,50634,0.0,1.0,0.02,0.2,-0.16,-0.2,100.31,-1.5,2.5,0.0,0.06,-0.01,-0.0,-0.19,-0.06,11976.87,192.0,0.0,0.0,0.0,0.0
1775764031475709627,50734,0.0,0.9,0.02,0.5,-0.16,-0.2,100.31,-1.5,2.5,0.0,0.05,0.0,0.06,-0.0,0.0,11978.42,192.0,0.0,0.0,0.0,0.0
1775764031575843756,50833,0.0,0.9,0.012,0.2,-0.04,-0.02,100.31,-1.5,2.5,-0.01,0.06,0.01,0.06,0.06,-0.06,11978.76,193.0,0.0,0.0,0.0,0.0
1775764031684374340,50933,0.0,1.6,0.012,0.5,-0.04,-0.08,100.31,-1.5,2.5,0.0,0.07,0.0,-0.06,0.06,0.0,11982.88,193.0,0.0,0.0,0.0,0.0
1775764031782592709,51034,0.0,1.4,0.02,0.1,0.0,-0.25,100.31,-1.5,2.5,0.0,0.06,0.01,-0.06,0.06,0.06,11981.33,196.0,0.0,0.0,0.0,0.0
1775764031885076973,51134,0.0,1.7,0.008,0.2,0.02,-0.12,100.31,-1.5,2.5,0.0,0.04,0.0,-0.12,0.06,0.12,11980.99,196.0,0.0,0.0,0.0,0.0
1775764031977415486,51234,0.0,1.5,0.0,0.2,0.0,-0.04,100.31,-1.5,2.5,0.0,0.05,0.0,-0.06,0.31,0.0,11978.25,196.0,0.0,0.0,0.0,0.0
1775764032075628028,51335,0.0,1.7,0.0,0.3,0.02,-0.12,100.31,-1.5,2.5,-0.01,0.07,0.01,-0.12,0.12,0.06,11978.42,190.0,0.0,0.0,0.0,0.0
1775764032178008383,51435,0.0,1.3,0.044,0.2,-0.08,-0.1,100.31,-1.5,2.5,0.0,0.06,0.01,-0.0,0.06,0.06,11977.39,193.0,0.0,0.0,0.0,0.0
1775764035159618573,51535,0.0,1.0,0.036,0.3,0.1,-0.1,100.31,-1.5,2.5,0.0,0.06,0.0,-0.06,-0.06,-0.06,11979.1,193.0,0.0,0.0,0.0,0.0
1775764035163632499,51635,0.0,1.0,0.032,0.4,0.02,-0.12,100.31,-1.5,2.5,0.0,0.06,0.0,-0.06,0.06,0.0,11978.25,195.0,0.0,0.0,0.0,0.0
1775764035168362604,51735,0.0,0.7,0.024,0.3,-0.06,-0.2,100.31,-1.5,2.5,0.0,0.06,0.03,0.06,-0.0,-0.06,11977.04,200.0,0.0,0.0,0.0,0.0
1775764035172220920,51835,0.0,0.7,0.012,0.3,0.0,-0.12,100.31,-1.5,2.5,-0.01,0.07,0.0,-0.0,-0.0,0.0,11978.93,200.0,0.0,0.0,0.0,0.0
1775764035178513103,51935,0.0,1.1,0.008,0.6,-0.08,-0.21,100.31,-1.5,2.5,0.0,0.06,0.01,-0.0,0.06,-0.06,11978.42,191.0,0.0,0.0,0.0,0.0
1775764035182701268,52035,0.0,1.0,0.008,0.4,-0.02,0.02,100.31,-1.5,2.5,0.0,0.07,0.0,0.12,0.12,0.06,11979.62,191.0,0.0,0.0,0.0,0.0
1775764035186557381,52134,0.0,1.0,0.0,0.3,0.06,-0.1,100.31,-1.5,2.5,-0.01,0.08,0.03,-0.0,-0.06,0.06,11979.27,198.0,0.0,0.0,0.0,0.0
1775764035200721195,52234,0.0,1.2,0.008,0.3,0.04,-0.14,100.31,-1.5,2.5,0.0,0.05,0.01,0.06,-0.0,0.06,11978.93,190.0,0.0,0.0,0.0,0.0
1775764035264452239,52334,0.0,1.1,0.0,0.1,-0.04,-0.2,100.31,-1.5,2.5,-0.01,0.07,0.0,0.06,0.12,0.12,11979.79,190.0,0.0,0.0,0.0,0.0
1775764035277485526,52434,0.0,1.0,0.024,0.7,0.0,0.02,100.31,-1.5,2.5,-0.02,0.05,0.02,0.06,-0.06,-0.06,11978.76,192.0,0.0,0.0,0.0,0.0
1775764035290873996,52534,0.0,1.2,0.024,0.3,-0.08,-0.2,100.31,-1.5,2.5,0.0,0.06,0.04,-0.12,0.19,0.06,11978.76,190.0,0.0,0.0,0.0,0.0
1775764035302801979,52634,0.0,1.1,0.028,0.3,-0.02,-0.2,100.31,-1.5,2.5,0.0,0.05,0.02,-0.0,-0.06,0.06,11979.62,190.0,0.0,0.0,0.0,0.0
1775764035366766373,52733,0.0,1.1,0.012,0.2,-0.1,-0.12,100.31,-1.5,2.5,-0.01,0.06,0.01,-0.0,0.12,0.12,11978.25,199.0,0.0,0.0,0.0,0.0
1775764035379674421,52833,0.0,1.1,0.008,0.3,0.06,-0.16,100.31,-1.5,2.5,-0.02,0.06,0.0,-0.0,-0.12,0.06,11978.07,196.0,0.0,0.0,0.0,0.0
1775764035384361766,52933,0.0,0.9,0.004,0.5,0.14,-0.2,100.31,-1.5,2.5,0.01,0.06,-0.01,0.06,-0.12,0.0,11979.45,196.0,0.0,0.0,0.0,0.0
1775764035387238999,53033,0.0,1.1,0.0,0.6,0.08,0.0,100.31,-1.5,2.5,-0.01,0.05,0.0,0.06,-0.06,-0.12,11978.42,197.0,0.0,0.0,0.0,0.0
1775764035391607941,53133,0.0,1.1,0.016,0.2,-0.04,-0.1,100.31,-1.5,2.5,-0.01,0.06,0.01,0.06,-0.12,-0.06,11980.3,197.0,0.0,0.0,0.0,0.0
1775764035465091117,53233,0.0,0.9,0.0,0.3,-0.02,-0.08,100.31,-1.5,2.5,0.0,0.06,0.03,-0.0,0.12,0.0,11979.96,193.0,0.0,0.0,0.0,0.0
1775764035473365504,53334,0.0,1.0,0.0,0.3,0.02,-0.16,100.31,-1.5,2.5,0.0,0.07,0.0,-0.06,0.12,-0.06,11979.27,192.0,0.0,0.0,0.0,0.0
1775764035481604465,53434,0.0,0.8,0.0,1.5,-0.1,-0.18,100.31,-1.5,2.5,-0.02,0.06,0.0,-0.0,0.06,0.12,11979.1,192.0,0.0,0.0,0.0,0.0
1775764035485531448,53534,0.0,1.4,0.04,0.6,-0.04,-0.31,100.31,-1.5,2.5,-0.02,0.06,0.01,-0.0,-0.12,-0.12,11978.93,198.0,0.0,0.0,0.0,0.0
1775764035489870500,53634,0.0,1.4,0.036,0.2,-0.02,0.02,100.31,-1.5,2.5,0.0,0.05,0.01,-0.06,-0.06,0.12,11979.27,195.0,0.0,0.0,0.0,0.0
1775764035493754242,53734,0.0,1.3,0.024,0.3,-0.06,-0.18,100.31,-1.5,2.5,-0.01,0.06,0.01,0.19,-0.0,0.12,11979.62,195.0,0.0,0.0,0.0,0.0
1775764035563370103,53834,0.0,1.4,0.016,0.3,-0.16,-0.16,100.31,-1.5,2.5,-0.02,0.06,0.01,0.06,0.12,0.12,11979.1,195.0,0.0,0.0,0.0,0.0
1775764035567450324,53934,0.0,1.4,0.02,0.5,0.04,-0.08,100.31,-1.5,2.5,0.0,0.04,0.01,0.12,-0.06,0.06,11979.45,195.0,0.0,0.0,0.0,0.0
1775764035579753563,54034,0.0,1.4,0.0,0.3,-0.1,-0.2,100.31,-1.5,2.5,-0.02,0.06,0.02,-0.0,-0.12,0.0,11978.25,195.0,0.0,0.0,0.0,0.0
1775764035591475678,54133,0.0,1.0,0.004,0.3,0.0,-0.02,100.31,-1.5,2.5,-0.01,0.06,0.02,0.12,-0.12,-0.06,11977.56,196.0,0.0,0.0,0.0,0.0
1775764035603711991,54233,0.0,0.9,0.004,0.4,0.12,-0.14,100.31,-1.5,2.5,0.0,0.07,0.01,-0.0,-0.12,0.0,11978.07,196.0,0.0,0.0,0.0,0.0
1775764035665759587,54332,0.0,0.9,0.0,0.2,0.18,-0.18,100.31,-1.5,2.5,0.0,0.08,0.02,-0.0,0.12,-0.06,11979.1,195.0,0.0,0.0,0.0,0.0
1775764035677091687,54432,0.0,0.3,0.0,1.5,0.04,-0.14,100.31,-1.5,2.5,0.01,0.07,0.0,-0.0,-0.06,-0.06,11979.27,193.0,0.0,0.0,0.0,0.0
1775764035690395509,54532,0.0,1.4,0.044,0.2,-0.04,-0.02,100.31,-1.5,2.5,0.0,0.06,0.03,0.06,-0.12,-0.12,11978.42,193.0,0.0,0.0,0.0,0.0
1775764035702441843,54632,0.0,1.3,0.028,0.6,0.04,0.02,100.31,-1.5,2.5,-0.02,0.07,0.03,0.06,-0.0,0.0,11976.7,191.0,0.0,0.0,0.0,0.0
1775764035764043851,54732,0.0,1.4,0.024,0.4,-0.06,-0.12,100.31,-1.5,2.5,0.0,0.07,0.0,-0.0,0.06,0.06,11975.67,200.0,0.0,0.0,0.0,0.0
1775764035778393830,54832,0.0,1.4,0.02,0.6,-0.08,-0.04,100.31,-1.5,2.5,-0.02,0.06,0.02,-0.06,-0.0,0.0,11976.87,200.0,0.0,0.0,0.0,0.0
1775764035790655032,54932,0.0,1.2,0.008,0.1,0.1,-0.08,100.31,-1.5,2.5,0.0,0.05,0.01,0.06,0.06,-0.06,11976.36,198.0,0.0,0.0,0.0,0.0
1775764035803797782,55032,0.0,1.4,0.004,0.2,0.04,-0.14,100.31,-1.5,2.5,-0.01,0.06,0.02,0.06,-0.0,0.06,11977.9,200.0,0.0,0.0,0.0,0.0
1775764035876683556,55132,0.0,1.2,0.004,0.3,-0.12,-0.21,100.31,-1.5,2.5,-0.02,0.07,0.01,-0.0,-0.06,0.06,11976.19,200.0,0.0,0.0,0.0,0.0
1775764036087593041,55232,0.0,1.5,0.004,0.3,0.16,-0.16,100.31,-1.5,2.5,-0.01,0.04,0.02,-0.0,0.06,-0.06,11975.84,198.0,0.0,0.0,0.0,0.0
1775764036100061982,55332,0.0,1.5,0.0,0.6,0.08,-0.14,100.31,-1.5,2.5,0.0,0.06,0.03,0.06,-0.06,0.0,11979.1,198.0,0.0,0.0,0.0,0.0
1775764036185666942,55433,0.0,0.7,0.036,0.2,0.1,-0.08,100.31,-1.5,2.5,-0.01,0.07,0.03,-0.0,0.06,-0.06,11978.93,202.0,0.0,0.0,0.0,0.0
1775764036277951589,55533,0.0,1.0,0.036,0.3,0.25,-0.16,100.31,-1.5,2.5,-0.02,0.05,0.03,-0.06,-0.0,-0.06,11979.79,193.0,0.0,0.0,0.0,0.0
1775764036374324495,55633,0.0,1.0,0.024,0.1,-0.06,-0.12,100.31,-1.5,2.5,-0.01,0.06,0.0,-0.06,-0.0,0.06,11978.59,193.0,0.0,0.0,0.0,0.0
1775764036476688060,55732,0.0,0.9,0.024,0.1,0.18,-0.1,100.31,-1.5,2.5,-0.01,0.05,0.01,-0.12,0.12,0.06,11977.56,190.0,0.0,0.0,0.0,0.0
1775764036581025357,55832,0.0,1.0,0.024,0.3,-0.06,-0.16,100.31,-1.5,2.5,0.01,0.05,0.02,0.12,-0.12,0.0,11977.22,193.0,0.0,0.0,0.0,0.0
1775764036675299069,55932,0.0,1.1,0.008,0.2,0.02,-0.16,100.31,-1.5,2.5,0.0,0.06,0.03,-0.0,-0.06,0.06,11977.39,193.0,0.0,0.0,0.0,0.0
1775764036783678311,56032,0.0,0.9,0.008,0.3,-0.08,-0.06,100.31,-1.5,2.5,0.0,0.07,0.0,-0.0,-0.12,0.0,11976.02,195.0,0.0,0.0,0.0,0.0
1775764036983607062,56132,0.0,0.9,0.012,0.2,-0.04,-0.04,100.31,-1.5,2.5,0.0,0.07,0.01,-0.0,0.19,0.0,11976.87,195.0,0.0,0.0,0.0,0.0
1775764036996148761,56232,0.0,0.9,0.0,0.3,-0.1,0.12,100.31,-1.5,2.5,-0.01,0.06,0.0,-0.06,0.06,0.06,11977.56,192.0,0.0,0.0,0.0,0.0
1775764037076636475,56332,0.0,1.0,0.016,0.3,0.1,-0.16,100.31,-1.5,2.5,0.0,0.05,0.01,-0.0,-0.0,0.12,11976.7,195.0,0.0,0.0,0.0,0.0
1775764037185075524,56432,0.0,0.7,0.032,1.5,-0.04,-0.12,100.31,-1.5,2.5,0.0,0.08,0.01,-0.0,0.12,0.0,11977.04,195.0,0.0,0.0,0.0,0.0
1775764037277334569,56532,0.0,1.4,0.04,0.1,-0.04,-0.25,100.31,-1.5,2.5,-0.04,0.08,0.02,-0.0,-0.19,-0.06,11977.73,198.0,0.0,0.0,0.0,0.0
1775764037377835354,56632,0.0,1.2,0.028,0.5,0.12,-0.12,100.31,-1.5,2.5,-0.01,0.05,0.0,0.12,0.06,-0.06,11977.22,194.0,0.0,0.0,0.0,0.0
1775764037476174640,56732,0.0,1.2,0.02,0.3,0.0,-0.23,100.31,-1.5,2.5,-0.01,0.07,0.02,0.06,-0.0,0.0,11977.56,194.0,0.0,0.0,0.0,0.0
1775764037584506136,56833,0.0,1.3,0.012,0.6,0.12,-0.06,100.31,-1.5,2.5,0.0,0.07,0.0,0.06,-0.06,0.06,11977.73,195.0,0.0,0.0,0.0,0.0
1775764037678740812,56933,0.0,1.1,0.004,0.2,-0.08,-0.18,100.31,-1.5,2.5,0.0,0.06,0.0,-0.0,0.06,0.06,11976.53,196.0,0.0,0.0,0.0,0.0
1775764037787116974,57033,0.0,1.5,0.008,0.5,-0.1,-0.29,100.31,-1.5,2.5,-0.01,0.06,0.0,-0.06,-0.06,-0.06,11981.16,196.0,0.0,0.0,0.0,0.0
1775764037879430813,57134,0.0,1.5,0.012,0.3,-0.1,-0.04,100.31,-1.5,2.5,-0.01,0.04,0.01,-0.06,-0.0,-0.06,11979.96,199.0,0.0,0.0,0.0,0.0
1775764037999594615,57234,0.0,1.5,0.0,0.4,-0.02,-0.1,100.31,-1.5,2.5,-0.01,0.07,0.01,-0.0,0.06,-0.06,11979.27,195.0,0.0,0.0,0.0,0.0
1775764038080214047,57334,0.0,1.4,0.004,0.3,-0.1,-0.04,100.31,-1.5,2.5,-0.01,0.05,0.0,-0.0,-0.12,0.06,11979.45,195.0,0.0,0.0,0.0,0.0
1775764038182492575,57435,0.0,1.6,0.04,0.6,0.06,-0.08,100.31,-1.5,2.5,0.0,0.07,0.01,0.06,-0.0,-0.06,11981.16,199.0,0.0,0.0,0.0,0.0
1775764038280894189,57535,0.0,1.4,0.036,0.2,-0.04,-0.08,100.31,-1.5,2.5,0.0,0.07,0.01,-0.0,-0.0,0.0,11981.85,199.0,0.0,0.0,0.0,0.0
1775764038381304517,57635,0.0,1.2,0.024,0.5,-0.08,-0.14,100.31,-1.5,2.5,-0.02,0.06,0.02,-0.06,-0.0,0.06,11979.79,192.0,0.0,0.0,0.0,0.0
1775764038479622411,57735,0.0,1.3,0.016,0.3,0.0,-0.31,100.31,-1.5,2.5,0.0,0.05,0.01,0.06,-0.0,-0.06,11980.3,198.0,0.0,0.0,0.0,0.0
1775764038583935579,57835,0.0,1.4,0.012,0.5,-0.14,-0.1,100.31,-1.5,2.5,-0.01,0.05,0.0,-0.0,-0.0,0.12,11979.96,198.0,0.0,0.0,0.0,0.0
1775764038682242417,57935,0.0,1.5,0.012,0.6,0.12,-0.16,100.31,-1.5,2.5,0.0,0.05,0.02,0.06,-0.06,-0.06,11979.79,199.0,0.0,0.0,0.0,0.0
1775764038780472868,58035,0.0,1.3,0.004,0.3,0.14,-0.18,100.31,-1.5,2.5,-0.01,0.05,0.0,-0.06,-0.12,-0.06,11977.22,194.0,0.0,0.0,0.0,0.0
1775764038923601101,58135,0.0,1.3,0.012,0.3,-0.06,-0.18,100.31,-1.5,2.5,0.0,0.07,0.0,0.06,-0.12,0.06,11978.07,194.0,0.0,0.0,0.0,0.0
1775764038981174232,58235,0.0,1.3,0.004,0.7,0.08,-0.08,100.31,-1.5,2.5,-0.01,0.07,0.01,-0.0,-0.12,0.0,11975.84,192.0,0.0,0.0,0.0,0.0
1775764039079534519,58335,0.0,1.3,0.012,0.1,0.04,-0.06,100.31,-1.5,2.5,-0.01,0.06,0.01,0.12,-0.0,0.0,11975.67,192.0,0.0,0.0,0.0,0.0
1775764039187895287,58434,0.0,1.5,0.036,0.3,0.02,-0.14,100.31,-1.5,2.5,0.0,0.06,0.01,-0.0,-0.0,0.06,11977.04,197.0,0.0,0.0,0.0,0.0
1775764039280157384,58534,0.0,1.2,0.04,0.3,0.08,-0.16,100.31,-1.5,2.5,0.0,0.08,0.01,-0.0,-0.0,0.0,11976.36,206.0,0.0,0.0,0.0,0.0
1775764039380621544,58634,0.0,1.3,0.036,0.7,-0.04,-0.1,100.31,-1.5,2.5,-0.01,0.08,0.02,-0.0,0.12,0.0,11976.19,206.0,0.0,0.0,0.0,0.0
1775764039478912021,58734,0.0,1.6,0.012,0.6,-0.06,-0.21,100.31,-1.5,2.5,-0.01,0.05,0.01,0.06,-0.12,-0.12,11976.87,193.0,0.0,0.0,0.0,0.0
1775764039577292661,58834,0.0,1.4,0.016,0.5,0.12,-0.1,100.31,-1.5,2.5,0.0,0.06,0.04,-0.0,0.19,0.12,11974.82,192.0,0.0,0.0,0.0,0.0
1775764039681595350,58934,0.0,1.4,0.012,0.6,0.04,-0.06,100.31,-1.5,2.5,-0.02,0.07,-0.02,0.12,0.12,0.0,11979.79,192.0,0.0,0.0,0.0,0.0
1775764039789949822,59034,0.0,1.4,0.0,0.4,-0.06,-0.16,100.31,-1.5,2.5,-0.01,0.08,0.01,-0.12,-0.0,0.0,11978.07,194.0,0.0,0.0,0.0,0.0
1775764039882242326,59134,0.0,1.5,0.004,0.3,0.0,0.0,100.31,-1.5,2.5,0.0,0.07,0.0,-0.0,0.12,0.0,11977.9,186.0,0.0,0.0,0.0,0.0
1775764039980616578,59234,0.0,1.5,0.004,0.2,-0.02,-0.23,100.31,-1.5,2.5,-0.02,0.07,0.0,0.12,0.12,-0.06,11979.27,186.0,0.0,0.0,0.0,0.0
1775764040082919303,59334,0.0,1.3,0.004,0.4,-0.14,-0.1,100.31,-1.5,2.5,-0.01,0.06,0.0,0.06,0.06,-0.06,11976.7,195.0,0.0,0.0,0.0,0.0
1775764040181223689,59435,0.0,1.4,0.032,0.6,0.02,-0.06,100.31,-1.5,2.5,0.01,0.05,0.0,-0.06,-0.12,0.0,11976.19,196.0,0.0,0.0,0.0,0.0
1775764040283704263,59535,0.0,1.6,0.036,0.3,-0.04,-0.14,100.31,-1.5,2.5,-0.01,0.05,0.0,-0.06,-0.25,-0.06,11975.84,196.0,0.0,0.0,0.0,0.0
1775764040380106132,59635,0.0,1.3,0.02,0.2,-0.08,-0.2,100.31,-1.5,2.5,-0.01,0.05,0.0,0.06,-0.0,0.0,11975.84,193.0,0.0,0.0,0.0,0.0
1775764040482351769,59735,0.0,1.4,0.0,1.1,0.02,-0.04,100.31,-1.5,2.5,-0.01,0.06,-0.01,0.06,-0.0,0.0,11977.04,193.0,0.0,0.0,0.0,0.0
1775764040582553986,59835,0.0,1.1,0.016,0.5,0.06,-0.12,100.31,-1.5,2.5,-0.01,0.06,0.0,-0.0,-0.12,0.0,11977.04,191.0,0.0,0.0,0.0,0.0
1775764040685000839,59935,0.0,0.2,0.0,1.7,-0.04,-0.06,100.31,-1.5,2.5,-0.01,0.07,0.0,-0.12,-0.06,-0.06,11975.5,195.0,0.0,0.0,0.0,0.0
1775764040789311821,60035,0.0,0.5,0.0,1.5,0.02,-0.08,100.31,-1.5,2.5,-0.02,0.07,0.0,-0.06,-0.0,0.0,11975.67,195.0,0.0,0.0,0.0,0.0
1775764040881588907,60135,0.0,0.2,0.0,1.7,0.04,-0.2,100.31,-1.5,2.5,-0.01,0.07,-0.01,0.12,-0.25,0.06,11975.33,189.0,0.0,0.0,0.0,0.0
1775764040989996229,60235,0.0,1.5,0.008,0.4,0.06,-0.12,100.31,-1.5,2.5,0.0,0.04,0.0,0.19,0.12,0.06,11975.33,199.0,0.0,0.0,0.0,0.0
1775764041295584610,60335,0.0,1.5,0.008,0.4,-0.1,-0.16,100.31,-1.5,2.5,-0.02,0.06,0.0,-0.06,-0.12,0.0,11976.02,199.0,0.0,0.0,0.0,0.0
1775764041309534284,60435,0.0,1.3,0.028,0.4,0.04,-0.06,100.31,-1.5,2.5,0.0,0.08,0.01,-0.06,-0.25,0.0,11974.64,199.0,0.0,0.0,0.0,0.0
1775764041371252131,60535,0.0,1.3,0.04,0.3,-0.02,-0.14,100.31,-1.5,2.5,-0.01,0.07,-0.01,-0.0,0.06,0.0,11975.67,199.0,0.0,0.0,0.0,0.0
1775764041383454642,60636,0.0,1.4,0.032,0.1,0.14,-0.1,100.31,-1.5,2.5,-0.02,0.07,0.0,-0.06,-0.06,0.0,11975.33,195.0,0.0,0.0,0.0,0.0
1775764041481711932,60736,0.0,1.2,0.02,0.3,-0.08,-0.18,100.31,-1.5,2.5,-0.03,0.07,0.0,-0.06,-0.12,0.0,11975.5,197.0,0.0,0.0,0.0,0.0
1775764041584112137,60836,0.0,1.1,0.02,0.3,-0.08,-0.18,100.31,-1.5,2.5,-0.02,0.05,0.01,-0.19,0.06,-0.06,11978.59,197.0,0.0,0.0,0.0,0.0
1775764041684368563,60937,0.0,1.3,0.0,0.3,0.06,-0.2,100.31,-1.5,2.5,0.0,0.05,0.0,0.06,-0.06,-0.06,11977.56,192.0,0.0,0.0,0.0,0.0
1775764041792753713,61037,0.0,1.4,0.004,0.4,-0.04,-0.08,100.31,-1.5,2.5,-0.02,0.05,0.01,-0.06,-0.19,-0.06,11976.02,191.0,0.0,0.0,0.0,0.0
1775764041885191701,61137,0.0,1.5,0.0,0.4,0.0,-0.2,100.31,-1.5,2.5,-0.01,0.06,0.0,-0.06,0.06,0.0,11975.5,191.0,0.0,0.0,0.0,0.0
1775764041983341735,61236,0.0,1.4,0.0,0.3,0.0,-0.16,100.31,-1.5,2.5,0.01,0.07,0.0,-0.0,0.06,-0.06,11973.96,197.0,0.0,0.0,0.0,0.0
1775764042091744762,61336,0.0,1.4,0.0,0.1,0.02,-0.14,100.31,-1.5,2.5,-0.02,0.04,0.0,0.06,-0.06,0.06,11975.16,197.0,0.0,0.0,0.0,0.0
1775764042184118115,61436,0.0,1.5,0.032,0.3,-0.04,-0.16,100.31,-1.5,2.5,0.0,0.05,0.0,-0.0,-0.12,0.0,11976.02,197.0,0.0,0.0,0.0,0.0
1775764042292365610,61536,0.0,1.5,0.024,0.5,-0.06,-0.1,100.31,-1.5,2.5,0.0,0.06,0.03,-0.12,-0.12,-0.06,11975.5,197.0,0.0,0.0,0.0,0.0
1775764042411584137,61636,0.0,1.3,0.028,0.3,0.12,-0.2,100.31,-1.5,2.5,-0.02,0.05,0.01,0.12,-0.06,-0.06,11975.5,199.0,0.0,0.0,0.0,0.0
1775764042481108962,61736,0.0,1.3,0.02,0.3,-0.04,-0.18,100.31,-1.5,2.5,-0.02,0.07,0.0,0.19,-0.19,0.0,11975.84,199.0,0.0,0.0,0.0,0.0
1775764042589481064,61836,0.0,1.1,0.016,0.3,-0.08,0.0,100.31,-1.5,2.5,-0.01,0.06,0.04,0.06,0.06,0.06,11976.02,193.0,0.0,0.0,0.0,0.0
1775764042683700921,61936,0.0,1.5,0.012,0.5,0.04,-0.08,100.31,-1.5,2.5,0.0,0.06,0.02,-0.0,0.06,-0.06,11976.19,193.0,0.0,0.0,0.0,0.0
1775764042786094489,62036,0.0,1.2,0.004,0.3,0.02,-0.18,100.31,-1.5,2.5,0.0,0.08,0.0,-0.12,0.06,-0.06,11978.25,197.0,0.0,0.0,0.0,0.0
1775764042884404895,62136,0.0,1.3,0.004,0.6,0.1,-0.16,100.31,-1.5,2.5,-0.02,0.05,0.01,-0.06,-0.06,0.0,11974.99,191.0,0.0,0.0,0.0,0.0
1775764043099589280,62236,0.0,1.6,0.0,0.2,-0.04,-0.02,100.31,-1.5,2.5,-0.02,0.06,0.01,-0.06,0.06,0.06,11977.04,191.0,0.0,0.0,0.0,0.0
1775764043113398673,62337,0.0,1.5,0.0,0.3,0.08,-0.1,100.31,-1.5,2.5,0.0,0.06,0.01,-0.0,0.06,0.06,11977.39,199.0,0.0,0.0,0.0,0.0
1775764043193494146,62437,0.0,1.3,0.036,0.4,-0.04,-0.12,100.31,-1.5,2.5,0.0,0.07,0.03,0.12,-0.0,0.06,11974.47,199.0,0.0,0.0,0.0,0.0
1775764043285862965,62537,0.0,1.4,0.036,0.3,-0.02,-0.14,100.31,-1.5,2.5,0.0,0.05,0.02,-0.0,-0.0,0.06,11976.7,199.0,0.0,0.0,0.0,0.0
1775764043386267267,62638,0.0,1.4,0.032,0.4,0.04,-0.1,100.31,-1.5,2.5,-0.01,0.03,0.02,-0.0,-0.0,0.06,11976.87,193.0,0.0,0.0,0.0,0.0
1775764043484519917,62738,0.0,1.3,0.02,0.3,0.0,-0.04,100.31,-1.5,2.5,-0.01,0.07,0.01,0.06,-0.12,0.0,11979.79,193.0,0.0,0.0,0.0,0.0
1775764043582885822,62838,0.0,1.2,0.016,0.5,0.04,-0.16,100.31,-1.5,2.5,-0.02,0.06,0.02,0.06,-0.06,0.12,11980.65,192.0,0.0,0.0,0.0,0.0
1775764043693160698,62938,0.0,1.3,0.008,0.6,0.08,-0.18,100.31,-1.5,2.5,-0.02,0.05,0.03,-0.06,-0.0,0.06,11976.36,192.0,0.0,0.0,0.0,0.0
1775764043795639433,63038,0.0,1.2,0.008,0.3,-0.12,-0.08,100.31,-1.5,2.5,0.0,0.06,0.03,-0.0,-0.0,-0.06,11977.9,192.0,0.0,0.0,0.0,0.0
1775764043893807716,63138,0.0,1.2,0.0,0.3,-0.12,-0.2,100.31,-1.5,2.5,-0.02,0.05,0.0,-0.0,-0.0,0.0,11978.76,199.0,0.0,0.0,0.0,0.0
1775764043986132982,63238,0.0,1.3,0.004,0.2,0.14,-0.14,100.31,-1.5,2.5,-0.01,0.04,0.0,-0.06,-0.12,0.0,11975.33,193.0,0.0,0.0,0.0,0.0
1775764044094566174,63338,0.0,1.4,0.0,0.2,-0.1,-0.1,100.31,-1.5,2.5,0.0,0.07,0.0,-0.12,-0.0,0.0,11976.02,193.0,0.0,0.0,0.0,0.0
1775764044186840306,63438,0.0,1.4,0.044,0.2,0.04,-0.16,100.31,-1.5,2.5,-0.02,0.07,0.01,-0.0,-0.0,0.0,11975.16,203.0,0.0,0.0,0.0,0.0
1775764044391572576,63538,0.0,1.7,0.036,0.4,-0.02,-0.1,100.31,-1.5,2.5,-0.01,0.07,0.01,-0.0,-0.06,0.0,11974.64,196.0,0.0,0.0,0.0,0.0
1775764044395460273,63638,0.0,1.2,0.024,0.4,-0.02,-0.04,100.31,-1.5,2.5,0.0,0.06,0.01,-0.0,-0.0,-0.12,11977.9,196.0,0.0,0.0,0.0,0.0
1775764044489810683,63738,0.0,1.4,0.024,0.4,-0.1,-0.04,100.31,-1.5,2.5,-0.02,0.07,0.0,-0.06,0.12,0.0,11975.84,197.0,0.0,0.0,0.0,0.0
1775764044588159988,63838,0.0,1.4,0.012,0.5,-0.06,-0.1,100.31,-1.5,2.5,-0.03,0.05,0.01,0.06,-0.12,0.06,11976.87,200.0,0.0,0.0,0.0,0.0
1775764044686518534,63938,0.0,1.4,0.016,0.3,0.02,-0.12,100.31,-1.5,2.5,-0.02,0.06,0.0,-0.06,-0.12,0.0,11977.22,200.0,0.0,0.0,0.0,0.0
1775764044788896492,64038,0.0,1.5,0.004,0.3,0.1,-0.16,100.31,-1.5,2.5,-0.01,0.06,0.02,-0.0,0.12,-0.06,11977.22,197.0,0.0,0.0,0.0,0.0
1775764044991591539,64138,0.0,1.4,0.0,0.6,0.0,-0.08,100.31,-1.5,2.5,-0.01,0.07,0.02,0.06,-0.12,-0.12,11978.93,197.0,0.0,0.0,0.0,0.0
1775764045003322532,64237,0.0,1.3,0.0,0.2,0.04,-0.18,100.31,-1.5,2.5,-0.01,0.08,0.02,-0.12,0.06,0.06,11979.96,195.0,0.0,0.0,0.0,0.0
1775764045087950057,64337,0.0,1.5,0.0,0.4,0.06,-0.16,100.31,-1.5,2.5,-0.01,0.07,0.03,-0.12,-0.0,-0.12,11977.04,201.0,0.0,0.0,0.0,0.0
1775764045192148751,64437,0.0,1.5,0.0,0.9,0.02,-0.04,100.31,-1.5,2.5,-0.01,0.08,0.02,-0.12,0.12,0.06,11978.59,201.0,0.0,0.0,0.0,0.0
1775764045294597010,64537,0.0,0.2,0.0,1.1,-0.06,-0.25,100.31,-1.5,2.5,0.0,0.06,0.0,-0.0,-0.19,0.0,11978.59,189.0,0.0,0.0,0.0,0.0
1775764045384929908,64637,0.0,1.1,0.02,0.5,0.12,-0.2,100.31,-1.5,2.5,0.0,0.06,0.01,-0.06,-0.06,-0.06,11977.22,192.0,0.0,0.0,0.0,0.0
1775764045483145352,64737,0.0,1.2,0.02,0.2,0.04,-0.04,100.31,-1.5,2.5,0.0,0.07,0.01,-0.06,-0.06,0.0,11977.73,192.0,0.0,0.0,0.0,0.0
1775764045593486140,64837,0.0,0.9,0.016,0.2,0.06,-0.1,100.31,-1.5,2.5,-0.01,0.07,0.02,0.12,-0.06,0.06,11977.56,194.0,0.0,0.0,0.0,0.0
1775764045685905789,64937,0.0,1.1,0.0,1.7,-0.18,-0.12,100.31,-1.5,2.5,0.0,0.05,0.01,-0.0,0.12,0.19,11977.56,194.0,0.0,0.0,0.0,0.0
1775764045794241210,65037,0.0,0.3,0.0,1.2,0.04,-0.14,100.31,-1.5,2.5,-0.02,0.07,0.04,-0.0,0.06,-0.06,11977.22,195.0,0.0,0.0,0.0,0.0
1775764045886523255,65137,0.0,1.3,0.0,0.3,-0.08,-0.12,100.31,-1.5,2.5,-0.02,0.05,0.0,-0.0,-0.12,0.0,11976.02,193.0,0.0,0.0,0.0,0.0
1775764045994900748,65238,0.0,1.6,0.004,0.4,-0.12,-0.27,100.31,-1.5,2.5,0.0,0.06,0.01,0.06,-0.0,0.0,11978.07,193.0,0.0,0.0,0.0,0.0
1775764046087208834,65338,0.0,1.4,0.0,0.3,0.06,-0.06,100.31,-1.5,2.5,-0.01,0.06,0.01,0.06,0.06,0.06,11978.76,196.0,0.0,0.0,0.0,0.0
1775764046189604448,65438,0.0,1.4,0.036,0.4,0.0,-0.06,100.31,-1.5,2.5,0.0,0.06,0.02,-0.06,-0.0,0.06,11977.9,192.0,0.0,0.0,0.0,0.0
1775764046287962436,65538,0.0,0.9,0.052,0.2,0.0,-0.1,100.31,-1.5,2.5,-0.02,0.07,0.01,-0.0,-0.06,-0.06,11978.42,192.0,0.0,0.0,0.0,0.0
1775764046388369652,65638,0.0,0.9,0.028,0.3,0.1,-0.23,100.31,-1.5,2.5,-0.02,0.05,0.02,-0.0,0.06,0.06,11975.84,193.0,0.0,0.0,0.0,0.0
1775764046486637886,65738,0.0,0.9,0.016,0.2,0.08,-0.2,100.31,-1.5,2.5,-0.01,0.08,0.01,-0.12,-0.0,-0.06,11976.36,189.0,0.0,0.0,0.0,0.0
1775764046586915701,65838,0.0,1.0,0.016,0.1,0.04,-0.12,100.31,-1.5,2.5,-0.02,0.06,0.04,-0.06,-0.0,-0.06,11978.59,189.0,0.0,0.0,0.0,0.0
1775764046695297082,65938,0.0,1.0,0.012,0.6,0.02,-0.06,100.31,-1.5,2.5,-0.02,0.07,0.04,-0.06,-0.0,0.06,11976.19,198.0,0.0,0.0,0.0,0.0
1775764046891594839,66038,0.0,1.0,0.008,0.4,-0.08,-0.06,100.31,-1.5,2.5,-0.01,0.05,0.01,-0.0,-0.06,0.06,11977.39,198.0,0.0,0.0,0.0,0.0
1775764046904365425,66138,0.0,0.9,0.0,0.3,-0.1,-0.12,100.31,-1.5,2.5,-0.02,0.04,0.02,-0.0,-0.06,0.06,11977.04,198.0,0.0,0.0,0.0,0.0
1775764046994230219,66237,0.0,0.9,0.0,0.1,-0.1,-0.12,100.31,-1.5,2.5,-0.02,0.06,0.01,0.19,-0.0,0.0,11976.7,194.0,0.0,0.0,0.0,0.0
1775764047086639195,66337,0.0,1.0,0.0,0.2,0.02,-0.12,100.31,-1.5,2.5,-0.02,0.07,0.03,0.12,0.19,-0.12,11978.76,194.0,0.0,0.0,0.0,0.0
1775764047194964553,66437,0.0,1.0,0.036,0.5,0.0,-0.14,100.31,-1.5,2.5,-0.01,0.08,0.03,-0.0,-0.0,-0.06,11978.07,194.0,0.0,0.0,0.0,0.0
1775764047287243118,66537,0.0,1.1,0.04,0.3,0.06,-0.12,100.31,-1.5,2.5,-0.01,0.07,0.04,0.06,0.06,0.0,11976.02,199.0,0.0,0.0,0.0,0.0
1775764047387721699,66637,0.0,0.9,0.028,0.4,-0.12,-0.06,100.31,-1.5,2.5,-0.01,0.05,0.01,-0.0,-0.0,0.0,11977.04,199.0,0.0,0.0,0.0,0.0
1775764047486003030,66738,0.0,1.1,0.028,0.2,-0.06,-0.1,100.31,-1.5,2.5,-0.01,0.06,0.01,0.25,-0.0,0.0,11978.42,197.0,0.0,0.0,0.0,0.0
1775764047594420845,66838,0.0,0.7,0.016,0.3,0.1,-0.18,100.31,-1.5,2.5,0.0,0.05,0.01,0.12,-0.0,0.0,11977.9,197.0,0.0,0.0,0.0,0.0
1775764047688686265,66938,0.0,0.9,0.008,0.3,-0.06,-0.16,100.31,-1.5,2.5,0.0,0.05,0.0,0.06,-0.0,0.0,11976.19,197.0,0.0,0.0,0.0,0.0
1775764047786913154,67037,0.0,0.8,0.004,0.0,0.04,-0.18,100.31,-1.5,2.5,-0.01,0.05,0.04,-0.12,0.12,-0.06,11975.84,195.0,0.0,0.0,0.0,0.0
1775764047889423976,67137,0.0,1.1,0.0,-0.1,-0.08,-0.02,100.31,-1.5,2.5,0.0,0.05,0.01,-0.0,-0.0,0.06,11977.22,195.0,0.0,0.0,0.0,0.0
1775764047987611738,67237,0.0,0.7,0.004,0.3,-0.08,-0.02,100.31,-1.5,2.5,0.0,0.07,0.01,0.12,-0.0,0.0,11976.7,191.0,0.0,0.0,0.0,0.0
1775764048303586348,67337,0.0,1.1,0.004,0.5,-0.16,-0.02,100.31,-1.5,2.5,-0.01,0.06,0.02,-0.0,0.06,0.06,11978.59,197.0,0.0,0.0,0.0,0.0
1775764048317402145,67437,0.0,1.1,0.032,0.3,0.04,-0.12,100.31,-1.5,2.5,-0.03,0.05,0.0,0.06,-0.0,0.0,11980.3,197.0,0.0,0.0,0.0,0.0
1775764048378867868,67537,0.0,0.8,0.032,0.5,0.02,-0.12,100.31,-1.5,2.5,-0.02,0.07,0.0,0.06,0.06,0.0,11979.27,194.0,0.0,0.0,0.0,0.0
1775764048388892532,67637,0.0,0.8,0.028,0.5,-0.04,-0.18,100.31,-1.5,2.5,-0.01,0.06,0.01,0.06,-0.06,0.06,11978.93,193.0,0.0,0.0,0.0,0.0
1775764048489419656,67737,0.0,0.7,0.02,1.5,0.0,-0.08,100.31,-1.5,2.5,-0.01,0.07,0.01,-0.06,-0.12,0.06,11979.96,193.0,0.0,0.0,0.0,0.0
1775764048587773275,67837,0.0,1.4,0.004,0.3,0.12,-0.1,100.31,-1.5,2.5,-0.02,0.08,0.0,-0.06,-0.06,0.0,11978.42,192.0,0.0,0.0,0.0,0.0
1775764048687928734,67937,0.0,1.3,0.008,0.3,-0.02,-0.02,100.31,-1.5,2.5,0.0,0.06,0.01,0.06,-0.12,0.06,11978.59,192.0,0.0,0.0,0.0,0.0
1775764048815595982,68037,0.0,1.4,0.012,0.5,0.06,-0.21,100.31,-1.5,2.5,0.0,0.05,0.01,0.06,0.12,0.0,11979.62,192.0,0.0,0.0,0.0,0.0
1775764048888639594,68136,0.0,1.6,0.0,0.3,-0.02,-0.14,100.31,-1.5,2.5,0.0,0.09,0.0,-0.06,-0.06,0.0,11977.56,196.0,0.0,0.0,0.0,0.0
1775764048986881701,68236,0.0,1.5,0.0,0.5,-0.04,-0.12,100.31,-1.5,2.5,0.0,0.06,-0.01,-0.0,-0.0,-0.06,11977.56,192.0,0.0,0.0,0.0,0.0
1775764049095432610,68336,0.0,1.4,0.004,0.3,-0.08,-0.04,100.31,-1.5,2.5,-0.01,0.05,0.02,0.06,-0.0,0.0,11979.79,192.0,0.0,0.0,0.0,0.0
1775764049187608108,68436,0.0,1.5,0.044,0.2,-0.1,-0.1,100.31,-1.5,2.5,0.0,0.07,0.0,0.06,-0.0,-0.06,11979.1,196.0,0.0,0.0,0.0,0.0
1775764049296029309,68536,0.0,1.1,0.036,0.4,-0.02,-0.14,100.31,-1.5,2.5,-0.01,0.07,0.0,-0.12,0.19,0.0,11977.04,196.0,0.0,0.0,0.0,0.0
1775764049386377899,68636,0.0,1.0,0.024,0.4,0.0,-0.16,100.31,-1.5,2.5,-0.03,0.06,0.01,-0.0,0.06,-0.06,11977.04,191.0,0.0,0.0,0.0,0.0
1775764049488732818,68737,0.0,0.9,0.02,0.5,0.04,-0.08,100.31,-1.5,2.5,-0.02,0.06,0.0,-0.06,-0.06,-0.06,11974.99,197.0,0.0,0.0,0.0,0.0
1775764049587044371,68837,0.0,1.0,0.0,0.2,-0.08,-0.16,100.31,-1.5,2.5,0.0,0.06,0.01,-0.0,-0.0,0.12,11975.5,197.0,0.0,0.0,0.0,0.0
1775764049687221274,68937,0.0,1.1,0.012,0.5,-0.02,-0.08,100.31,-1.5,2.5,0.0,0.05,0.02,0.06,-0.0,0.0,11975.5,197.0,0.0,0.0,0.0,0.0
1775764049895591207,69037,0.0,1.3,0.0,0.5,0.06,-0.18,100.31,-1.5,2.5,-0.01,0.07,0.0,-0.0,0.12,0.06,11974.3,198.0,0.0,0.0,0.0,0.0
1775764049908708321,69137,0.0,1.5,0.0,0.5,0.12,-0.21,100.31,-1.5,2.5,-0.01,0.07,0.0,-0.06,0.19,-0.06,11976.02,198.0,0.0,0.0,0.0,0.0
1775764049990373733,69237,0.0,1.3,0.0,0.3,0.0,-0.18,100.31,-1.5,2.5,-0.01,0.06,0.0,-0.0,-0.06,-0.06,11974.47,192.0,0.0,0.0,0.0,0.0
1775764050088729651,69337,0.0,1.5,0.004,0.7,0.06,-0.06,100.31,-1.5,2.5,0.0,0.06,0.0,-0.0,-0.06,0.0,11976.19,192.0,0.0,0.0,0.0,0.0
1775764050191020466,69437,0.0,1.5,0.028,0.5,-0.04,-0.14,100.31,-1.5,2.5,-0.02,0.06,-0.01,0.06,-0.12,0.0,11975.16,192.0,0.0,0.0,0.0,0.0
1775764050289300388,69537,0.0,1.3,0.048,0.3,0.04,-0.08,100.31,-1.5,2.5,0.0,0.07,0.02,0.12,-0.0,0.0,11974.99,192.0,0.0,0.0,0.0,0.0
1775764050385709798,69637,0.0,1.4,0.02,0.5,-0.06,-0.1,100.31,-1.5,2.5,-0.01,0.06,-0.02,-0.0,0.06,-0.06,11975.33,192.0,0.0,0.0,0.0,0.0
1775764050488045889,69737,0.0,0.2,0.0,1.1,0.02,-0.08,100.31,-1.5,2.5,-0.02,0.08,0.0,0.06,-0.06,0.06,11976.7,197.0,0.0,0.0,0.0,0.0
1775764050588222024,69837,0.0,0.4,0.0,1.2,-0.02,-0.1,100.31,-1.5,2.5,-0.02,0.08,-0.01,0.06,-0.0,0.06,11974.13,198.0,0.0,0.0,0.0,0.0
1775764050696777831,69937,0.0,0.9,0.012,0.2,-0.1,-0.1,100.31,-1.5,2.5,-0.02,0.07,0.01,-0.06,0.25,0.06,11976.53,198.0,0.0,0.0,0.0,0.0
1775764050788985674,70037,0.0,1.2,0.004,0.2,-0.06,-0.16,100.31,-1.5,2.5,-0.02,0.04,0.0,-0.06,-0.0,0.0,11975.33,194.0,0.0,0.0,0.0,0.0
1775764050897393232,70137,0.0,1.4,0.012,0.3,-0.04,-0.14,100.31,-1.5,2.5,-0.01,0.07,0.0,0.06,-0.12,-0.19,11976.19,192.0,0.0,0.0,0.0,0.0
1775764051091588963,70237,0.0,1.4,0.0,0.3,0.02,-0.06,100.31,-1.5,2.5,-0.02,0.07,0.01,0.06,-0.06,0.0,11974.82,192.0,0.0,0.0,0.0,0.0
1775764051104125097,70337,0.0,1.4,0.008,0.3,-0.16,-0.08,100.31,-1.5,2.5,-0.02,0.08,0.0,-0.19,-0.12,-0.06,11973.96,201.0,0.0,0.0,0.0,0.0
1775764051196313612,70437,0.0,1.6,0.036,0.5,-0.06,-0.08,100.31,-1.5,2.5,0.0,0.06,0.01,-0.0,0.06,-0.19,11974.82,193.0,0.0,0.0,0.0,0.0
1775764051288733019,70537,0.0,1.1,0.04,0.5,-0.02,-0.02,100.31,-1.5,2.5,-0.01,0.08,-0.01,-0.0,-0.06,-0.06,11974.82,193.0,0.0,0.0,0.0,0.0
1775764051389148730,70637,0.0,1.2,0.024,0.5,-0.12,-0.25,100.31,-1.5,2.5,-0.01,0.05,0.01,0.06,-0.12,0.0,11974.47,194.0,0.0,0.0,0.0,0.0
1775764051487376882,70737,0.0,1.5,0.024,0.5,-0.06,-0.16,100.31,-1.5,2.5,-0.01,0.06,0.01,0.12,-0.0,0.06,11974.82,194.0,0.0,0.0,0.0,0.0
1775764051595804582,70837,0.0,1.5,0.0,1.0,-0.06,-0.16,100.31,-1.5,2.5,-0.03,0.06,0.01,0.06,-0.06,0.0,11975.16,190.0,0.0,0.0,0.0,0.0
1775764051689976669,70937,0.0,0.3,0.016,0.5,-0.02,-0.1,100.31,-1.5,2.5,-0.02,0.06,-0.02,-0.0,0.06,0.06,11975.33,200.0,0.0,0.0,0.0,0.0
1775764051798423571,71037,0.0,1.1,0.0,0.4,0.04,-0.18,100.31,-1.5,2.5,-0.01,0.05,0.04,0.06,-0.0,-0.06,11976.36,200.0,0.0,0.0,0.0,0.0
1775764051890704302,71137,0.0,1.1,0.004,0.3,-0.08,-0.18,100.31,-1.5,2.5,0.0,0.06,0.04,-0.0,-0.0,0.06,11975.84,189.0,0.0,0.0,0.0,0.0
1775764051999121614,71237,0.0,1.0,0.004,0.2,-0.08,-0.04,100.31,-1.5,2.5,0.0,0.09,0.03,0.06,0.06,-0.06,11977.9,192.0,0.0,0.0,0.0,0.0
1775764052091447813,71337,0.0,0.7,0.0,0.2,-0.08,-0.16,100.31,-1.5,2.5,-0.02,0.07,0.02,0.12,-0.06,0.0,11977.04,192.0,0.0,0.0,0.0,0.0
1775764052189716162,71437,0.0,1.1,0.036,0.3,-0.02,0.0,100.31,-1.5,2.5,-0.01,0.07,0.01,-0.0,-0.12,0.0,11977.9,196.0,0.0,0.0,0.0,0.0
1775764052292167889,71537,0.0,1.0,0.044,0.4,0.0,-0.21,100.31,-1.5,2.5,-0.03,0.08,-0.01,0.12,0.19,0.0,11976.53,196.0,0.0,0.0,0.0,0.0
1775764052388548126,71638,0.0,1.0,0.02,0.4,0.1,-0.12,100.31,-1.5,2.5,-0.02,0.06,0.0,-0.19,0.12,-0.06,11977.04,194.0,0.0,0.0,0.0,0.0
1775764052490938432,71738,0.0,0.8,0.016,0.3,-0.06,-0.12,100.31,-1.5,2.5,-0.02,0.08,0.01,-0.06,-0.0,-0.12,11977.04,193.0,0.0,0.0,0.0,0.0
1775764052591048968,71838,0.0,0.9,0.008,0.3,0.02,-0.08,100.31,-1.5,2.5,-0.01,0.05,0.03,0.06,0.06,-0.06,11977.04,193.0,0.0,0.0,0.0,0.0
1775764052693439199,71939,0.0,1.1,0.012,0.3,0.04,-0.06,100.31,-1.5,2.5,-0.01,0.07,0.0,0.06,0.19,0.0,11977.9,189.0,0.0,0.0,0.0,0.0
1775764052791746971,72039,0.0,1.0,0.004,0.3,-0.14,-0.08,100.31,-1.5,2.5,0.0,0.06,0.03,0.06,-0.0,0.0,11976.19,194.0,0.0,0.0,0.0,0.0
1775764052900118957,72139,0.0,0.9,0.0,0.3,0.06,-0.14,100.31,-1.5,2.5,0.0,0.08,0.02,-0.0,-0.0,0.0,11976.36,194.0,0.0,0.0,0.0,0.0
1775764052992428919,72240,0.0,0.7,0.0,0.4,-0.06,-0.1,100.31,-1.5,2.5,-0.02,0.07,0.01,-0.0,0.12,0.12,11975.16,192.0,0.0,0.0,0.0,0.0
1775764053094799029,72340,0.0,1.0,0.004,0.3,0.06,-0.1,100.31,-1.5,2.5,-0.02,0.09,0.0,0.12,-0.0,0.0,11976.19,201.0,0.0,0.0,0.0,0.0
1775764053419586832,72440,0.0,1.2,0.032,0.5,-0.18,-0.23,100.31,-1.5,2.5,0.0,0.06,0.01,0.12,-0.06,0.0,11976.19,201.0,0.0,0.0,0.0,0.0
1775764053482026131,72540,0.0,1.1,0.048,0.5,0.0,-0.16,100.31,-1.5,2.5,-0.01,0.07,0.06,-0.06,0.06,0.0,11976.19,195.0,0.0,0.0,0.0,0.0
1775764053486082231,72640,0.0,1.2,0.032,0.3,0.04,-0.12,100.31,-1.5,2.5,-0.03,0.08,0.04,-0.06,-0.0,-0.12,11975.67,192.0,0.0,0.0,0.0,0.0
1775764053490176420,72740,0.0,1.6,0.02,0.3,0.06,-0.1,100.31,-1.5,2.5,-0.01,0.07,0.01,0.12,-0.0,0.0,11976.87,192.0,0.0,0.0,0.0,0.0
1775764053598528384,72840,0.0,1.5,0.016,0.3,0.02,-0.21,100.31,-1.5,2.5,-0.01,0.06,0.05,0.06,-0.0,-0.06,11975.33,198.0,0.0,0.0,0.0,0.0
1775764053692781764,72940,0.0,1.4,0.004,0.3,0.14,-0.18,100.31,-1.5,2.5,-0.02,0.04,0.0,0.12,-0.0,0.06,11975.84,198.0,0.0,0.0,0.0,0.0
1775764053801147227,73040,0.0,1.4,0.008,0.3,-0.1,-0.1,100.31,-1.5,2.5,-0.01,0.05,0.01,-0.12,-0.06,0.0,11977.9,198.0,0.0,0.0,0.0,0.0
1775764053931599058,73140,0.0,1.4,0.0,0.2,0.0,0.06,100.31,-1.5,2.5,0.0,0.08,0.03,-0.12,-0.06,0.06,11974.99,200.0,0.0,0.0,0.0,0.0
1775764054001899500,73240,0.0,1.1,0.004,0.1,-0.08,0.0,100.31,-1.5,2.5,-0.01,0.06,0.01,-0.06,0.06,0.0,11975.16,200.0,0.0,0.0,0.0,0.0
1775764054094111093,73340,0.0,1.5,0.004,0.1,0.1,-0.02,100.31,-1.5,2.5,-0.02,0.04,0.0,0.06,0.25,0.0,11975.16,185.0,0.0,0.0,0.0,0.0
1775764054202507336,73440,0.0,1.4,0.048,0.5,-0.14,-0.06,100.31,-1.5,2.5,-0.01,0.06,0.03,-0.0,0.06,0.0,11973.62,197.0,0.0,0.0,0.0,0.0
1775764054294887672,73540,0.0,1.5,0.04,0.2,-0.06,-0.14,100.31,-1.5,2.5,-0.02,0.07,0.01,-0.12,0.12,0.0,11975.16,197.0,0.0,0.0,0.0,0.0
1775764054391251972,73640,0.0,1.5,0.028,0.6,0.04,-0.12,100.31,-1.5,2.5,0.0,0.07,0.03,0.06,0.06,0.0,11975.84,190.0,0.0,0.0,0.0,0.0
1775764054493602922,73740,0.0,1.4,0.028,0.1,-0.08,-0.1,100.31,-1.5,2.5,0.0,0.06,0.02,0.06,-0.06,-0.12,11975.67,197.0,0.0,0.0,0.0,0.0
1775764054597826585,73840,0.0,1.6,0.012,0.6,0.08,-0.2,100.31,-1.5,2.5,-0.01,0.07,0.03,0.12,-0.06,-0.06,11975.16,197.0,0.0,0.0,0.0,0.0
1775764054696162851,73940,0.0,1.4,0.004,0.5,-0.14,-0.1,100.31,-1.5,2.5,-0.02,0.06,0.01,0.06,-0.0,0.06,11978.07,188.0,0.0,0.0,0.0,0.0
1775764054794489154,74040,0.0,1.4,0.004,0.1,-0.08,-0.02,100.31,-1.5,2.5,0.0,0.07,0.01,-0.06,-0.0,-0.06,11978.93,188.0,0.0,0.0,0.0,0.0
1775764054896855251,74140,0.0,1.1,0.0,0.0,0.02,-0.2,100.31,-1.5,2.5,0.0,0.07,0.02,-0.0,0.06,0.0,11978.07,195.0,0.0,0.0,0.0,0.0
1775764054995135132,74240,0.0,1.4,0.004,0.5,-0.12,-0.08,100.31,-1.5,2.5,-0.02,0.06,0.0,-0.06,-0.12,0.06,11978.07,199.0,0.0,0.0,0.0,0.0
1775764055093465503,74340,0.0,1.3,0.0,0.2,0.06,-0.16,100.31,-1.5,2.5,0.0,0.05,0.02,0.19,0.06,-0.06,11974.64,199.0,0.0,0.0,0.0,0.0
1775764055211585776,74440,0.0,1.4,0.044,0.6,-0.02,-0.18,100.31,-1.5,2.5,-0.03,0.05,0.01,0.06,-0.06,0.06,11973.62,201.0,0.0,0.0,0.0,0.0
1775764055294121508,74541,0.0,1.2,0.04,0.2,-0.06,-0.18,100.31,-1.5,2.5,-0.01,0.06,0.01,-0.06,-0.06,-0.06,11973.27,196.0,0.0,0.0,0.0,0.0
1775764055400090024,74641,0.0,1.3,0.032,0.4,-0.06,-0.1,100.31,-1.5,2.5,-0.02,0.05,0.01,-0.06,0.19,0.0,11974.82,196.0,0.0,0.0,0.0,0.0
1775764055492937691,74741,0.0,1.4,0.02,0.4,-0.1,-0.12,100.31,-1.5,2.5,-0.01,0.06,0.01,-0.12,0.06,0.12,11975.33,203.0,0.0,0.0,0.0,0.0
1775764055601246084,74841,0.0,0.3,0.0,1.1,-0.02,-0.16,100.31,-1.5,2.5,-0.01,0.09,0.01,0.06,-0.0,0.06,11975.16,189.0,0.0,0.0,0.0,0.0
1775764055695554009,74941,0.0,0.3,0.0,1.3,-0.06,-0.14,100.31,-1.5,2.5,-0.02,0.07,0.03,-0.0,0.06,0.0,11976.36,189.0,0.0,0.0,0.0,0.0
1775764055903587191,75041,0.0,0.3,0.0,0.5,-0.02,-0.14,100.31,-1.5,2.5,-0.01,0.09,0.0,-0.0,0.25,0.06,11973.79,202.0,0.0,0.0,0.0,0.0
1775764055917108270,75141,0.0,1.2,0.004,1.0,0.08,-0.08,100.31,-1.5,2.5,-0.01,0.08,0.02,-0.0,0.12,0.06,11975.84,202.0,0.0,0.0,0.0,0.0
1775764056004532998,75241,0.0,1.3,0.004,0.3,-0.08,-0.18,100.31,-1.5,2.5,-0.03,0.07,0.0,-0.0,-0.12,0.0,11977.22,191.0,0.0,0.0,0.0,0.0
1775764056096833488,75341,0.0,1.2,0.008,0.2,0.1,-0.16,100.31,-1.5,2.5,0.02,0.07,0.02,-0.06,0.06,0.0,11974.47,196.0,0.0,0.0,0.0,0.0
1775764056195223165,75441,0.0,1.5,0.036,0.6,-0.02,-0.12,100.31,-1.5,2.5,-0.03,0.04,0.03,-0.0,0.12,-0.06,11977.04,196.0,0.0,0.0,0.0,0.0
1775764056297519979,75541,0.0,0.7,0.04,0.4,-0.02,0.04,100.31,-1.5,2.5,0.0,0.07,0.03,-0.0,0.06,0.0,11974.64,196.0,0.0,0.0,0.0,0.0
