timestamp_ns,time_ms,voltage_left,current_left_ma,voltage_right,current_right_ma,motor_current_left,motor_current_right,euler_x,euler_y,euler_z,acc_lin_x,acc_lin_y,acc_lin_z,gyro_x,gyro_y,gyro_z,sonar_mm,tof_mm,rpm_left,rpm_right,rotations_left,rotations_right
1776358080129141493,211256,0.0,0.1,0.0,1.0,0.02,0.06,0.12,-3.56,3.75,0.02,-0.12,-0.35,0.06,1.0,-0.5,288.12,224.0,0.0,0.0,0.0,
1776358082947256497,211256,0.0,0.1,0.0,1.0,0.02,0.06,0.12,-3.56,3.75,0.02,-0.12,-0.35,0.06,1.0,-0.5,288.12,224.0,0.0,0.0,0.0,
1776358083031471478,1901,0.0,0.3,0.0,0.6,-0.08,-0.04,0.06,-4.0,3.75,0.05,0.11,-0.52,0.12,-0.06,0.12,222.78,229.0,0.0,0.0,0.0,0.0
1776358083133914215,2000,0.0,0.4,0.0,0.2,0.0,-0.04,0.06,-4.0,3.75,0.06,0.08,-0.36,0.06,0.12,-0.25,203.06,228.0,0.0,0.0,0.0,0.0
1776358083232181455,2100,0.0,0.9,0.0,0.5,-0.02,-0.1,0.06,-4.0,3.75,0.04,-0.05,-0.4,-0.19,0.25,-0.25,198.77,228.0,0.0,0.0,0.0,0.0
1776358083340626757,2200,0.0,0.6,0.0,0.5,-0.06,-0.02,0.06,-4.0,3.75,0.03,-0.0,-0.39,0.06,0.12,-0.06,226.89,230.0,0.0,0.0,0.0,0.0
1776358083432858486,2299,0.004,0.4,0.0,0.9,0.06,-0.02,0.06,-4.0,3.75,0.01,0.09,-0.41,-0.06,-0.37,0.0,202.37,228.0,0.0,0.0,0.0,0.0
1776358083531184245,2399,0.0,0.3,0.0,0.5,-0.04,-0.06,0.06,-4.0,3.75,0.0,0.11,-0.34,0.06,0.06,0.0,203.74,228.0,0.0,0.0,0.0,0.0
1776358083633573463,2500,0.0,0.3,0.0,1.2,0.06,-0.12,0.06,-4.0,3.75,-0.02,0.07,-0.35,0.12,-0.0,0.06,234.61,225.0,0.0,0.0,0.0,0.0
1776358083731886907,2599,0.0,0.2,0.0,0.3,-0.08,-0.08,0.06,-4.0,3.75,-0.01,0.04,-0.36,0.12,0.06,0.06,202.71,225.0,0.0,0.0,0.0,0.0
1776358083834281032,2700,0.0,0.6,0.0,0.3,0.12,-0.02,0.06,-4.0,3.75,0.05,0.09,-0.38,0.12,0.06,-0.12,216.78,225.0,0.0,0.0,0.0,0.0
1776358083932584069,2800,0.0,0.2,0.0,1.3,-0.08,-0.08,0.06,-4.0,3.75,0.03,0.08,-0.37,-0.0,0.25,-0.06,234.78,230.0,0.0,0.0,0.0,0.0
1776358084034987953,2900,0.0,0.3,0.0,0.9,-0.08,-0.02,0.06,-4.0,3.75,0.03,0.04,-0.38,-0.19,-0.12,-0.12,225.35,231.0,0.0,0.0,0.0,0.0
1776358084133235488,3000,0.004,-0.1,0.0,0.4,-0.06,-0.08,0.06,-4.0,3.75,0.01,0.08,-0.34,-0.06,0.12,0.0,230.5,231.0,0.0,0.0,0.0,0.0
1776358084231591525,3100,0.0,0.1,0.0,0.7,0.02,-0.1,0.06,-4.0,3.75,0.02,0.04,-0.39,0.06,-0.12,-0.06,225.69,231.0,0.0,0.0,0.0,0.0
1776358084334013890,3200,0.0,0.2,0.0,0.8,0.0,-0.06,0.06,-4.0,3.75,0.04,0.03,-0.37,-0.06,-0.12,0.0,203.74,231.0,0.0,0.0,0.0,0.0
1776358084432277518,3300,0.0,0.6,0.0,1.2,0.04,-0.06,0.06,-4.0,3.75,0.0,0.07,-0.35,-0.0,-0.0,0.06,203.74,226.0,0.0,0.0,0.0,0.0
1776358084534680846,3400,0.0,0.1,0.0,0.2,0.04,0.0,0.06,-4.0,3.75,0.02,0.07,-0.4,-0.0,-0.0,0.06,199.45,225.0,0.0,0.0,0.0,0.0
1776358084632984030,3500,0.0,0.2,0.0,1.0,0.06,-0.08,0.06,-4.0,3.75,0.02,0.05,-0.38,-0.0,-0.19,-0.06,199.45,225.0,0.0,0.0,0.0,0.0
1776358084731250472,3600,0.0,-0.1,0.0,0.8,0.02,0.02,0.06,-4.0,3.75,0.01,0.09,-0.37,-0.06,0.12,0.12,203.57,224.0,0.0,0.0,0.0,0.0
1776358084833684227,3699,0.0,0.0,0.0,1.0,-0.14,-0.06,0.06,-4.0,3.75,0.0,0.08,-0.36,-0.06,-0.06,-0.06,212.66,225.0,0.0,0.0,0.0,0.0
1776358084931983429,3799,0.0,0.1,0.0,0.2,0.02,-0.08,0.06,-4.0,3.75,0.03,0.06,-0.38,-0.12,0.06,0.0,217.46,225.0,0.0,0.0,0.0,0.0
1776358085034385609,3900,0.0,0.1,0.0,0.7,0.02,-0.14,0.06,-4.0,3.75,0.01,0.07,-0.36,-0.06,0.06,0.06,210.94,224.0,0.0,0.0,0.0,0.0
1776358085132652847,3999,0.0,0.4,0.0,0.6,-0.02,-0.14,0.06,-4.0,3.75,0.01,0.05,-0.38,-0.0,-0.0,0.06,207.34,224.0,0.0,0.0,0.0,0.0
1776358085235073675,4099,0.0,0.6,0.0,0.5,-0.08,-0.06,0.06,-4.0,3.75,0.01,0.08,-0.36,0.19,-0.0,-0.06,207.34,229.0,0.0,0.0,0.0,0.0
1776358085333386359,4200,0.004,0.3,0.0,1.2,0.0,-0.1,0.06,-4.0,3.75,0.02,0.1,-0.37,0.06,-0.06,0.06,206.83,229.0,0.0,0.0,0.0,0.0
1776358085431687653,4299,0.0,0.7,0.0,1.0,-0.04,-0.08,0.06,-4.0,3.75,0.0,0.08,-0.37,0.06,-0.19,0.06,211.63,229.0,0.0,0.0,0.0,0.0
1776358085534088165,4399,0.004,0.1,0.0,0.9,-0.04,-0.08,0.06,-4.0,3.75,0.0,0.08,-0.35,-0.0,-0.0,-0.06,198.94,228.0,0.0,0.0,0.0,0.0
1776358085632391663,4499,0.0,0.3,0.0,0.7,-0.2,-0.06,0.06,-4.0,3.75,0.01,0.01,-0.35,0.06,-0.19,0.0,222.09,224.0,0.0,0.0,0.0,0.0
1776358085730668957,4598,0.004,0.1,0.0,0.8,0.08,0.0,0.06,-4.0,3.75,0.18,0.17,-0.43,-0.25,-0.44,0.06,219.18,224.0,0.0,0.0,0.0,0.0
1776358085833099767,4699,0.0,0.2,0.0,0.3,-0.06,-0.12,0.06,-4.0,3.75,0.02,0.21,-0.34,0.06,-0.31,0.12,206.66,228.0,0.0,0.0,0.0,0.0
1776358085931383468,4799,0.0,0.3,0.0,1.2,-0.14,-0.06,0.06,-3.94,3.75,0.0,0.06,-0.38,0.12,0.25,-0.06,217.98,227.0,0.0,0.0,0.0,0.0
1776358086033791814,4898,0.0,0.1,0.0,1.0,0.16,-0.21,0.06,-3.94,3.75,0.0,-0.04,-0.37,0.12,-0.06,-0.06,226.89,227.0,0.0,0.0,0.0,0.0
1776358086132055496,4998,0.008,0.0,0.0,0.4,-0.04,0.02,0.06,-3.94,3.75,0.01,0.2,-0.38,0.06,-0.75,0.19,280.23,225.0,0.0,0.0,0.0,0.0
1776358086230413920,5098,0.0,0.6,0.0,0.1,-0.23,0.02,0.06,-3.94,3.75,0.02,0.17,-0.39,0.12,0.06,0.06,232.9,222.0,0.0,0.0,0.0,0.0
1776358086332806413,5197,0.004,0.1,0.0,0.9,-0.04,-0.08,0.06,-3.88,3.75,0.0,0.02,-0.35,-0.0,0.44,-0.19,228.61,222.0,0.0,0.0,0.0,0.0
1776358086431070873,5298,0.0,0.0,0.0,0.3,0.02,-0.14,0.06,-3.88,3.75,-0.02,0.05,-0.37,-0.0,-0.31,0.06,232.9,226.0,0.0,0.0,0.0,0.0
1776358086533488440,5398,0.0,0.5,0.0,0.4,-0.06,-0.08,0.06,-3.88,3.75,0.03,0.21,-0.37,-0.0,-0.37,0.25,210.26,226.0,0.0,0.0,0.0,0.0
1776358086631790863,5497,0.0,0.2,0.0,1.1,0.08,-0.04,0.06,-3.88,3.75,0.03,0.03,-0.4,-0.0,0.88,-0.25,211.46,228.0,0.0,0.0,0.0,0.0
1776358086734189968,5597,0.004,0.2,0.004,0.3,-0.16,0.0,0.06,-3.88,3.75,0.01,-0.0,-0.4,0.12,0.31,-0.31,211.46,228.0,0.0,0.0,0.0,0.0
1776358086832508688,5698,0.0,0.9,0.0,0.3,0.0,-0.18,0.06,-3.88,3.75,0.02,-0.0,-0.39,-0.0,-0.31,0.19,218.32,228.0,0.0,0.0,0.0,0.0
1776358086930786573,5797,0.0,0.5,0.004,0.3,-0.1,0.0,0.06,-3.88,3.75,0.0,0.17,-0.37,0.12,-0.37,0.12,288.63,227.0,0.0,0.0,0.0,0.0
1776358087033198197,5897,0.0,0.3,0.0,0.3,0.1,0.08,0.06,-3.88,3.75,0.03,0.13,-0.39,-0.0,0.19,-0.12,226.38,230.0,0.0,0.0,0.0,0.0
1776358087131444785,5998,0.0,0.4,0.0,1.0,-0.1,-0.14,0.06,-3.88,3.75,0.03,-0.0,-0.39,-0.12,0.37,-0.19,293.78,230.0,0.0,0.0,0.0,0.0
1776358087233898704,6098,0.0,0.9,0.0,0.8,-0.06,0.08,0.06,-3.88,3.75,0.0,-0.01,-0.37,-0.0,0.12,-0.12,297.04,228.0,0.0,0.0,0.0,0.0
1776358087336299067,6199,0.004,0.2,0.0,1.0,-0.08,0.0,0.06,-3.88,3.75,0.04,0.01,-0.42,-0.0,-0.06,0.0,238.56,229.0,0.0,0.0,0.0,0.0
1776358087434611545,6300,0.0,0.6,0.0,1.1,-0.04,-0.06,0.06,-3.88,3.75,0.01,0.09,-0.4,-0.0,0.12,-0.06,297.04,229.0,0.0,0.0,0.0,0.0
1776358087537000408,6401,0.0,0.2,0.0,0.4,0.12,-0.08,0.06,-3.88,3.75,0.02,0.05,-0.41,-0.0,0.31,-0.25,240.79,229.0,0.0,0.0,0.0,0.0
1776358087639410049,6502,0.0,0.9,0.0,0.3,-0.04,-0.06,0.06,-3.88,3.75,0.04,-0.0,-0.38,-0.0,-0.25,0.0,231.35,229.0,0.0,0.0,0.0,0.0
1776358087737687138,6602,0.0,0.5,0.0,0.5,0.0,-0.12,0.06,-3.88,3.75,0.01,0.01,-0.39,-0.06,-0.19,0.06,219.18,231.0,0.0,0.0,0.0,0.0
1776358087840090556,6702,0.0,0.5,0.0,0.5,-0.12,0.06,0.06,-3.88,3.75,0.01,0.1,-0.41,-0.06,-0.06,0.12,215.06,230.0,0.0,0.0,0.0,0.0
1776358087938400071,6803,0.0,-0.1,0.0,0.2,-0.02,-0.12,0.06,-3.88,3.75,0.03,0.04,-0.4,-0.0,0.12,0.06,219.18,230.0,0.0,0.0,0.0,0.0
1776358088036704660,6902,0.004,0.1,0.0,1.1,0.04,-0.2,0.06,-3.88,3.75,0.03,0.05,-0.4,0.12,-0.06,0.06,218.15,228.0,0.0,0.0,0.0,0.0
1776358088139064874,7003,0.004,0.3,0.0,0.7,-0.02,-0.1,0.06,-3.88,3.75,0.0,0.07,-0.37,0.06,-0.19,0.0,215.06,229.0,0.0,0.0,0.0,0.0
1776358088247546970,7104,0.0,0.4,0.004,0.3,-0.08,-0.12,0.06,-3.88,3.75,0.02,0.04,-0.38,-0.06,0.06,0.0,228.27,229.0,0.0,0.0,0.0,0.0
1776358088339794566,7203,0.0,0.1,0.0,0.7,-0.16,0.08,0.06,-3.88,3.75,0.02,0.01,-0.38,0.06,0.12,0.06,215.06,228.0,0.0,0.0,0.0,0.0
1776358088438091913,7303,0.0,0.5,0.0,1.0,-0.02,-0.06,0.06,-3.88,3.75,0.0,0.03,-0.38,-0.0,-0.0,0.0,224.15,229.0,0.0,0.0,0.0,0.0
1776358088540495090,7404,0.004,0.3,0.0,0.8,0.04,-0.02,0.06,-3.88,3.75,0.04,0.05,-0.37,-0.12,-0.12,-0.12,219.35,229.0,0.0,0.0,0.0,0.0
1776358088638799957,7503,0.0,0.4,0.0,1.1,-0.02,0.14,0.06,-3.88,3.75,0.04,0.06,-0.39,0.12,-0.0,-0.06,215.58,229.0,0.0,0.0,0.0,0.0
1776358088741197726,7603,0.0,0.9,0.0,0.3,-0.12,-0.18,0.06,-3.88,3.75,0.02,0.02,-0.42,0.06,0.19,0.06,207.34,229.0,0.0,0.0,0.0,0.0
1776358088839502981,7703,0.0,0.3,0.0,1.2,-0.14,-0.18,0.06,-3.88,3.75,0.01,0.03,-0.4,-0.0,-0.06,0.06,207.34,229.0,0.0,0.0,0.0,0.0
1776358088937849237,7803,0.0,0.9,0.0,0.5,-0.02,-0.04,0.06,-3.88,3.75,0.01,0.05,-0.37,0.12,-0.19,-0.19,207.17,229.0,0.0,0.0,0.0,0.0
1776358089040197376,7903,0.0,0.1,0.0,0.9,-0.16,-0.14,0.06,-3.88,3.75,0.03,0.05,-0.4,0.12,-0.06,0.0,206.14,229.0,0.0,0.0,0.0,0.0
1776358089138511964,8003,0.0,0.2,0.0,0.4,-0.12,-0.08,0.06,-3.88,3.75,0.02,0.04,-0.4,-0.0,0.06,-0.06,207.34,229.0,0.0,0.0,0.0,0.0
1776358089236771718,8102,0.0,0.7,0.0,0.6,-0.06,0.0,0.06,-3.88,3.75,0.01,0.03,-0.4,0.12,-0.25,0.0,207.17,231.0,0.0,0.0,0.0,0.0
1776358089339206636,8202,0.004,0.3,0.0,1.1,-0.02,-0.08,0.06,-3.88,3.75,0.02,0.02,-0.4,-0.06,-0.12,-0.06,211.46,231.0,0.0,0.0,0.0,0.0
1776358089437498779,8302,0.0,0.5,0.004,0.9,0.0,-0.1,0.06,-3.88,3.75,0.0,0.07,-0.35,-0.06,-0.0,-0.06,211.46,230.0,0.0,0.0,0.0,0.0
1776358089539953400,8402,0.0,1.0,0.0,0.9,-0.04,0.02,0.06,-3.88,3.75,0.02,0.07,-0.4,-0.06,-0.25,0.0,206.14,230.0,0.0,0.0,0.0,0.0
1776358089642301057,8503,0.0,0.3,0.008,0.9,0.0,-0.08,0.06,-3.88,3.75,0.04,0.01,-0.39,-0.12,0.06,0.06,206.31,230.0,0.0,0.0,0.0,0.0
1776358089740607404,8604,0.0,0.4,0.0,1.2,-0.1,-0.02,0.06,-3.88,3.75,0.02,0.04,-0.36,0.12,-0.0,0.0,207.34,229.0,0.0,0.0,0.0,0.0
1776358089849070240,8704,0.0,0.2,0.0,0.9,-0.1,-0.08,0.06,-3.88,3.75,0.02,0.07,-0.39,-0.0,-0.37,0.0,207.17,229.0,0.0,0.0,0.0,0.0
1776358089941304224,8804,0.0,0.4,0.0,0.8,0.02,-0.14,0.06,-3.88,3.75,0.03,0.05,-0.38,-0.12,0.06,-0.06,203.06,229.0,0.0,0.0,0.0,0.0
1776358090039604238,8903,0.0,0.1,0.0,0.9,0.0,0.04,0.06,-3.88,3.75,0.02,0.03,-0.4,-0.0,0.12,0.0,203.06,228.0,0.0,0.0,0.0,0.0
1776358090142016025,9004,0.0,-0.1,0.0,0.6,-0.1,-0.1,0.06,-3.88,3.75,0.0,0.03,-0.44,-0.0,-0.06,0.06,207.17,228.0,0.0,0.0,0.0,0.0
1776358090240313797,9104,0.0,0.7,0.0,0.3,0.02,-0.04,0.06,-3.88,3.75,0.01,0.05,-0.43,-0.0,-0.0,0.0,210.43,228.0,0.0,0.0,0.0,0.0
1776358090342706232,9204,0.0,0.2,0.0,0.8,0.02,0.0,0.06,-3.88,3.75,0.02,0.06,-0.39,0.06,-0.0,-0.12,210.43,228.0,0.0,0.0,0.0,0.0
1776358090451165918,9305,0.004,0.2,0.0,0.5,0.02,-0.02,0.06,-3.88,3.75,0.02,0.06,-0.42,-0.06,-0.06,0.0,215.75,228.0,0.0,0.0,0.0,0.0
1776358090543406754,9406,0.0,0.5,0.0,1.2,0.0,0.02,0.06,-3.88,3.75,0.03,0.03,-0.4,0.06,-0.0,-0.06,215.58,230.0,0.0,0.0,0.0,0.0
1776358090641706989,9505,0.0,1.0,0.0,0.3,0.0,0.08,0.06,-3.88,3.75,0.04,0.02,-0.38,-0.0,0.19,-0.06,967.77,230.0,0.0,0.0,0.0,0.0
1776358090744156702,9606,0.004,0.5,0.0,1.1,0.02,0.06,0.06,-3.88,3.75,0.03,0.03,-0.38,-0.12,0.06,0.06,218.83,230.0,0.0,0.0,0.0,0.0
1776358090842412418,9706,0.004,0.1,0.0,0.9,-0.1,-0.14,0.06,-3.88,3.75,0.04,0.05,-0.39,0.12,-0.06,0.0,219.86,230.0,0.0,0.0,0.0,0.0
1776358090944803038,9805,0.004,0.4,0.0,0.5,0.08,-0.14,0.06,-3.88,3.75,0.02,0.05,-0.42,-0.0,-0.0,0.19,214.72,229.0,0.0,0.0,0.0,0.0
1776358091043095643,9906,0.0,0.2,0.0,0.9,0.12,-0.08,0.06,-3.88,3.75,0.01,0.06,-0.38,0.12,-0.0,-0.06,236.67,229.0,0.0,0.0,0.0,0.0
1776358091151431235,10006,0.004,-0.1,0.0,0.8,0.14,0.0,0.06,-3.88,3.75,0.0,0.02,-0.41,0.12,-0.0,-0.06,240.61,230.0,0.0,0.0,0.0,0.0
1776358091243815609,10105,0.0,0.1,0.0,0.2,-0.04,-0.08,0.06,-3.88,3.75,0.02,0.07,-0.41,0.12,-0.12,0.12,223.46,230.0,0.0,0.0,0.0,0.0
1776358091342098843,10205,0.0,0.4,0.0,1.2,0.1,-0.1,0.06,-3.88,3.75,0.01,0.06,-0.39,-0.0,-0.12,0.12,222.26,228.0,0.0,0.0,0.0,0.0
1776358091444506481,10306,0.008,0.2,0.0,0.8,0.04,-0.04,0.06,-3.88,3.75,0.02,0.05,-0.39,0.12,-0.06,0.06,227.58,230.0,0.0,0.0,0.0,0.0
1776358091542813771,10406,0.0,0.3,0.0,0.9,0.0,0.0,0.06,-3.88,3.75,0.0,0.06,-0.4,-0.0,0.12,0.06,244.9,230.0,0.0,0.0,0.0,0.0
1776358091645189631,10506,0.0,0.2,0.004,0.6,0.04,-0.06,0.06,-3.88,3.75,0.01,0.03,-0.42,-0.06,-0.19,0.0,236.5,229.0,0.0,0.0,0.0,0.0
1776358091743537126,10606,0.0,0.2,0.0,1.0,-0.1,-0.02,0.06,-3.88,3.75,0.01,0.04,-0.39,-0.06,0.06,0.0,240.79,229.0,0.0,0.0,0.0,0.0
1776358091841787156,10705,0.0,0.2,0.0,0.7,-0.12,-0.06,0.06,-3.88,3.75,0.03,0.09,-0.41,-0.0,-0.06,0.0,293.95,229.0,0.0,0.0,0.0,0.0
1776358091944212664,10806,0.004,0.1,0.0,1.2,-0.1,-0.04,0.06,-3.88,3.75,0.04,0.04,-0.4,-0.19,0.06,0.12,297.04,228.0,0.0,0.0,0.0,0.0
1776358092042506658,10906,0.0,0.9,0.0,1.0,-0.12,-0.12,0.06,-3.88,3.75,0.02,0.04,-0.4,-0.06,-0.06,0.06,297.04,230.0,0.0,0.0,0.0,0.0
1776358092144889035,11005,0.0,0.5,0.0,0.9,0.2,0.04,0.06,-3.88,3.75,0.0,0.06,-0.39,0.12,-0.19,0.0,223.46,230.0,0.0,0.0,0.0,0.0
1776358092243191047,11106,0.0,0.8,0.0,1.0,-0.02,-0.12,0.06,-3.88,3.75,0.0,0.04,-0.41,0.06,0.06,0.06,223.46,229.0,0.0,0.0,0.0,0.0
1776358092345620703,11206,0.0,0.1,0.0,0.3,-0.04,-0.1,0.06,-3.88,3.75,0.01,0.03,-0.4,-0.06,0.19,0.0,219.18,229.0,0.0,0.0,0.0,0.0
1776358092443883140,11307,0.008,0.2,0.0,0.3,0.1,0.02,0.06,-3.88,3.75,0.01,0.06,-0.4,-0.0,-0.0,0.0,215.06,231.0,0.0,0.0,0.0,0.0
1776358092546317019,11407,0.0,0.5,0.0,1.0,-0.06,0.0,0.06,-3.88,3.75,0.01,0.06,-0.39,0.06,-0.12,-0.06,218.15,230.0,0.0,0.0,0.0,0.0
1776358092644624882,11507,0.0,0.5,0.0,0.5,0.02,-0.12,0.06,-3.88,3.75,0.03,0.03,-0.42,0.12,-0.0,0.0,215.06,230.0,0.0,0.0,0.0,0.0
1776358092747010556,11607,0.0,0.6,0.0,0.9,0.04,-0.04,0.06,-3.88,3.75,0.04,0.03,-0.42,-0.0,-0.0,-0.06,219.69,230.0,0.0,0.0,0.0,0.0
1776358092845315902,11707,0.0,0.3,0.0,0.3,0.02,-0.04,0.06,-3.88,3.75,0.03,0.04,-0.4,-0.0,-0.06,0.06,215.06,230.0,0.0,0.0,0.0,0.0
1776358092943627413,11806,0.004,0.2,0.0,1.0,-0.04,-0.1,0.06,-3.88,3.75,0.03,0.03,-0.38,-0.12,0.12,-0.06,210.94,230.0,0.0,0.0,0.0,0.0
1776358093046037088,11906,0.0,0.0,0.0,0.5,-0.1,-0.16,0.06,-3.88,3.75,0.03,0.06,-0.36,-0.0,-0.06,0.06,215.06,230.0,0.0,0.0,0.0,0.0
1776358093144288190,12006,0.0,0.2,0.0,0.1,0.04,0.04,0.06,-3.88,3.75,0.0,0.01,-0.37,0.06,-0.0,0.0,214.89,228.0,0.0,0.0,0.0,0.0
1776358093246726013,12106,0.0,0.8,0.0,1.0,0.04,0.02,0.06,-3.88,3.75,0.04,0.04,-0.38,0.19,0.12,0.06,210.94,228.0,0.0,0.0,0.0,0.0
1776358093345023357,12206,0.0,0.1,0.0,1.1,-0.06,-0.16,0.06,-3.88,3.75,0.02,0.06,-0.36,-0.12,0.06,-0.06,215.06,230.0,0.0,0.0,0.0,0.0
1776358093443334850,12306,0.004,0.2,0.0,0.9,0.0,-0.04,0.06,-3.88,3.75,0.02,0.05,-0.38,-0.0,0.12,-0.06,215.06,230.0,0.0,0.0,0.0,0.0
1776358093545725764,12405,0.0,0.4,0.008,0.8,-0.02,0.08,0.06,-3.88,3.75,0.01,0.03,-0.38,-0.0,-0.12,0.0,226.38,230.0,0.0,0.0,0.0,0.0
1776358093644021608,12505,0.0,0.0,0.0,0.9,-0.08,-0.08,0.06,-3.88,3.75,0.03,0.04,-0.4,-0.06,-0.25,0.12,227.58,229.0,0.0,0.0,0.0,0.0
1776358093746424504,12606,0.004,0.3,0.0,0.3,0.0,0.02,0.06,-3.88,3.75,0.04,0.06,-0.37,-0.0,0.06,-0.12,221.75,229.0,0.0,0.0,0.0,0.0
1776358093844725923,12706,0.0,0.5,0.0,0.3,-0.04,-0.14,0.06,-3.88,3.75,0.01,0.03,-0.39,-0.0,-0.06,0.0,226.89,229.0,0.0,0.0,0.0,0.0
1776358093947117059,12806,0.0,0.0,0.0,0.5,-0.12,-0.02,0.06,-3.88,3.75,0.0,0.06,-0.41,0.06,-0.19,0.0,231.87,229.0,0.0,0.0,0.0,0.0
1776358094045427292,12906,0.0,0.3,0.0,0.2,-0.04,-0.04,0.06,-3.88,3.75,0.04,0.05,-0.38,0.06,-0.06,0.12,234.96,229.0,0.0,0.0,0.0,0.0
1776358094143682080,13005,0.0,0.2,0.0,1.0,-0.16,-0.02,0.06,-3.88,3.75,0.02,0.06,-0.39,0.19,-0.0,-0.12,223.46,230.0,0.0,0.0,0.0,0.0
1776358094246117587,13105,0.0,0.6,0.0,1.0,0.04,0.02,0.06,-3.88,3.75,0.0,0.03,-0.36,0.12,0.06,0.0,219.18,230.0,0.0,0.0,0.0,0.0
1776358094344420967,13206,0.004,0.4,0.0,1.1,-0.1,0.04,0.06,-3.88,3.75,0.01,0.05,-0.4,-0.0,-0.0,0.0,213.86,230.0,0.0,0.0,0.0,0.0
1776358094446824140,13305,0.0,0.4,0.0,0.4,0.0,-0.06,0.06,-3.88,3.75,0.02,0.07,-0.38,0.06,0.06,-0.06,222.95,229.0,0.0,0.0,0.0,0.0
1776358094545146540,13406,0.0,0.4,0.0,1.3,0.04,-0.1,0.06,-3.88,3.75,0.01,0.03,-0.37,-0.12,-0.0,0.0,219.86,229.0,0.0,0.0,0.0,0.0
1776358094653738022,13506,0.0,0.9,0.0,0.7,0.04,-0.04,0.06,-3.88,3.75,0.0,0.04,-0.38,-0.0,0.12,0.0,219.86,229.0,0.0,0.0,0.0,0.0
1776358094745843427,13605,0.0,0.1,0.0,1.5,-0.02,-0.08,0.06,-3.88,3.75,0.02,0.05,-0.36,-0.0,0.12,0.0,219.86,229.0,0.0,0.0,0.0,0.0
1776358094844131530,13705,0.004,0.1,0.0,0.8,-0.08,-0.08,0.06,-3.88,3.75,0.02,0.04,-0.39,-0.0,-0.0,0.0,215.58,229.0,0.0,0.0,0.0,0.0
1776358094946526647,13805,0.0,0.0,0.0,1.5,0.02,-0.02,0.06,-3.88,3.75,0.0,0.03,-0.39,0.12,-0.0,-0.06,214.55,230.0,0.0,0.0,0.0,0.0
1776358095044832732,13905,0.0,0.0,0.0,1.0,-0.02,-0.02,0.06,-3.88,3.75,0.01,0.03,-0.36,-0.06,-0.25,0.0,218.83,230.0,0.0,0.0,0.0,0.0
1776358095147224052,14006,0.0,0.3,0.0,0.9,-0.02,0.0,0.06,-3.88,3.75,0.04,0.05,-0.38,0.06,0.06,0.06,219.86,230.0,0.0,0.0,0.0,0.0
1776358095245532840,14106,0.0,0.3,0.0,0.3,-0.06,-0.02,0.06,-3.88,3.75,0.02,0.04,-0.37,0.06,-0.0,0.0,223.98,230.0,0.0,0.0,0.0,0.0
1776358095347929993,14205,0.0,0.6,0.0,0.3,-0.04,-0.06,0.06,-3.88,3.75,0.03,0.05,-0.39,-0.0,0.06,-0.06,222.95,228.0,0.0,0.0,0.0,0.0
1776358095446238448,14306,0.004,0.2,0.0,0.2,-0.14,-0.04,0.06,-3.88,3.75,0.01,0.02,-0.39,0.19,-0.12,-0.06,222.95,228.0,0.0,0.0,0.0,0.0
1776358095548631879,14407,0.0,0.7,0.0,1.3,-0.1,0.0,0.06,-3.88,3.75,0.0,0.04,-0.38,-0.0,0.12,0.06,223.98,229.0,0.0,0.0,0.0,0.0
1776358095646940408,14507,0.004,0.3,0.0,1.1,0.06,-0.08,0.06,-3.88,3.75,0.0,0.05,-0.35,-0.0,-0.06,-0.06,223.98,228.0,0.0,0.0,0.0,0.0
1776358095749341728,14607,0.0,0.8,0.0,0.5,-0.12,-0.04,0.06,-3.88,3.75,0.0,0.07,-0.4,-0.06,-0.12,0.06,235.98,228.0,0.0,0.0,0.0,0.0
1776358095847639182,14708,0.008,0.0,0.0,0.8,0.1,0.02,0.06,-3.88,3.75,0.0,0.04,-0.37,-0.0,0.12,0.0,231.18,228.0,0.0,0.0,0.0,0.0
1776358095950038132,14808,0.0,0.4,0.0,1.2,-0.06,-0.04,0.06,-3.88,3.75,0.01,0.07,-0.37,-0.06,-0.06,-0.06,231.18,228.0,0.0,0.0,0.0,0.0
1776358096048336938,14908,0.0,0.1,0.0,0.5,-0.08,-0.14,0.06,-3.88,3.75,0.02,0.06,-0.38,-0.06,0.19,0.12,251.08,228.0,0.0,0.0,0.0,0.0
1776358096150724535,15008,0.0,0.3,0.0,0.8,-0.18,0.04,0.06,-3.88,3.75,0.03,0.04,-0.38,0.06,0.06,0.06,231.18,229.0,0.0,0.0,0.0,0.0
1776358096249044730,15109,0.0,0.2,0.0,1.3,-0.04,-0.1,0.06,-3.88,3.75,0.02,0.06,-0.36,0.12,0.19,0.0,227.07,229.0,0.0,0.0,0.0,0.0
1776358096351436827,15209,0.0,0.5,0.0,1.0,0.12,0.0,0.06,-3.88,3.75,0.02,0.05,-0.36,0.12,-0.0,-0.06,226.89,230.0,0.0,0.0,0.0,0.0
1776358096449733670,15308,0.0,1.0,0.0,0.1,-0.02,0.0,0.06,-3.88,3.75,0.04,0.02,-0.4,-0.0,0.06,0.0,219.18,230.0,0.0,0.0,0.0,0.0
1776358096558188834,15409,0.0,0.1,0.0,1.1,0.0,-0.08,0.06,-3.88,3.75,0.04,0.04,-0.37,-0.12,0.06,-0.12,213.86,230.0,0.0,0.0,0.0,0.0
1776358096650432425,15509,0.004,0.4,0.0,1.0,0.02,-0.06,0.06,-3.88,3.75,0.02,0.03,-0.38,-0.0,-0.06,-0.06,214.03,228.0,0.0,0.0,0.0,0.0
1776358096758811939,15609,0.0,0.7,0.0,0.2,0.04,-0.04,0.06,-3.88,3.75,0.01,0.04,-0.38,-0.06,0.06,-0.06,215.06,230.0,0.0,0.0,0.0,0.0
1776358096851134143,15710,0.0,0.4,0.0,1.0,-0.04,0.08,0.06,-3.88,3.75,0.02,0.01,-0.4,0.06,0.06,0.0,214.89,230.0,0.0,0.0,0.0,0.0
1776358096956409715,15810,0.0,0.4,0.0,0.8,-0.08,-0.08,0.06,-3.88,3.75,0.03,0.05,-0.38,-0.06,0.06,0.0,215.06,229.0,0.0,0.0,0.0,0.0
1776358097051834379,15909,0.0,0.1,0.0,0.9,0.08,-0.1,0.06,-3.88,3.75,0.01,0.04,-0.41,0.06,-0.0,0.12,215.06,229.0,0.0,0.0,0.0,0.0
1776358097150140147,16009,0.004,0.5,0.0,0.8,0.14,0.02,0.06,-3.88,3.75,0.03,0.01,-0.37,0.12,0.06,0.06,215.06,229.0,0.0,0.0,0.0,0.0
1776358097252539058,16109,0.004,0.5,0.0,1.1,0.1,-0.04,0.06,-3.88,3.75,0.0,0.04,-0.38,-0.12,-0.06,-0.06,215.06,229.0,0.0,0.0,0.0,0.0
1776358097350846049,16209,0.004,-0.1,0.0,1.3,0.02,-0.04,0.06,-3.88,3.75,0.03,0.02,-0.37,-0.0,-0.12,0.12,219.35,229.0,0.0,0.0,0.0,0.0
1776358097449101353,16309,0.0,0.3,0.004,0.4,-0.06,0.02,0.06,-3.88,3.75,0.01,0.04,-0.39,-0.0,-0.0,0.06,215.06,230.0,0.0,0.0,0.0,0.0
1776358097551540080,16409,0.004,0.2,0.0,0.2,0.04,-0.02,0.06,-3.88,3.75,0.01,0.03,-0.38,0.25,-0.06,-0.06,219.18,228.0,0.0,0.0,0.0,0.0
1776358097649842737,16508,0.0,0.5,0.0,0.0,-0.04,-0.06,0.06,-3.88,3.75,0.02,0.04,-0.37,-0.0,-0.12,0.0,219.18,228.0,0.0,0.0,0.0,0.0
1776358097752326131,16608,0.0,1.0,0.0,0.2,-0.1,0.08,0.06,-3.88,3.75,0.05,0.05,-0.38,-0.12,-0.06,0.06,218.32,230.0,0.0,0.0,0.0,0.0
1776358097850545138,16709,0.0,0.5,0.0,0.3,-0.12,0.04,0.06,-3.88,3.75,0.03,0.03,-0.38,0.06,-0.12,0.06,218.15,229.0,0.0,0.0,0.0,0.0
1776358097952942606,16809,0.0,0.2,0.0,0.2,0.04,-0.1,0.06,-3.88,3.75,0.04,0.05,-0.39,-0.12,-0.06,0.12,230.84,229.0,0.0,0.0,0.0,0.0
1776358098051204447,16909,0.004,0.4,0.0,0.9,-0.06,0.06,0.06,-3.88,3.75,0.0,0.02,-0.39,-0.0,-0.0,-0.06,235.98,229.0,0.0,0.0,0.0,0.0
1776358098149497658,17009,0.0,0.6,0.0,0.3,-0.08,-0.04,0.06,-3.88,3.75,0.02,0.04,-0.36,-0.0,0.12,0.0,231.7,230.0,0.0,0.0,0.0,0.0
1776358098251944441,17108,0.0,0.2,0.0,0.5,0.16,-0.04,0.06,-3.88,3.75,0.03,0.06,-0.41,0.06,0.12,0.0,234.96,230.0,0.0,0.0,0.0,0.0
1776358098350251264,17208,0.004,0.3,0.0,0.3,0.04,-0.06,0.06,-3.88,3.75,0.02,0.02,-0.36,0.12,-0.19,0.06,222.26,230.0,0.0,0.0,0.0,0.0
1776358098452644971,17309,0.0,0.4,0.0,0.4,-0.14,0.04,0.06,-3.88,3.75,0.04,0.02,-0.39,-0.0,-0.06,0.0,219.18,230.0,0.0,0.0,0.0,0.0
1776358098550941442,17409,0.004,0.5,0.0,1.0,-0.02,-0.14,0.06,-3.88,3.75,0.03,0.06,-0.39,-0.0,-0.0,0.0,219.18,230.0,0.0,0.0,0.0,0.0
1776358098649229468,17509,0.0,0.2,0.0,1.0,0.14,0.04,0.06,-3.88,3.75,0.04,0.03,-0.38,0.06,-0.19,-0.06,214.03,229.0,0.0,0.0,0.0,0.0
1776358098751653750,17608,0.0,0.2,0.0,0.8,-0.02,-0.1,0.06,-3.88,3.75,0.02,0.01,-0.37,-0.0,-0.12,0.12,215.06,229.0,0.0,0.0,0.0,0.0
1776358098860073153,17709,0.004,0.1,0.0,0.8,0.04,0.02,0.06,-3.88,3.75,0.03,0.04,-0.37,-0.0,-0.06,0.0,223.29,228.0,0.0,0.0,0.0,0.0
1776358098952346706,17809,0.0,0.7,0.0,0.8,0.04,-0.08,0.06,-3.88,3.75,0.01,0.05,-0.35,-0.0,-0.06,0.0,235.3,229.0,0.0,0.0,0.0,0.0
1776358099050635602,17908,0.0,0.3,0.0,1.1,0.06,-0.04,0.06,-3.88,3.75,0.03,0.06,-0.4,-0.0,-0.0,-0.06,238.9,229.0,0.0,0.0,0.0,0.0
1776358099159058838,18008,0.0,0.2,0.0,1.0,0.0,-0.16,0.06,-3.88,3.75,0.0,0.03,-0.36,0.12,0.06,-0.06,229.47,226.0,0.0,0.0,0.0,0.0
1776358099251354317,18108,0.004,0.1,0.0,1.1,-0.18,-0.1,0.06,-3.88,3.75,0.0,0.01,-0.37,-0.0,0.06,0.06,234.78,226.0,0.0,0.0,0.0,0.0
1776358099359791127,18208,0.0,0.3,0.0,0.3,-0.02,-0.08,0.06,-3.88,3.75,0.0,0.06,-0.38,0.06,-0.37,0.12,218.15,227.0,0.0,0.0,0.0,0.0
1776358099452027494,18309,0.0,0.3,0.0,0.7,-0.04,0.0,0.06,-3.88,3.75,0.0,0.06,-0.36,-0.06,-0.06,0.12,214.03,227.0,0.0,0.0,0.0,0.0
1776358099554448497,18410,0.0,0.6,0.0,0.8,-0.18,-0.02,0.06,-3.88,3.75,0.01,0.05,-0.42,0.06,-0.0,-0.12,211.46,227.0,0.0,0.0,0.0,0.0
1776358099652755690,18509,0.0,-0.1,0.0,1.0,-0.02,-0.1,0.06,-3.88,3.75,0.01,0.06,-0.39,-0.06,0.19,-0.12,215.58,228.0,0.0,0.0,0.0,0.0
1776358099755145637,18609,0.004,0.4,0.0,0.7,0.02,-0.06,0.06,-3.88,3.75,0.01,0.01,-0.35,0.06,-0.06,0.0,218.66,227.0,0.0,0.0,0.0,0.0
1776358099853438959,18710,0.0,0.3,0.0,0.7,-0.06,0.06,0.06,-3.88,3.75,0.0,0.01,-0.39,-0.0,-0.19,0.12,207.34,227.0,0.0,0.0,0.0,0.0
1776358099951745374,18809,0.0,0.4,0.0,1.2,0.06,-0.18,0.06,-3.88,3.75,0.03,0.07,-0.39,-0.06,-0.12,0.0,207.34,228.0,0.0,0.0,0.0,0.0
1776358100054144136,18910,0.0,0.0,0.0,0.9,0.04,-0.08,0.06,-3.88,3.75,0.04,0.07,-0.37,-0.06,-0.0,0.06,203.23,228.0,0.0,0.0,0.0,0.0
1776358100152445254,19010,0.0,0.2,0.0,0.3,-0.12,-0.12,0.06,-3.88,3.75,0.0,0.03,-0.38,-0.06,0.31,0.0,203.06,228.0,0.0,0.0,0.0,0.0
1776358100254811886,19109,0.0,0.7,0.0,0.9,-0.14,-0.02,0.06,-3.88,3.75,0.03,0.04,-0.38,-0.0,-0.37,0.0,219.18,228.0,0.0,0.0,0.0,0.0
1776358100353144875,19209,0.0,0.2,0.0,0.6,0.1,-0.12,0.06,-3.81,3.75,0.04,0.06,-0.38,-0.12,-0.63,0.06,216.78,227.0,0.0,0.0,0.0,0.0
1776358100451453104,19309,0.004,0.1,0.0,0.3,0.04,-0.23,0.06,-3.81,3.75,-0.01,0.1,-0.39,0.06,-0.06,0.19,203.74,227.0,0.0,0.0,0.0,0.0
1776358100549729666,19408,0.0,0.7,0.0,0.4,0.08,-0.02,0.06,-3.81,3.75,0.1,-0.02,-0.37,-0.12,-0.06,0.0,215.75,228.0,0.0,0.0,0.0,0.0
1776358100652157354,19508,0.0,0.3,0.0,1.1,0.0,-0.06,0.06,-3.81,3.75,0.0,0.13,-0.39,-0.0,-0.25,0.19,203.23,228.0,0.0,0.0,0.0,0.0
1776358100750469139,19608,0.0,0.3,0.0,0.6,0.16,-0.06,0.06,-3.81,3.75,0.04,0.12,-0.39,0.06,-0.0,-0.12,211.97,229.0,0.0,0.0,0.0,0.0
1776358100852857678,19707,0.0,0.6,0.0,1.1,-0.06,-0.02,0.06,-3.88,3.75,0.01,0.05,-0.39,0.06,0.5,-0.19,203.57,231.0,0.0,0.0,0.0,0.0
1776358100951155592,19808,0.0,0.1,0.0,1.0,0.04,0.06,0.06,-3.88,3.75,0.0,-0.0,-0.4,0.19,-0.0,0.0,211.97,231.0,0.0,0.0,0.0,0.0
1776358101053632726,19908,0.004,0.3,0.0,0.6,0.04,0.04,0.06,-3.88,3.75,0.0,-0.0,-0.39,0.06,-0.5,0.12,225.18,232.0,0.0,0.0,0.0,0.0
1776358101151816656,20007,0.004,0.1,0.0,1.2,0.08,-0.14,0.06,-3.88,3.75,0.02,0.11,-0.37,-0.06,0.63,-0.31,247.3,236.0,0.0,0.0,0.0,0.0
1776358101254247362,20108,0.0,1.1,0.0,0.9,-0.02,-0.08,0.06,-3.88,3.75,0.08,-0.02,-0.37,-0.06,0.44,0.06,289.66,236.0,0.0,0.0,0.0,0.0
1776358101352555294,20209,0.0,0.4,0.0,0.7,0.02,-0.06,0.06,-3.88,3.75,0.0,0.03,-0.38,-0.0,-0.19,-0.06,279.72,233.0,0.0,0.0,0.0,0.0
1776358101460978547,20308,0.0,0.3,0.0,0.5,0.04,-0.04,0.06,-3.88,3.75,0.01,0.04,-0.41,-0.0,-0.06,0.12,211.46,233.0,0.0,0.0,0.0,0.0
1776358101553258192,20408,0.0,0.3,0.0,0.8,-0.06,-0.14,0.06,-3.88,3.75,0.07,0.05,-0.4,-0.06,-0.5,0.19,272.51,233.0,0.0,0.0,0.0,0.0
1776358101655669083,20509,0.0,0.5,0.0,1.1,0.06,-0.04,0.06,-3.88,3.75,-0.01,0.18,-0.42,-0.0,0.25,0.0,267.2,231.0,0.0,0.0,0.0,0.0
1776358101753957015,20610,0.004,0.1,0.0,1.1,-0.02,-0.04,0.06,-3.94,3.75,0.02,0.02,-0.38,-0.0,0.5,-0.25,258.97,231.0,0.0,0.0,0.0,0.0
1776358101856356072,20710,0.004,0.5,0.0,1.1,0.04,0.02,0.06,-3.94,3.75,0.03,-0.01,-0.38,0.06,0.19,0.0,258.79,232.0,0.0,0.0,0.0,0.0
1776358101954663967,20810,0.004,0.2,0.0,0.2,-0.06,-0.23,0.06,-3.94,3.75,0.01,0.06,-0.37,-0.06,-0.06,0.19,258.79,232.0,0.0,0.0,0.0,0.0
1776358102057117803,20911,0.0,0.0,0.0,1.1,0.02,-0.04,0.06,-3.94,3.75,0.02,0.1,-0.37,0.12,-0.19,0.0,258.79,232.0,0.0,0.0,0.0,0.0
1776358102155336548,21011,0.0,0.5,0.0,0.7,-0.08,0.04,0.06,-3.94,3.75,0.02,0.17,-0.37,-0.0,0.06,0.0,259.82,234.0,0.0,0.0,0.0,0.0
1776358102253665999,21110,0.0,0.0,0.0,0.5,-0.04,-0.06,0.06,-3.94,3.75,0.03,0.06,-0.41,0.06,0.44,-0.19,284.35,231.0,0.0,0.0,0.0,0.0
1776358102356061130,21210,0.004,0.3,0.0,0.8,0.02,-0.1,0.06,-3.94,3.75,0.0,-0.02,-0.39,0.06,0.44,-0.12,285.38,231.0,0.0,0.0,0.0,0.0
1776358102454360747,21310,0.0,0.7,0.008,0.3,-0.1,0.1,0.06,-3.94,3.75,0.04,0.04,-0.38,0.06,-0.5,0.06,211.97,231.0,0.0,0.0,0.0,0.0
1776358102562728090,21409,0.0,0.3,0.0,0.9,-0.06,-0.04,0.06,-3.94,3.75,0.02,0.11,-0.4,0.06,-0.25,0.25,212.15,231.0,0.0,0.0,0.0,0.0
1776358102655078402,21510,0.0,0.5,0.0,1.0,-0.08,0.0,0.06,-3.94,3.75,0.02,0.03,-0.4,0.06,-0.12,0.0,203.74,231.0,0.0,0.0,0.0,0.0
1776358102753318907,21610,0.0,0.5,0.0,1.2,-0.08,0.06,0.06,-3.94,3.75,0.02,0.03,-0.4,-0.0,-0.0,0.0,272.0,233.0,0.0,0.0,0.0,0.0
1776358102855759057,21709,0.0,0.2,0.0,0.9,0.04,-0.12,0.06,-3.94,3.75,0.01,0.07,-0.41,-0.0,-0.25,0.06,270.97,232.0,0.0,0.0,0.0,0.0
1776358102954121897,21809,0.0,0.4,0.0,0.3,-0.02,-0.08,0.06,-3.94,3.75,0.03,0.08,-0.39,-0.0,-0.0,-0.06,243.19,232.0,0.0,0.0,0.0,0.0
1776358103056459286,21909,0.0,0.5,0.0,0.8,0.04,-0.06,0.06,-3.94,3.75,0.04,0.07,-0.37,0.06,-0.0,-0.06,246.27,234.0,0.0,0.0,0.0,0.0
1776358103154735068,22009,0.004,0.2,0.0,0.5,-0.08,-0.12,0.06,-3.94,3.75,0.04,-0.0,-0.37,0.19,-0.37,-0.06,202.71,234.0,0.0,0.0,0.0,0.0
1776358103263095911,22109,0.0,0.0,0.0,1.2,-0.14,-0.04,0.06,-3.94,3.75,0.04,0.08,-0.38,0.06,-0.0,0.0,216.78,235.0,0.0,0.0,0.0,0.0
1776358103355462149,22209,0.0,0.9,0.0,1.0,0.08,-0.04,0.06,-3.94,3.75,0.0,0.07,-0.37,-0.0,0.19,0.06,207.86,236.0,0.0,0.0,0.0,0.0
1776358103453772765,22308,0.008,0.3,0.0,1.0,0.02,-0.02,0.06,-3.94,3.75,0.0,0.03,-0.41,-0.06,0.06,0.12,199.45,236.0,0.0,0.0,0.0,0.0
1776358103562145275,22408,0.0,0.7,0.0,0.9,-0.02,-0.02,0.06,-3.94,3.75,0.03,0.11,-0.38,-0.0,-0.0,-0.12,251.93,231.0,0.0,0.0,0.0,0.0
1776358103654472512,22508,0.0,0.1,0.0,0.4,0.02,0.0,0.06,-3.94,3.75,0.09,0.07,-0.46,-0.06,-0.19,0.12,198.77,230.0,0.0,0.0,0.0,0.0
1776358103752781017,22608,0.0,0.4,0.008,0.5,-0.04,-0.21,0.06,-3.94,3.75,0.01,0.03,-0.38,-0.12,0.44,-0.31,202.54,230.0,0.0,0.0,0.0,0.0
1776358103855131925,22708,0.0,1.0,0.0,0.4,-0.04,-0.06,0.06,-3.94,3.75,-0.06,0.16,-0.35,0.06,-0.63,0.31,194.65,232.0,0.0,0.0,0.0,0.0
1776358103953468523,22808,0.004,0.2,0.0,0.6,0.16,0.06,0.06,-3.94,3.75,0.03,0.01,-0.39,-0.0,0.06,0.12,203.74,232.0,0.0,0.0,0.0,0.0
1776358104055840319,22908,0.0,0.0,0.0,0.9,-0.02,-0.08,0.06,-3.94,3.75,0.04,0.12,-0.37,0.12,0.31,-0.06,194.65,234.0,0.0,0.0,0.0,0.0
1776358104154146917,23008,0.0,0.6,0.0,0.4,-0.1,-0.02,0.06,-3.94,3.75,0.03,0.05,-0.39,0.12,-0.19,0.06,218.66,231.0,0.0,0.0,0.0,0.0
1776358104252453644,23108,0.004,-0.1,0.0,1.3,0.0,-0.12,0.06,-3.94,3.75,0.02,0.03,-0.37,-0.0,-0.0,0.06,194.65,231.0,0.0,0.0,0.0,0.0
1776358104354869329,23207,0.004,0.0,0.0,0.3,-0.02,0.0,0.06,-3.94,3.75,0.03,0.09,-0.37,0.06,-0.0,-0.12,203.74,229.0,0.0,0.0,0.0,0.0
1776358104463219931,23308,0.004,0.2,0.0,0.3,0.0,-0.06,0.06,-3.94,3.75,-0.01,0.09,-0.36,0.12,-0.19,-0.06,203.74,232.0,0.0,0.0,0.0,0.0
1776358104555570149,23408,0.0,0.3,0.0,1.3,-0.08,-0.06,0.06,-3.94,3.75,0.0,0.01,-0.41,0.19,-0.0,0.12,212.66,232.0,0.0,0.0,0.0,0.0
1776358104653878394,23507,0.0,1.1,0.0,0.0,0.1,-0.02,0.06,-3.94,3.75,0.05,0.08,-0.4,-0.0,0.12,0.0,224.66,232.0,0.0,0.0,0.0,0.0
1776358104756276506,23608,0.004,0.2,0.0,0.9,0.0,-0.06,0.06,-3.94,3.75,0.02,0.06,-0.37,-0.06,-0.06,0.0,225.87,233.0,0.0,0.0,0.0,0.0
1776358104854575547,23709,0.0,1.1,0.0,0.3,-0.06,-0.16,0.06,-3.94,3.75,0.04,0.01,-0.4,-0.06,-0.06,0.0,238.9,233.0,0.0,0.0,0.0,0.0
1776358104956968233,23810,0.008,0.1,0.0,0.6,-0.1,-0.08,0.06,-3.94,3.75,0.01,0.12,-0.36,0.06,-0.0,0.0,251.59,234.0,0.0,0.0,0.0,0.0
1776358105055338886,23910,0.0,1.1,0.0,0.6,0.08,0.0,0.06,-3.94,3.75,0.03,0.09,-0.39,0.19,-0.0,0.12,250.39,233.0,0.0,0.0,0.0,0.0
1776358105163601097,24009,0.0,0.8,0.0,1.1,-0.08,-0.06,0.06,-3.94,3.75,0.03,0.01,-0.37,0.06,-0.06,0.0,267.2,233.0,0.0,0.0,0.0,0.0
1776358105255978593,24109,0.0,0.7,0.0,1.0,-0.04,-0.14,0.06,-3.94,3.75,0.01,0.1,-0.38,0.06,-0.0,0.06,271.31,233.0,0.0,0.0,0.0,0.0
1776358105358380148,24209,0.0,0.2,0.0,1.1,-0.04,-0.08,0.06,-3.94,3.75,0.0,0.05,-0.37,-0.0,-0.06,0.19,267.03,233.0,0.0,0.0,0.0,0.0
1776358105456673281,24309,0.0,0.2,0.0,1.2,-0.08,-0.06,0.06,-3.94,3.75,0.03,0.04,-0.39,-0.06,0.12,0.12,284.52,233.0,0.0,0.0,0.0,0.0
1776358105554923136,24409,0.0,0.7,0.0,0.5,-0.06,-0.06,0.06,-3.94,3.75,0.01,0.06,-0.36,-0.0,0.19,-0.12,289.83,233.0,0.0,0.0,0.0,0.0
1776358105657367859,24510,0.004,0.2,0.0,1.1,-0.14,-0.02,0.06,-3.94,3.75,0.01,0.07,-0.35,0.06,-0.0,0.06,292.92,233.0,0.0,0.0,0.0,0.0
1776358105755693123,24610,0.0,0.3,0.0,0.2,0.02,0.14,0.06,-3.94,3.75,0.03,0.07,-0.37,-0.0,0.25,0.06,267.2,234.0,0.0,0.0,0.0,0.0
1776358105858075807,24710,0.004,0.4,0.0,0.9,-0.1,-0.04,0.06,-3.94,3.75,0.0,0.08,-0.39,0.12,0.12,-0.06,268.23,234.0,0.0,0.0,0.0,0.0
1776358105956372348,24811,0.0,0.2,0.0,1.3,-0.02,-0.02,0.06,-3.94,3.75,0.01,0.11,-0.36,0.12,-0.25,0.0,259.31,234.0,0.0,0.0,0.0,0.0
