timestamp_ns,time_ms,voltage_left,current_left_ma,voltage_right,current_right_ma,motor_current_left,motor_current_right,euler_x,euler_y,euler_z,acc_lin_x,acc_lin_y,acc_lin_z,gyro_x,gyro_y,gyro_z,sonar_mm,tof_mm,rpm_left,rpm_right,rotations_left,rotations_right
1776450577997796759,39318,10.12,0.06,0.12,166.36,0.06,166.53,-188.0,-0.0,0.0,0.0,-0.0,,,,,,,,,,
1776450578899384697,77130,0.104,0.1,0.0,1.1,-0.02,-0.08,31.19,0.69,5.88,0.13,-0.02,-0.34,0.12,-0.06,0.12,166.36,0.06,166.53,188.0,0.0,0.0
1776450580817882750,77130,0.104,0.1,0.0,1.1,-0.02,-0.08,31.19,0.69,5.88,0.13,-0.02,-0.34,0.12,-0.06,0.12,166.36,,,,,
1776450580901999321,1903,0.08,0.2,0.0,1.4,-0.21,-0.16,0.06,0.63,5.31,0.01,-0.01,-0.33,-0.12,0.12,0.06,171.16,190.0,0.0,0.0,0.0,0.0
1776450581004424695,2002,0.0,0.2,0.0,1.4,0.06,-0.06,0.06,0.63,5.31,0.02,-0.01,-0.32,-0.06,0.06,-0.12,170.64,196.0,0.0,0.0,0.0,0.0
1776450581102770494,2102,0.108,0.0,0.0,0.2,0.16,-0.12,0.06,0.63,5.31,0.05,-0.0,-0.32,-0.06,0.06,-0.12,166.53,196.0,0.0,0.0,0.0,0.0
1776450581201034941,2202,0.0,0.2,0.0,1.6,0.12,0.1,0.06,0.63,5.31,0.04,-0.0,-0.33,-0.06,-0.0,0.06,166.53,186.0,0.0,0.0,0.0,0.0
1776450581303438946,2301,0.0,1.6,0.084,0.5,-0.18,-0.18,0.06,0.63,5.31,0.05,-0.0,-0.3,-0.0,0.06,0.06,166.53,191.0,0.0,0.0,0.0,0.0
1776450581401717411,2401,0.0,1.4,0.0,1.1,0.06,-0.1,0.06,0.63,5.31,0.03,-0.0,-0.35,-0.0,0.06,0.0,166.53,191.0,0.0,0.0,0.0,0.0
1776450581504120675,2501,0.104,0.0,0.0,1.2,0.08,-0.06,0.06,0.63,5.31,0.04,-0.0,-0.34,0.12,-0.25,0.0,166.36,196.0,0.0,0.0,0.0,0.0
1776450581602450992,2601,0.1,0.1,0.0,1.4,0.0,-0.2,0.06,0.63,5.31,0.05,-0.01,-0.32,-0.0,-0.0,0.0,166.36,193.0,0.0,0.0,0.0,0.0
1776450581710812888,2701,0.108,0.1,0.0,0.2,-0.1,0.0,0.06,0.63,5.31,0.05,-0.01,-0.35,-0.0,-0.0,0.06,170.64,193.0,0.0,0.0,0.0,0.0
1776450581803140777,2801,0.0,0.5,0.076,0.3,0.0,-0.12,0.06,0.63,5.31,0.04,-0.0,-0.34,-0.06,0.12,0.0,171.16,191.0,0.0,0.0,0.0,0.0
1776450581901415891,2900,0.0,0.7,0.08,0.6,0.06,-0.06,0.06,0.63,5.31,0.03,-0.01,-0.33,-0.0,0.12,0.12,166.01,192.0,0.0,0.0,0.0,0.0
1776450582003840728,3001,0.0,0.9,0.0,1.4,-0.18,-0.08,0.06,0.63,5.31,0.05,0.02,-0.34,-0.06,0.12,0.0,167.04,192.0,0.0,0.0,0.0,0.0
1776450582244227399,3101,0.0,1.2,0.084,0.1,0.08,-0.08,0.06,0.63,5.31,0.04,-0.0,-0.33,0.12,-0.06,0.0,170.64,195.0,0.0,0.0,0.0,0.0
1776450582302866478,3201,0.0,1.4,0.068,0.2,0.08,-0.1,0.06,0.63,5.31,0.05,-0.0,-0.33,-0.06,-0.06,0.12,170.64,195.0,0.0,0.0,0.0,0.0
1776450582311222611,3301,0.0,1.2,0.08,0.5,0.0,-0.12,0.06,0.63,5.31,0.05,-0.0,-0.31,-0.06,-0.12,-0.12,171.16,195.0,0.0,0.0,0.0,0.0
1776450582401102055,3400,0.0,1.4,0.0,1.1,-0.06,-0.06,0.06,0.63,5.31,0.03,-0.0,-0.33,-0.06,-0.06,0.0,171.16,192.0,0.0,0.0,0.0,0.0
1776450582503500096,3500,0.0,0.9,0.084,0.3,0.06,-0.18,0.06,0.63,5.31,0.03,-0.02,-0.35,-0.12,-0.0,0.19,167.04,192.0,0.0,0.0,0.0,0.0
1776450582601838655,3600,0.096,0.1,0.0,1.6,0.04,-0.2,0.06,0.63,5.31,0.02,-0.0,-0.33,-0.06,-0.0,0.12,167.04,201.0,0.0,0.0,0.0,0.0
1776450582700167639,3699,0.104,0.4,0.0,1.3,0.04,-0.08,0.06,0.63,5.31,0.05,-0.0,-0.33,-0.0,-0.12,0.06,171.16,190.0,0.0,0.0,0.0,0.0
1776450582836218527,3800,0.1,0.3,0.0,1.3,-0.06,-0.08,0.06,0.63,5.31,0.04,-0.01,-0.31,-0.0,0.06,0.0,171.16,190.0,0.0,0.0,0.0,0.0
1776450582900820516,3900,0.108,0.0,0.0,1.3,-0.1,-0.1,0.06,0.63,5.31,0.03,-0.0,-0.32,-0.19,0.12,0.0,170.64,194.0,0.0,0.0,0.0,0.0
1776450583003239890,4000,0.0,0.9,0.072,0.0,-0.04,-0.04,0.06,0.63,5.31,0.02,-0.0,-0.34,-0.06,0.12,-0.06,170.64,194.0,0.0,0.0,0.0,0.0
1776450583101575338,4100,0.0,1.0,0.0,1.5,0.0,-0.16,0.06,0.63,5.31,0.02,-0.01,-0.32,-0.0,-0.06,-0.06,166.53,190.0,0.0,0.0,0.0,0.0
1776450583203938768,4200,0.1,0.0,0.0,1.4,0.04,0.06,0.06,0.63,5.31,0.03,-0.01,-0.33,0.06,-0.12,0.0,166.36,192.0,0.0,0.0,0.0,0.0
1776450583302230789,4299,0.1,0.2,0.0,1.6,-0.04,0.04,0.06,0.63,5.31,0.04,-0.01,-0.34,-0.0,-0.0,0.0,166.53,192.0,0.0,0.0,0.0,0.0
1776450583400453051,4399,0.092,0.3,0.088,0.5,0.04,0.0,0.06,0.63,5.31,0.03,-0.01,-0.33,0.12,0.19,-0.12,166.36,194.0,0.0,0.0,0.0,0.0
1776450583502929074,4500,0.104,0.3,0.0,1.2,-0.08,-0.02,0.06,0.63,5.31,0.04,-0.0,-0.32,-0.06,-0.12,-0.06,170.64,186.0,0.0,0.0,0.0,0.0
1776450583601204539,4600,0.0,1.0,0.096,0.3,0.02,-0.14,0.06,0.63,5.31,0.03,-0.01,-0.31,-0.06,-0.06,0.06,170.64,186.0,0.0,0.0,0.0,0.0
1776450583728216164,4700,0.0,1.2,0.084,0.2,0.14,0.02,0.06,0.63,5.31,0.02,-0.0,-0.34,-0.12,-0.0,0.0,166.53,195.0,0.0,0.0,0.0,0.0
1776450583801941268,4800,0.0,1.3,0.068,0.5,-0.1,0.04,0.06,0.63,5.31,0.05,-0.0,-0.35,0.06,-0.06,0.0,166.53,194.0,0.0,0.0,0.0,0.0
1776450583910284479,4899,0.0,1.3,0.0,1.4,-0.02,0.04,0.06,0.63,5.31,0.03,-0.02,-0.33,-0.0,-0.0,0.06,171.33,194.0,0.0,0.0,0.0,0.0
1776450584002609275,5000,0.112,0.2,0.0,1.1,0.04,-0.02,0.06,0.63,5.31,0.02,-0.0,-0.32,0.12,-0.0,-0.12,167.04,190.0,0.0,0.0,0.0,0.0
1776450584110978911,5100,0.0,0.9,0.0,0.2,0.04,-0.1,0.06,0.63,5.31,0.02,-0.01,-0.35,-0.0,0.19,-0.06,171.16,192.0,0.0,0.0,0.0,0.0
1776450584203317245,5199,0.0,1.1,0.084,0.5,-0.04,0.06,0.06,0.63,5.31,0.06,-0.01,-0.33,-0.06,0.06,-0.12,166.53,192.0,0.0,0.0,0.0,0.0
1776450584301619692,5299,0.0,-0.2,0.0,1.4,0.08,-0.1,0.06,0.63,5.31,0.04,-0.01,-0.34,-0.12,-0.0,0.19,170.64,191.0,0.0,0.0,0.0,0.0
1776450584404009326,5399,0.104,0.7,0.088,0.2,0.0,-0.27,0.06,0.63,5.31,0.01,-0.01,-0.31,-0.06,-0.12,0.06,166.36,191.0,0.0,0.0,0.0,0.0
1776450584502273643,5499,0.0,1.0,0.072,0.3,0.21,0.06,0.06,0.63,5.31,0.03,-0.0,-0.32,0.12,0.06,0.06,170.64,189.0,0.0,0.0,0.0,0.0
1776450584604680203,5599,0.0,1.0,0.084,0.1,0.08,0.02,0.06,0.63,5.31,0.03,-0.0,-0.32,0.06,-0.06,0.06,167.56,192.0,0.0,0.0,0.0,0.0
1776450584703012854,5700,0.0,0.4,0.0,1.4,0.04,0.04,0.06,0.63,5.31,0.05,-0.0,-0.33,0.06,-0.0,0.06,170.64,192.0,0.0,0.0,0.0,0.0
1776450584801287412,5799,0.096,0.0,0.0,1.5,0.0,0.0,0.06,0.63,5.31,0.04,-0.0,-0.36,0.06,0.19,0.06,167.56,188.0,0.0,0.0,0.0,0.0
1776450584903716935,5900,0.104,0.1,0.0,1.7,-0.12,-0.16,0.06,0.63,5.31,0.03,-0.0,-0.33,-0.06,0.19,0.12,166.36,191.0,0.0,0.0,0.0,0.0
1776450585006115957,6001,0.0,1.4,0.0,1.3,-0.06,-0.12,0.06,0.63,5.31,0.04,-0.0,-0.33,0.06,-0.0,0.0,170.64,191.0,0.0,0.0,0.0,0.0
1776450585104407552,6100,0.0,0.7,0.076,0.1,0.16,-0.14,0.06,0.63,5.31,0.03,-0.0,-0.32,0.06,-0.06,0.0,171.16,184.0,0.0,0.0,0.0,0.0
1776450585206778631,6201,0.0,0.7,0.0,1.4,-0.08,-0.02,0.06,0.63,5.31,0.03,-0.0,-0.33,-0.0,-0.19,0.06,168.07,184.0,0.0,0.0,0.0,0.0
1776450585305081115,6302,0.0,1.5,0.088,0.0,-0.02,-0.08,0.06,0.63,5.31,0.03,-0.0,-0.34,-0.12,-0.06,0.0,167.04,195.0,0.0,0.0,0.0,0.0
1776450585407460693,6402,0.0,1.4,0.092,0.2,-0.02,-0.04,0.06,0.63,5.31,0.04,-0.01,-0.34,-0.0,-0.06,0.06,167.04,194.0,0.0,0.0,0.0,0.0
1776450585505772325,6503,0.0,1.5,0.084,0.3,-0.06,-0.16,0.06,0.63,5.31,0.03,-0.01,-0.32,0.12,-0.0,0.0,167.04,194.0,0.0,0.0,0.0,0.0
1776450585608219922,6603,0.0,0.7,0.084,0.0,-0.06,-0.1,0.06,0.63,5.31,0.05,-0.0,-0.35,-0.0,0.06,0.0,167.04,188.0,0.0,0.0,0.0,0.0
1776450585706496684,6703,0.0,0.7,0.068,0.4,0.06,-0.12,0.06,0.63,5.31,0.04,-0.0,-0.33,0.06,-0.0,-0.06,171.84,198.0,0.0,0.0,0.0,0.0
1776450585808878577,6803,0.0,0.6,0.084,0.1,-0.06,-0.04,0.06,0.63,5.31,0.01,-0.01,-0.33,-0.0,0.06,-0.12,171.84,198.0,0.0,0.0,0.0,0.0
1776450585907198376,6903,0.0,1.2,0.0,1.0,0.0,0.08,0.06,0.63,5.31,0.02,-0.0,-0.34,0.12,-0.06,0.0,171.33,195.0,0.0,0.0,0.0,0.0
1776450586009608899,7003,0.0,0.7,0.08,0.6,0.04,-0.04,0.06,0.63,5.31,0.05,-0.02,-0.32,0.12,0.06,0.12,171.16,187.0,0.0,0.0,0.0,0.0
1776450586107900383,7104,0.104,0.3,0.0,1.4,-0.1,-0.02,0.06,0.63,5.31,0.02,0.01,-0.33,-0.06,0.06,0.06,171.16,187.0,0.0,0.0,0.0,0.0
1776450586206173015,7203,0.0,1.3,0.076,0.6,-0.1,-0.14,0.06,0.63,5.31,0.03,-0.01,-0.33,-0.06,-0.06,0.12,172.36,187.0,0.0,0.0,0.0,0.0
1776450586308571445,7304,0.0,1.4,0.088,0.4,0.02,-0.06,0.06,0.63,5.31,0.04,-0.0,-0.32,-0.06,-0.0,0.12,171.16,193.0,0.0,0.0,0.0,0.0
1776450586406866077,7404,0.104,1.0,0.076,0.3,0.04,0.06,0.06,0.63,5.31,0.03,-0.0,-0.32,-0.0,-0.06,0.0,171.16,193.0,0.0,0.0,0.0,0.0
1776450586684213300,7503,0.0,0.7,0.0,1.1,0.16,-0.04,0.06,0.63,5.31,0.04,-0.01,-0.32,-0.0,-0.06,0.0,167.04,191.0,0.0,0.0,0.0,0.0
1776450586709991218,7603,0.0,1.3,0.076,0.3,0.04,-0.06,0.06,0.63,5.31,0.03,-0.0,-0.36,-0.0,-0.06,-0.06,167.04,191.0,0.0,0.0,0.0,0.0
1776450586722236556,7703,0.0,1.3,0.076,0.7,-0.02,-0.18,0.06,0.63,5.31,0.03,-0.0,-0.33,-0.12,-0.06,0.0,167.04,202.0,0.0,0.0,0.0,0.0
1776450586808256702,7803,0.0,0.6,0.0,1.2,0.1,-0.08,0.06,0.63,5.31,0.03,-0.0,-0.35,0.06,-0.19,-0.06,170.64,191.0,0.0,0.0,0.0,0.0
1776450586910653299,7904,0.104,0.2,0.0,0.3,-0.06,0.0,0.06,0.63,5.31,0.03,-0.0,-0.35,-0.06,0.12,0.06,167.04,191.0,0.0,0.0,0.0,0.0
1776450587008990190,8004,0.104,0.2,0.0,1.1,0.16,-0.02,0.06,0.63,5.31,0.05,-0.01,-0.35,0.06,0.19,0.0,170.47,201.0,0.0,0.0,0.0,0.0
1776450587107288285,8103,0.1,0.3,0.072,0.3,0.04,-0.02,0.06,0.63,5.31,0.05,-0.01,-0.32,0.06,-0.12,-0.12,167.04,190.0,0.0,0.0,0.0,0.0
1776450587209684401,8203,0.0,0.5,0.0,1.4,-0.06,-0.06,0.06,0.63,5.31,0.05,-0.01,-0.34,-0.06,-0.06,-0.06,171.16,190.0,0.0,0.0,0.0,0.0
1776450587307956774,8303,0.096,0.2,0.0,1.4,-0.06,0.04,0.06,0.63,5.31,0.02,-0.0,-0.32,0.12,-0.0,-0.12,171.16,200.0,0.0,0.0,0.0,0.0
1776450587406223832,8402,0.0,0.7,0.072,0.1,0.04,0.0,0.06,0.63,5.31,0.05,-0.02,-0.32,0.12,-0.06,0.06,166.53,196.0,0.0,0.0,0.0,0.0
1776450587508675484,8503,0.0,1.0,0.076,0.3,-0.06,-0.08,0.06,0.63,5.31,0.05,-0.0,-0.33,-0.0,0.12,-0.06,166.36,196.0,0.0,0.0,0.0,0.0
1776450587607008042,8603,0.104,0.3,0.0,1.5,-0.08,-0.1,0.06,0.63,5.31,0.03,-0.0,-0.33,-0.19,0.12,-0.06,171.16,198.0,0.0,0.0,0.0,0.0
1776450587709376398,8702,0.0,1.5,0.068,0.3,0.0,-0.16,0.06,0.63,5.31,0.03,-0.0,-0.34,-0.0,0.06,0.0,166.53,198.0,0.0,0.0,0.0,0.0
1776450587952222366,8802,0.0,0.3,0.0,1.1,-0.02,-0.04,0.06,0.63,5.31,0.04,-0.0,-0.33,-0.06,-0.06,0.06,166.53,195.0,0.0,0.0,0.0,0.0
1776450588008403926,8903,0.0,0.7,0.0,1.4,-0.06,-0.1,0.06,0.63,5.31,0.02,-0.0,-0.32,-0.19,0.06,0.0,166.53,190.0,0.0,0.0,0.0,0.0
1776450588021077894,9003,0.096,0.0,0.0,1.5,-0.06,-0.23,0.06,0.63,5.31,0.04,-0.02,-0.34,-0.12,-0.0,-0.06,166.36,190.0,0.0,0.0,0.0,0.0
1776450588110797393,9104,0.104,0.1,0.0,1.2,0.02,-0.08,0.06,0.63,5.31,0.02,-0.0,-0.32,-0.0,-0.0,0.0,170.64,193.0,0.0,0.0,0.0,0.0
1776450588209073099,9203,0.104,0.3,0.0,1.4,0.0,-0.04,0.06,0.63,5.31,0.04,-0.0,-0.32,0.12,-0.12,0.0,171.33,188.0,0.0,0.0,0.0,0.0
1776450588311467937,9303,0.096,0.0,0.0,1.0,0.14,0.02,0.06,0.63,5.31,0.02,-0.02,-0.33,-0.12,-0.06,0.06,167.04,188.0,0.0,0.0,0.0,0.0
1776450588409726680,9403,0.1,0.1,0.072,0.0,0.02,-0.2,0.06,0.63,5.31,0.02,-0.01,-0.37,0.06,-0.25,0.06,171.33,187.0,0.0,0.0,0.0,0.0
1776450588508052516,9502,0.0,0.7,0.0,1.3,0.06,-0.04,0.06,0.63,5.31,0.02,-0.0,-0.33,0.06,0.06,0.06,171.84,188.0,0.0,0.0,0.0,0.0
1776450588616481597,9602,0.1,0.3,0.0,1.6,-0.04,0.02,0.06,0.63,5.31,0.04,-0.02,-0.35,-0.0,-0.12,0.0,171.16,188.0,0.0,0.0,0.0,0.0
1776450588708769245,9702,0.104,1.3,0.072,0.2,0.0,-0.14,0.06,0.63,5.31,0.02,-0.01,-0.35,0.12,-0.06,0.0,171.16,190.0,0.0,0.0,0.0,0.0
1776450588807062988,9801,0.0,1.1,0.088,0.2,0.12,-0.02,0.06,0.63,5.31,0.03,-0.0,-0.34,-0.06,-0.19,0.0,167.04,190.0,0.0,0.0,0.0,0.0
1776450588909471104,9902,0.0,0.9,0.08,0.5,0.02,-0.1,0.06,0.63,5.31,0.03,-0.0,-0.34,-0.0,0.06,0.0,167.04,191.0,0.0,0.0,0.0,0.0
1776450589007767477,10003,0.0,1.5,0.0,1.3,0.16,-0.04,0.06,0.63,5.31,0.07,-0.01,-0.33,-0.0,-0.06,0.06,167.04,189.0,0.0,0.0,0.0,0.0
1776450589116113205,10102,0.1,0.2,0.0,1.3,0.02,0.02,0.06,0.63,5.31,0.04,-0.0,-0.35,-0.06,0.06,0.0,167.04,189.0,0.0,0.0,0.0,0.0
1776450589208465335,10202,0.104,0.2,0.0,1.3,0.12,-0.04,0.06,0.63,5.31,0.04,-0.03,-0.35,-0.12,0.06,0.0,167.04,189.0,0.0,0.0,0.0,0.0
1776450589306703041,10302,0.0,0.1,0.0,1.5,0.14,-0.02,0.06,0.63,5.31,0.05,-0.0,-0.34,-0.0,-0.12,0.06,167.04,192.0,0.0,0.0,0.0,0.0
1776450589409130471,10401,0.0,0.3,0.08,0.3,0.06,-0.06,0.06,0.63,5.31,0.02,-0.0,-0.38,-0.12,-0.06,-0.06,167.04,192.0,0.0,0.0,0.0,0.0
1776450589507474400,10502,0.0,0.8,0.084,0.3,-0.06,-0.1,0.06,0.63,5.31,0.04,-0.0,-0.36,-0.06,0.12,0.06,167.04,191.0,0.0,0.0,0.0,0.0
1776450589609861997,10602,0.0,0.1,0.08,0.2,0.06,-0.1,0.06,0.63,5.31,0.05,-0.01,-0.36,-0.0,-0.0,0.0,167.04,194.0,0.0,0.0,0.0,0.0
1776450589708168296,10701,0.0,1.2,0.072,0.2,-0.04,-0.04,0.06,0.63,5.31,0.05,-0.01,-0.34,-0.06,0.12,-0.06,167.04,194.0,0.0,0.0,0.0,0.0
1776450589816500376,10801,0.0,1.3,0.076,0.1,-0.2,-0.16,0.06,0.63,5.31,0.01,-0.0,-0.34,-0.0,-0.06,0.06,167.04,189.0,0.0,0.0,0.0,0.0
1776450590072219368,10901,0.0,0.2,0.0,1.3,0.2,-0.06,0.06,0.63,5.31,0.03,-0.0,-0.35,-0.12,-0.0,0.06,171.16,189.0,0.0,0.0,0.0,0.0
1776450590109609476,11000,0.0,0.9,0.0,0.6,-0.02,-0.18,0.06,0.63,5.31,0.04,-0.0,-0.35,0.06,-0.0,0.0,167.04,198.0,0.0,0.0,0.0,0.0
1776450590121912980,11100,0.0,1.4,0.08,0.3,-0.04,-0.16,0.06,0.63,5.31,0.04,-0.0,-0.35,-0.0,-0.19,0.0,167.04,196.0,0.0,0.0,0.0,0.0
1776450590207853311,11200,0.0,1.3,0.08,0.4,0.06,-0.12,0.06,0.63,5.31,0.04,-0.01,-0.36,-0.06,-0.0,0.0,166.36,196.0,0.0,0.0,0.0,0.0
1776450590306154814,11299,0.0,1.2,0.076,0.3,-0.14,-0.18,0.06,0.63,5.31,0.04,-0.01,-0.35,0.06,0.06,0.0,166.36,193.0,0.0,0.0,0.0,0.0
1776450590408520948,11400,0.0,0.7,0.0,1.5,0.12,-0.1,0.06,0.63,5.31,0.04,-0.01,-0.36,0.06,-0.06,-0.06,166.53,203.0,0.0,0.0,0.0,0.0
1776450590506822506,11501,0.1,0.5,0.0,1.5,0.08,-0.04,0.06,0.63,5.31,0.04,-0.01,-0.35,-0.06,-0.0,0.06,166.36,203.0,0.0,0.0,0.0,0.0
1776450590609269140,11600,0.104,0.2,0.0,1.0,-0.1,0.04,0.06,0.63,5.31,0.02,-0.0,-0.35,-0.06,-0.19,0.0,167.56,192.0,0.0,0.0,0.0,0.0
1776450590717590091,11701,0.104,0.3,0.0,1.1,0.04,0.02,0.06,0.63,5.31,0.05,-0.0,-0.33,0.06,-0.06,0.19,166.87,183.0,0.0,0.0,0.0,0.0
1776450590809951720,11802,0.104,0.1,0.0,1.2,-0.12,-0.12,0.06,0.63,5.31,0.04,-0.0,-0.34,-0.0,-0.06,-0.12,166.36,183.0,0.0,0.0,0.0,0.0
1776450590908255297,11901,0.1,0.2,0.0,0.9,0.08,0.08,0.06,0.63,5.31,0.01,-0.0,-0.33,-0.06,-0.06,0.0,166.36,198.0,0.0,0.0,0.0,0.0
1776450591010627894,12002,0.0,0.6,0.08,0.2,-0.02,-0.12,0.06,0.63,5.31,0.03,-0.0,-0.33,0.12,-0.0,-0.06,166.53,191.0,0.0,0.0,0.0,0.0
1776450591108912155,12103,0.104,0.2,0.056,0.2,0.1,0.02,0.06,0.63,5.31,0.02,-0.0,-0.34,-0.06,0.12,0.12,166.36,191.0,0.0,0.0,0.0,0.0
1776450591211343623,12203,0.0,1.2,0.084,0.1,0.16,-0.08,0.06,0.63,5.31,0.04,-0.0,-0.36,0.06,-0.12,0.06,166.36,187.0,0.0,0.0,0.0,0.0
1776450591309641736,12303,0.0,1.2,0.0,1.0,0.2,-0.04,0.06,0.63,5.31,0.03,-0.0,-0.35,-0.0,-0.0,-0.12,166.36,187.0,0.0,0.0,0.0,0.0
1776450591412017555,12403,0.0,0.7,0.072,0.3,-0.04,-0.04,0.06,0.63,5.31,0.04,-0.01,-0.36,0.06,-0.19,0.06,167.04,210.0,0.0,0.0,0.0,0.0
1776450591514423893,12504,0.0,1.2,0.076,0.4,-0.02,-0.1,0.06,0.63,5.31,0.01,-0.0,-0.33,-0.06,0.06,0.06,167.04,191.0,0.0,0.0,0.0,0.0
1776450591612719580,12605,0.0,0.3,0.0,1.3,0.1,-0.16,0.06,0.63,5.31,0.04,-0.0,-0.36,-0.0,-0.06,-0.06,166.87,191.0,0.0,0.0,0.0,0.0
1776450591715139677,12705,0.0,0.1,0.0,0.7,0.08,0.06,0.06,0.63,5.31,0.04,-0.0,-0.34,-0.12,0.12,0.0,166.87,201.0,0.0,0.0,0.0,0.0
1776450591813430624,12806,0.104,0.3,0.08,0.1,-0.04,-0.1,0.06,0.63,5.31,0.05,-0.01,-0.35,0.12,-0.06,0.0,167.04,197.0,0.0,0.0,0.0,0.0
1776450591915876684,12906,0.0,0.3,0.0,1.5,0.12,-0.08,0.06,0.63,5.31,0.04,-0.0,-0.36,-0.12,-0.06,0.0,167.38,197.0,0.0,0.0,0.0,0.0
1776450592014142686,13006,0.104,0.4,0.0,1.5,0.1,-0.06,0.06,0.63,5.31,0.04,-0.0,-0.35,0.06,-0.0,-0.06,166.36,193.0,0.0,0.0,0.0,0.0
1776450592264217398,13106,0.0,0.9,0.0,1.5,-0.08,0.1,0.06,0.63,5.31,0.04,-0.0,-0.32,0.06,-0.0,0.06,165.33,191.0,0.0,0.0,0.0,0.0
1776450592313143362,13206,0.0,1.3,0.0,0.2,0.0,-0.16,0.06,0.63,5.31,0.04,-0.01,-0.32,-0.06,0.06,0.0,166.53,191.0,0.0,0.0,0.0,0.0
1776450592321425773,13305,0.096,0.2,0.0,1.6,0.12,-0.14,0.06,0.63,5.31,0.03,-0.0,-0.32,-0.0,0.12,0.06,166.36,193.0,0.0,0.0,0.0,0.0
1776450592415500311,13406,0.096,0.6,0.0,1.3,0.04,0.04,0.06,0.63,5.31,0.03,-0.01,-0.34,-0.0,0.12,0.0,170.64,193.0,0.0,0.0,0.0,0.0
1776450592513762220,13507,0.0,0.7,0.0,1.5,0.02,-0.12,0.06,0.63,5.31,0.03,-0.0,-0.35,0.06,0.06,0.06,166.53,188.0,0.0,0.0,0.0,0.0
1776450592616236539,13606,0.104,0.0,0.0,1.4,0.04,-0.16,0.06,0.63,5.31,0.04,-0.0,-0.32,-0.0,0.12,0.0,167.04,196.0,0.0,0.0,0.0,0.0
1776450592718625062,13707,0.104,1.5,0.0,1.1,0.1,-0.16,0.06,0.63,5.31,0.04,-0.01,-0.32,-0.0,0.19,-0.12,167.04,196.0,0.0,0.0,0.0,0.0
1776450592880215294,13808,0.108,0.3,0.0,0.6,-0.06,-0.06,0.06,0.63,5.31,0.05,-0.0,-0.33,0.06,0.12,0.0,166.36,190.0,0.0,0.0,0.0,0.0
1776450592915188678,13907,0.0,1.2,0.0,1.5,-0.08,0.0,0.06,0.63,5.31,0.04,-0.0,-0.35,-0.0,-0.06,0.06,166.53,195.0,0.0,0.0,0.0,0.0
1776450593017615219,14008,0.0,1.2,0.076,0.2,-0.02,0.0,0.06,0.63,5.31,0.03,-0.0,-0.32,-0.06,0.06,0.0,166.36,195.0,0.0,0.0,0.0,0.0
1776450593115870611,14108,0.104,0.2,0.0,1.1,-0.16,-0.06,0.06,0.63,5.31,0.04,-0.0,-0.33,-0.0,0.06,0.06,166.36,190.0,0.0,0.0,0.0,0.0
1776450593218311504,14209,0.104,-0.1,0.0,0.2,0.02,-0.06,0.06,0.63,5.31,0.02,-0.01,-0.33,0.06,0.06,0.0,166.36,192.0,0.0,0.0,0.0,0.0
1776450593320716730,14309,0.0,1.0,0.076,0.5,0.1,0.0,0.06,0.63,5.31,0.04,-0.01,-0.35,0.12,-0.06,0.06,170.64,192.0,0.0,0.0,0.0,0.0
1776450593419041177,14409,0.0,1.0,0.076,1.5,0.16,-0.04,0.06,0.63,5.31,0.05,-0.01,-0.31,0.06,0.06,0.0,166.53,189.0,0.0,0.0,0.0,0.0
1776450593517277716,14509,0.0,0.2,0.0,0.6,0.02,-0.04,0.06,0.63,5.31,0.02,-0.0,-0.33,-0.06,-0.0,0.06,165.33,192.0,0.0,0.0,0.0,0.0
1776450593619710498,14610,0.0,0.3,0.0,0.6,-0.02,-0.12,0.06,0.63,5.31,0.0,-0.0,-0.33,-0.06,-0.12,0.06,167.04,192.0,0.0,0.0,0.0,0.0
1776450593718009927,14710,0.0,0.5,0.0,1.2,0.06,-0.02,0.06,0.63,5.31,0.03,-0.01,-0.32,-0.0,-0.0,-0.06,167.04,193.0,0.0,0.0,0.0,0.0
1776450593820406449,14810,0.1,0.4,0.0,1.3,-0.1,0.0,0.06,0.63,5.31,0.02,-0.0,-0.32,-0.12,-0.06,-0.06,171.16,193.0,0.0,0.0,0.0,0.0
1776450593918711341,14910,0.108,0.2,0.068,0.3,-0.06,-0.12,0.06,0.63,5.31,0.04,-0.01,-0.32,-0.19,0.12,0.06,170.47,196.0,0.0,0.0,0.0,0.0
1776450594016978658,15009,0.0,0.6,0.084,0.4,0.12,-0.14,0.06,0.63,5.31,0.06,-0.02,-0.33,0.12,-0.0,0.0,166.36,193.0,0.0,0.0,0.0,0.0
1776450594119412199,15109,0.0,0.9,0.072,0.3,0.06,0.0,0.06,0.63,5.31,0.04,-0.0,-0.32,-0.0,0.06,-0.12,166.36,193.0,0.0,0.0,0.0,0.0
1776450594217693905,15209,0.0,0.6,0.0,1.4,0.06,-0.02,0.06,0.63,5.31,0.03,-0.02,-0.33,-0.0,0.06,-0.06,170.64,196.0,0.0,0.0,0.0,0.0
1776450594320081465,15309,0.104,0.2,0.0,0.4,0.0,-0.1,0.06,0.63,5.31,0.04,-0.0,-0.35,-0.0,-0.06,-0.12,167.04,197.0,0.0,0.0,0.0,0.0
1776450594418345893,15409,0.0,1.2,0.08,0.3,-0.02,-0.18,0.06,0.63,5.31,0.02,0.01,-0.33,-0.0,0.19,0.0,171.16,197.0,0.0,0.0,0.0,0.0
1776450594520791101,15510,0.0,1.3,0.0,1.2,-0.06,-0.04,0.06,0.63,5.31,0.03,-0.01,-0.32,0.12,-0.19,0.0,171.33,204.0,0.0,0.0,0.0,0.0
1776450594619113104,15609,0.0,1.0,0.08,0.3,-0.04,-0.08,0.06,0.63,5.31,0.03,-0.0,-0.32,-0.0,0.06,0.06,171.16,204.0,0.0,0.0,0.0,0.0
1776450594721497460,15710,0.0,0.7,0.076,0.1,-0.02,-0.02,0.06,0.63,5.31,0.05,-0.01,-0.32,0.06,-0.19,0.12,166.36,191.0,0.0,0.0,0.0,0.0
1776450594852220809,15810,0.0,1.0,0.076,0.6,-0.04,-0.06,0.06,0.63,5.31,0.02,-0.0,-0.31,-0.0,-0.19,-0.06,166.53,195.0,0.0,0.0,0.0,0.0
1776450594922194207,15910,0.0,0.4,0.0,1.4,0.0,0.0,0.06,0.63,5.31,0.02,-0.0,-0.34,0.12,0.12,0.06,166.36,195.0,0.0,0.0,0.0,0.0
1776450595020498969,16010,0.104,0.5,0.0,1.5,0.06,-0.21,0.06,0.63,5.31,0.05,-0.01,-0.33,-0.12,-0.0,-0.06,166.53,190.0,0.0,0.0,0.0,0.0
1776450595118759268,16110,0.104,0.4,0.0,1.6,0.02,0.02,0.06,0.63,5.31,0.03,-0.0,-0.32,-0.12,-0.06,0.0,166.53,194.0,0.0,0.0,0.0,0.0
1776450595221199735,16209,0.108,0.3,0.0,0.4,-0.02,-0.12,0.06,0.63,5.31,0.04,-0.01,-0.34,-0.0,0.06,0.12,170.64,194.0,0.0,0.0,0.0,0.0
1776450595319485959,16309,0.0,1.6,0.08,0.4,-0.04,-0.14,0.06,0.63,5.31,0.03,-0.02,-0.32,-0.12,0.19,0.0,166.53,187.0,0.0,0.0,0.0,0.0
1776450595421839223,16409,0.0,1.2,0.0,1.2,-0.14,-0.16,0.06,0.63,5.31,0.02,-0.0,-0.33,-0.12,-0.12,0.0,170.64,190.0,0.0,0.0,0.0,0.0
1776450595520216336,16508,0.104,0.1,0.0,0.5,0.04,-0.14,0.06,0.63,5.31,0.03,-0.0,-0.32,-0.06,-0.0,-0.06,166.36,190.0,0.0,0.0,0.0,0.0
1776450595618485394,16608,0.0,1.2,0.072,0.3,0.0,-0.04,0.06,0.63,5.31,0.04,-0.0,-0.33,-0.0,0.12,0.12,170.47,196.0,0.0,0.0,0.0,0.0
1776450595720893361,16708,0.0,1.3,0.084,0.5,0.0,-0.2,0.06,0.63,5.31,0.02,-0.0,-0.32,0.12,-0.12,0.0,166.53,194.0,0.0,0.0,0.0,0.0
1776450595819188512,16808,0.104,0.3,0.0,0.5,-0.06,0.02,0.06,0.63,5.31,0.02,-0.0,-0.35,-0.0,-0.0,0.0,166.36,194.0,0.0,0.0,0.0,0.0
1776450595921598886,16909,0.0,1.4,0.076,0.2,0.1,-0.08,0.06,0.63,5.31,0.03,-0.0,-0.32,-0.0,-0.12,0.06,166.53,193.0,0.0,0.0,0.0,0.0
1776450596019894630,17008,0.0,1.3,0.076,0.3,0.0,-0.12,0.06,0.63,5.31,0.02,-0.0,-0.32,0.06,-0.0,0.0,166.53,193.0,0.0,0.0,0.0,0.0
1776450596152206312,17107,0.0,1.2,0.08,0.6,-0.06,-0.12,0.06,0.63,5.31,0.03,-0.0,-0.32,-0.0,0.06,0.06,166.36,193.0,0.0,0.0,0.0,0.0
1776450596220599192,17207,0.0,0.2,0.0,1.3,-0.02,0.02,0.06,0.63,5.31,0.03,-0.01,-0.33,-0.0,-0.06,0.0,166.36,196.0,0.0,0.0,0.0,0.0
1776450596318869657,17307,0.1,0.2,0.0,1.5,0.0,-0.04,0.06,0.63,5.31,0.04,-0.02,-0.33,0.06,-0.12,-0.06,166.53,196.0,0.0,0.0,0.0,0.0
1776450596417173882,17406,0.1,0.0,0.0,1.7,0.08,-0.1,0.06,0.63,5.31,0.05,-0.01,-0.33,-0.0,-0.0,-0.12,167.04,195.0,0.0,0.0,0.0,0.0
1776450596519548886,17507,0.104,0.2,0.0,0.5,0.08,-0.16,0.06,0.63,5.31,0.03,-0.0,-0.32,-0.0,-0.06,0.06,166.53,184.0,0.0,0.0,0.0,0.0
1776450596617873073,17608,0.0,0.9,0.084,0.4,0.04,-0.18,0.06,0.63,5.31,0.03,-0.01,-0.29,-0.0,0.12,0.06,166.53,184.0,0.0,0.0,0.0,0.0
1776450596720292540,17708,0.0,0.8,0.0,1.4,-0.06,-0.14,0.06,0.63,5.31,0.03,-0.0,-0.33,-0.0,-0.12,-0.06,166.36,193.0,0.0,0.0,0.0,0.0
1776450596822683322,17809,0.104,0.5,0.0,1.6,0.1,-0.04,0.06,0.63,5.31,0.03,-0.0,-0.33,-0.0,-0.12,0.0,166.53,193.0,0.0,0.0,0.0,0.0
1776450597072220015,17909,0.1,0.3,0.0,1.6,-0.08,-0.04,0.06,0.63,5.31,0.04,-0.01,-0.31,0.06,-0.06,0.06,167.56,192.0,0.0,0.0,0.0,0.0
1776450597121664387,18010,0.0,1.1,0.088,0.0,-0.04,-0.06,0.06,0.63,5.31,0.03,-0.0,-0.34,0.12,-0.19,-0.06,166.36,187.0,0.0,0.0,0.0,0.0
1776450597134703466,18110,0.108,0.0,0.0,1.5,-0.02,0.0,0.06,0.63,5.31,0.03,-0.02,-0.35,-0.06,0.06,0.06,166.36,187.0,0.0,0.0,0.0,0.0
1776450597224057021,18211,0.104,0.2,0.084,0.3,0.14,0.0,0.06,0.63,5.31,0.03,-0.02,-0.32,0.06,-0.06,-0.12,166.36,191.0,0.0,0.0,0.0,0.0
1776450597322388208,18311,0.0,1.2,0.0,0.2,0.0,0.02,0.06,0.63,5.31,0.04,-0.01,-0.31,0.06,0.06,-0.06,166.53,191.0,0.0,0.0,0.0,0.0
1776450597420617063,18411,0.0,0.9,0.0,1.6,-0.12,-0.08,0.06,0.63,5.31,0.03,-0.0,-0.32,0.06,-0.0,0.06,166.36,191.0,0.0,0.0,0.0,0.0
1776450597523023493,18510,0.0,1.2,0.076,0.5,-0.08,0.0,0.06,0.63,5.31,0.02,-0.0,-0.33,-0.19,0.19,0.0,166.36,189.0,0.0,0.0,0.0,0.0
1776450597621341791,18610,0.0,0.2,0.0,1.2,-0.08,-0.12,0.06,0.63,5.31,0.02,-0.0,-0.31,0.25,-0.31,0.0,166.36,191.0,0.0,0.0,0.0,0.0
1776450597723765055,18710,0.0,0.1,0.0,1.5,0.1,-0.08,0.06,0.63,5.31,0.0,-0.01,-0.35,0.06,0.06,-0.06,166.36,191.0,0.0,0.0,0.0,0.0
1776450597822066983,18809,0.1,0.2,0.0,1.7,-0.14,-0.2,0.06,0.63,5.31,0.04,-0.0,-0.35,0.06,-0.06,-0.12,166.53,195.0,0.0,0.0,0.0,0.0
1776450597924471746,18910,0.096,0.1,0.0,1.6,-0.02,-0.02,0.06,0.63,5.31,0.04,-0.0,-0.34,0.06,-0.0,0.0,166.36,186.0,0.0,0.0,0.0,0.0
1776450598022758119,19011,0.0,1.4,0.08,0.6,0.04,0.0,0.06,0.63,5.31,0.03,-0.01,-0.36,0.12,-0.12,-0.06,166.53,186.0,0.0,0.0,0.0,0.0
1776450598125157753,19111,0.0,1.4,0.08,0.2,0.16,-0.12,0.06,0.63,5.31,0.03,-0.0,-0.31,0.06,-0.06,0.0,167.56,194.0,0.0,0.0,0.0,0.0
1776450598227557775,19212,0.0,0.2,0.0,1.2,-0.04,0.0,0.06,0.63,5.31,0.05,-0.0,-0.32,0.06,-0.0,-0.06,166.53,194.0,0.0,0.0,0.0,0.0
1776450598325823352,19312,0.0,0.9,0.076,0.3,0.08,-0.06,0.06,0.63,5.31,0.04,-0.0,-0.33,-0.06,-0.12,-0.06,166.53,194.0,0.0,0.0,0.0,0.0
1776450598424117188,19411,0.0,0.9,0.068,0.2,0.02,0.12,0.06,0.63,5.31,0.04,-0.01,-0.32,-0.0,-0.0,0.06,166.53,196.0,0.0,0.0,0.0,0.0
1776450598526517914,19512,0.0,1.0,0.0,1.3,-0.04,0.0,0.06,0.63,5.31,0.04,-0.0,-0.32,0.06,-0.12,0.0,166.53,196.0,0.0,0.0,0.0,0.0
1776450598624854694,19613,0.104,0.5,0.084,0.5,0.0,-0.06,0.06,0.63,5.31,0.02,-0.0,-0.31,-0.0,-0.19,0.0,166.36,208.0,0.0,0.0,0.0,0.0
1776450598727246272,19713,0.0,1.3,0.08,0.9,0.14,-0.08,0.06,0.63,5.31,0.03,-0.0,-0.35,-0.0,-0.06,0.0,166.53,195.0,0.0,0.0,0.0,0.0
1776450598825548015,19813,0.1,0.2,0.0,1.4,-0.08,-0.12,0.06,0.63,5.31,0.01,-0.0,-0.32,0.06,-0.06,0.0,166.53,195.0,0.0,0.0,0.0,0.0
1776450598927934353,19913,0.0,0.4,0.0,1.4,-0.06,-0.2,0.06,0.63,5.31,0.02,-0.0,-0.3,0.06,0.06,-0.12,166.36,206.0,0.0,0.0,0.0,0.0
1776450599026252818,20013,0.0,1.2,0.076,0.5,-0.04,-0.25,0.06,0.63,5.31,0.03,-0.0,-0.33,-0.0,-0.19,0.0,166.53,194.0,0.0,0.0,0.0,0.0
1776450599128645822,20114,0.0,-0.1,0.0,1.1,-0.04,-0.2,0.06,0.63,5.31,0.03,-0.01,-0.35,-0.12,-0.0,0.0,166.36,194.0,0.0,0.0,0.0,0.0
1776450599226938547,20214,0.0,0.9,0.08,1.3,0.04,-0.06,0.06,0.63,5.31,0.01,-0.0,-0.34,-0.06,-0.06,0.0,166.53,200.0,0.0,0.0,0.0,0.0
1776450599329351384,20314,0.1,0.2,0.0,1.7,0.04,-0.08,0.06,0.63,5.31,0.05,-0.02,-0.34,-0.0,-0.12,0.0,166.36,200.0,0.0,0.0,0.0,0.0
1776450599427610442,20414,0.1,0.2,0.0,1.6,-0.12,0.08,0.06,0.63,5.31,0.0,-0.01,-0.32,-0.0,0.06,0.12,166.36,199.0,0.0,0.0,0.0,0.0
1776450599525958797,20513,0.1,0.2,0.0,1.5,-0.04,-0.06,0.06,0.63,5.31,0.03,-0.01,-0.32,-0.06,-0.0,0.0,166.36,185.0,0.0,0.0,0.0,0.0
1776450599628346986,20614,0.104,0.4,0.0,1.5,-0.1,-0.14,0.06,0.63,5.31,0.01,-0.01,-0.32,-0.06,0.12,0.06,166.36,185.0,0.0,0.0,0.0,0.0
1776450599726630840,20714,0.104,-0.1,0.076,0.0,-0.04,-0.12,0.06,0.63,5.31,0.03,-0.02,-0.33,-0.19,-0.0,0.12,166.53,199.0,0.0,0.0,0.0,0.0
1776450600092230913,20814,0.0,1.1,0.076,0.5,0.1,-0.12,0.06,0.63,5.31,0.03,-0.0,-0.32,-0.06,0.12,0.0,166.36,188.0,0.0,0.0,0.0,0.0
1776450600128062483,20914,0.104,0.5,0.0,1.2,0.0,-0.04,0.06,0.63,5.31,0.04,-0.01,-0.35,0.06,-0.06,0.0,166.36,188.0,0.0,0.0,0.0,0.0
1776450600140432228,21014,0.0,0.9,0.0,1.7,-0.06,0.0,0.06,0.63,5.31,0.02,-0.0,-0.35,-0.06,0.06,0.12,166.36,190.0,0.0,0.0,0.0,0.0
1776450600153430660,21114,0.1,0.6,0.076,0.2,-0.04,-0.04,0.06,0.63,5.31,0.01,-0.0,-0.33,-0.06,-0.0,0.06,166.36,188.0,0.0,0.0,0.0,0.0
1776450600230443709,21214,0.0,0.0,0.0,1.1,0.12,-0.14,0.06,0.63,5.31,0.03,-0.0,-0.32,-0.0,0.12,0.19,171.67,188.0,0.0,0.0,0.0,0.0
1776450600328739415,21315,0.0,0.1,0.0,1.4,0.16,-0.06,0.06,0.63,5.31,0.0,-0.02,-0.32,-0.12,-0.0,-0.06,171.16,189.0,0.0,0.0,0.0,0.0
1776450600426977954,21414,0.104,0.0,0.0,1.5,0.14,-0.16,0.06,0.63,5.31,0.04,-0.0,-0.32,-0.12,0.06,0.0,169.44,190.0,0.0,0.0,0.0,0.0
1776450600529436959,21514,0.092,1.1,0.0,0.2,-0.14,0.0,0.06,0.63,5.31,0.04,-0.0,-0.33,-0.0,-0.06,0.0,166.36,190.0,0.0,0.0,0.0,0.0
1776450600627735183,21614,0.0,1.1,0.068,0.2,-0.08,-0.16,0.06,0.63,5.31,0.01,-0.0,-0.33,-0.0,0.06,0.0,167.56,194.0,0.0,0.0,0.0,0.0
1776450600730164761,21714,0.0,0.8,0.0,1.8,-0.04,0.08,0.06,0.63,5.31,0.02,0.01,-0.32,0.19,0.12,0.06,166.36,194.0,0.0,0.0,0.0,0.0
1776450600838467675,21815,0.0,1.3,0.076,0.6,0.14,0.04,0.06,0.63,5.31,0.05,-0.0,-0.33,0.12,0.12,0.0,167.56,191.0,0.0,0.0,0.0,0.0
1776450600930829009,21916,0.0,0.2,0.0,0.4,-0.08,-0.08,0.06,0.63,5.31,0.02,-0.01,-0.34,0.12,-0.06,0.12,166.53,194.0,0.0,0.0,0.0,0.0
1776450601029079844,22016,0.0,-0.1,0.0,1.8,-0.02,-0.14,0.06,0.63,5.31,0.04,-0.01,-0.33,-0.0,-0.0,-0.06,166.36,194.0,0.0,0.0,0.0,0.0
1776450601131519404,22116,0.1,1.4,0.084,0.3,-0.1,-0.06,0.06,0.63,5.31,0.04,-0.01,-0.33,0.06,-0.0,-0.12,170.64,196.0,0.0,0.0,0.0,0.0
1776450601229826295,22215,0.0,1.5,0.08,0.4,0.0,-0.04,0.06,0.63,5.31,0.02,-0.01,-0.33,-0.0,0.19,0.06,170.64,195.0,0.0,0.0,0.0,0.0
1776450601332252003,22315,0.108,0.3,0.0,1.6,-0.1,-0.06,0.06,0.63,5.31,0.04,-0.0,-0.34,-0.0,0.06,0.0,170.64,195.0,0.0,0.0,0.0,0.0
1776450601430475950,22415,0.108,0.1,0.0,1.5,-0.14,0.0,0.06,0.63,5.31,0.03,-0.01,-0.34,-0.0,-0.0,0.0,166.36,197.0,0.0,0.0,0.0,0.0
1776450601528782730,22514,0.104,1.2,0.0,0.9,-0.02,-0.12,0.06,0.63,5.31,0.04,-0.0,-0.34,-0.0,-0.12,0.0,166.53,197.0,0.0,0.0,0.0,0.0
1776450601631270623,22614,0.104,0.2,0.0,0.8,-0.16,-0.06,0.06,0.63,5.31,0.02,-0.01,-0.35,0.06,0.12,-0.06,166.53,193.0,0.0,0.0,0.0,0.0
1776450601729538421,22714,0.0,1.0,0.068,0.6,-0.08,-0.21,0.06,0.63,5.31,0.02,-0.02,-0.32,0.06,0.06,0.0,166.36,204.0,0.0,0.0,0.0,0.0
1776450601827824794,22813,0.0,0.7,0.076,0.5,0.04,-0.02,0.06,0.63,5.31,0.04,-0.01,-0.36,-0.0,-0.06,0.0,166.36,204.0,0.0,0.0,0.0,0.0
1776450601930212669,22913,0.0,1.0,0.084,0.4,-0.04,0.0,0.06,0.63,5.31,0.03,-0.02,-0.32,-0.0,0.06,-0.12,166.36,194.0,0.0,0.0,0.0,0.0
1776450602028513393,23013,0.0,1.1,0.084,0.3,-0.06,-0.06,0.06,0.63,5.31,0.03,-0.02,-0.33,-0.0,-0.0,-0.06,166.53,201.0,0.0,0.0,0.0,0.0
1776450602126788840,23113,0.0,0.0,0.0,1.5,-0.06,-0.08,0.06,0.63,5.31,0.02,-0.0,-0.34,-0.0,0.12,0.0,166.53,201.0,0.0,0.0,0.0,0.0
1776450602229218085,23213,0.096,0.3,0.0,1.4,-0.1,-0.12,0.06,0.63,5.31,0.04,-0.0,-0.34,-0.0,-0.0,-0.06,166.36,198.0,0.0,0.0,0.0,0.0
1776450602331618089,23314,0.108,0.2,0.0,1.3,-0.06,-0.06,0.06,0.63,5.31,0.03,-0.01,-0.35,-0.0,-0.12,-0.06,166.36,207.0,0.0,0.0,0.0,0.0
1776450602429905925,23414,0.0,1.4,0.0,1.1,0.14,-0.04,0.06,0.63,5.31,0.04,-0.01,-0.33,0.06,0.12,0.19,167.38,207.0,0.0,0.0,0.0,0.0
1776450602532288651,23515,0.0,0.1,0.0,1.4,0.16,-0.02,0.06,0.63,5.31,0.02,-0.01,-0.33,0.12,-0.06,0.0,166.36,195.0,0.0,0.0,0.0,0.0
1776450602630603024,23615,0.108,0.2,0.0,1.6,-0.08,-0.08,0.06,0.63,5.31,0.02,-0.02,-0.34,-0.06,0.06,0.0,166.36,191.0,0.0,0.0,0.0,0.0
1776450602733001731,23715,0.104,0.5,0.08,0.1,0.06,-0.16,0.06,0.63,5.31,0.01,-0.0,-0.34,0.06,-0.06,0.0,166.36,191.0,0.0,0.0,0.0,0.0
1776450602831309863,23816,0.0,0.1,0.0,1.1,0.12,-0.08,0.06,0.63,5.31,0.05,-0.0,-0.32,-0.0,-0.06,0.0,166.53,194.0,0.0,0.0,0.0,0.0
1776450602933696330,23916,0.104,-0.1,0.08,0.3,-0.02,-0.12,0.06,0.63,5.31,0.06,-0.01,-0.32,-0.0,-0.0,0.06,166.53,194.0,0.0,0.0,0.0,0.0
1776450603031998018,24016,0.0,1.3,0.0,0.9,-0.08,-0.08,0.06,0.63,5.31,0.02,-0.0,-0.31,0.12,-0.0,0.0,166.36,209.0,0.0,0.0,0.0,0.0
1776450603134397929,24116,0.0,0.9,0.0,1.5,-0.14,-0.08,0.06,0.63,5.31,0.01,-0.0,-0.29,-0.0,0.06,0.12,166.53,196.0,0.0,0.0,0.0,0.0
1776450603232709561,24216,0.1,0.2,0.0,1.4,0.0,-0.02,0.06,0.63,5.31,0.01,-0.01,-0.36,0.12,0.06,0.12,166.36,196.0,0.0,0.0,0.0,0.0
1776450603331008119,24315,0.1,0.3,0.0,1.5,0.0,0.0,0.06,0.63,5.31,0.01,-0.0,-0.33,-0.0,-0.0,-0.06,166.36,191.0,0.0,0.0,0.0,0.0
1776450603433360271,24416,0.1,0.1,0.0,1.5,-0.02,0.0,0.06,0.63,5.31,0.04,-0.01,-0.33,-0.06,0.06,0.06,166.36,191.0,0.0,0.0,0.0,0.0
1776450603531687829,24516,0.104,0.1,0.0,1.5,0.02,-0.1,0.06,0.63,5.31,0.03,-0.01,-0.34,-0.06,-0.0,-0.06,166.36,191.0,0.0,0.0,0.0,0.0
1776450603630020054,24615,0.0,0.9,0.064,0.3,0.06,0.06,0.06,0.63,5.31,0.02,-0.01,-0.33,0.12,-0.06,0.06,170.64,193.0,0.0,0.0,0.0,0.0
1776450603732405095,24715,0.0,0.9,0.076,0.6,0.12,-0.06,0.06,0.63,5.31,0.02,-0.01,-0.33,0.06,-0.25,-0.06,165.33,189.0,0.0,0.0,0.0,0.0
1776450603830648709,24816,0.0,0.1,0.0,1.6,-0.08,0.0,0.06,0.63,5.31,0.02,-0.0,-0.33,0.06,-0.12,0.06,170.47,189.0,0.0,0.0,0.0,0.0
1776450603933096138,24915,0.104,1.3,0.0,1.3,0.08,-0.12,0.06,0.63,5.31,0.04,-0.02,-0.33,-0.0,-0.06,-0.12,166.36,200.0,0.0,0.0,0.0,0.0
1776450604035492439,25016,0.0,0.5,0.08,0.8,0.0,-0.14,0.06,0.63,5.31,0.01,-0.02,-0.34,-0.0,-0.0,0.0,166.36,200.0,0.0,0.0,0.0,0.0
1776450604133783367,25117,0.0,1.2,0.0,0.1,0.1,-0.08,0.06,0.63,5.31,0.0,-0.02,-0.33,-0.0,0.06,0.0,166.53,195.0,0.0,0.0,0.0,0.0
1776450604236196630,25217,0.0,0.7,0.072,0.3,-0.02,-0.14,0.06,0.63,5.31,0.02,-0.0,-0.33,0.06,-0.0,0.0,166.36,193.0,0.0,0.0,0.0,0.0
1776450604334477614,25318,0.0,0.7,0.068,0.2,-0.12,0.0,0.06,0.63,5.31,0.03,-0.0,-0.32,-0.31,-0.12,0.0,166.53,193.0,0.0,0.0,0.0,0.0
1776450604436901081,25418,0.0,1.0,0.072,0.3,0.08,-0.16,0.06,0.63,5.31,0.03,-0.0,-0.33,0.06,-0.0,0.06,166.36,190.0,0.0,0.0,0.0,0.0
1776450604535141769,25519,0.0,0.3,0.0,1.5,0.06,-0.02,0.06,0.63,5.31,0.03,-0.0,-0.33,-0.0,0.12,0.0,166.36,195.0,0.0,0.0,0.0,0.0
1776450604637599791,25619,0.0,0.3,0.0,1.2,-0.14,-0.04,0.06,0.63,5.31,0.05,-0.02,-0.34,-0.12,-0.0,0.0,166.36,195.0,0.0,0.0,0.0,0.0
1776450604735884386,25719,0.0,1.0,0.0,1.5,0.08,-0.08,0.06,0.63,5.31,0.01,-0.0,-0.34,-0.12,0.06,0.0,167.56,192.0,0.0,0.0,0.0,0.0
1776450604838263946,25820,0.096,0.2,0.0,1.3,-0.04,-0.21,0.06,0.63,5.31,0.0,-0.0,-0.32,-0.0,0.06,0.0,166.36,196.0,0.0,0.0,0.0,0.0
1776450604936573374,25920,0.1,0.4,0.072,0.2,0.0,-0.04,0.06,0.63,5.31,0.02,-0.02,-0.33,-0.06,0.19,0.0,166.36,196.0,0.0,0.0,0.0,0.0
1776450605038976563,26020,0.0,1.2,0.084,0.6,0.04,-0.06,0.06,0.63,5.31,0.03,-0.0,-0.33,-0.12,0.06,0.0,166.36,197.0,0.0,0.0,0.0,0.0
1776450605137280380,26120,0.0,1.5,0.0,1.3,0.1,-0.08,0.06,0.63,5.31,0.01,-0.01,-0.36,-0.0,0.12,-0.12,166.36,198.0,0.0,0.0,0.0,0.0
1776450605235546290,26220,0.0,0.8,0.0,1.7,-0.08,-0.2,0.06,0.63,5.31,0.03,-0.0,-0.37,-0.06,0.06,0.0,166.53,198.0,0.0,0.0,0.0,0.0
1776450605337973350,26319,0.096,0.0,0.072,0.3,-0.02,0.0,0.06,0.63,5.31,0.04,-0.02,-0.38,-0.19,0.06,0.0,166.36,190.0,0.0,0.0,0.0,0.0
1776450605440360891,26420,0.0,1.1,0.076,0.3,0.06,0.0,0.06,0.63,5.31,0.02,-0.03,-0.33,-0.12,-0.0,0.12,166.36,190.0,0.0,0.0,0.0,0.0
1776450605560270494,26521,0.0,1.3,0.072,0.3,0.04,-0.08,0.06,0.63,5.31,0.04,-0.0,-0.36,0.06,-0.12,-0.06,166.53,201.0,0.0,0.0,0.0,0.0
1776450605636970673,26620,0.0,1.1,0.0,1.4,0.04,-0.21,0.06,0.63,5.31,0.04,-0.01,-0.33,0.12,-0.06,0.06,167.38,198.0,0.0,0.0,0.0,0.0
1776450605739341418,26721,0.104,0.2,0.0,0.3,0.02,-0.25,0.06,0.63,5.31,0.02,-0.0,-0.36,-0.0,0.12,0.0,166.53,198.0,0.0,0.0,0.0,0.0
1776450605841767644,26822,0.104,0.0,0.0,1.3,0.06,-0.08,0.06,0.63,5.31,0.01,-0.0,-0.36,-0.0,-0.06,0.0,166.36,194.0,0.0,0.0,0.0,0.0
1776450605940058739,26921,0.1,0.3,0.0,1.5,-0.14,-0.08,0.06,0.63,5.31,0.02,-0.0,-0.36,0.06,0.06,0.06,166.53,194.0,0.0,0.0,0.0,0.0
1776450606042476743,27022,0.096,0.4,0.0,1.5,-0.08,-0.12,0.06,0.63,5.31,0.02,-0.02,-0.37,-0.0,0.06,0.19,167.38,194.0,0.0,0.0,0.0,0.0
1776450606184253300,27123,0.1,0.3,0.0,1.5,0.14,0.04,0.06,0.63,5.31,0.03,-0.0,-0.35,0.06,0.06,0.06,166.36,200.0,0.0,0.0,0.0,0.0
1776450606243174120,27223,0.104,0.1,0.0,1.4,-0.08,-0.08,0.06,0.63,5.31,0.03,-0.03,-0.35,-0.0,-0.06,0.12,165.33,193.0,0.0,0.0,0.0,0.0
1776450606341469641,27323,0.1,0.9,0.0,1.4,-0.04,-0.21,0.06,0.63,5.31,0.04,-0.0,-0.36,0.06,-0.06,0.06,166.36,193.0,0.0,0.0,0.0,0.0
1776450606439727088,27423,0.1,0.0,0.0,1.4,-0.02,-0.08,0.06,0.63,5.31,0.02,-0.01,-0.33,-0.06,-0.06,-0.06,170.13,192.0,0.0,0.0,0.0,0.0
1776450606542112406,27523,0.0,0.1,0.076,0.3,-0.06,-0.12,0.06,0.63,5.31,0.04,-0.03,-0.35,-0.06,-0.12,0.0,165.84,192.0,0.0,0.0,0.0,0.0
1776450606644544188,27624,0.0,0.7,0.076,0.1,-0.04,-0.12,0.06,0.63,5.31,0.03,-0.0,-0.35,-0.0,-0.0,0.12,165.84,187.0,0.0,0.0,0.0,0.0
1776450606742847431,27724,0.0,0.9,0.072,0.6,0.1,0.0,0.06,0.63,5.31,0.03,-0.01,-0.35,-0.0,0.06,0.12,165.84,201.0,0.0,0.0,0.0,0.0
1776450606851196123,27824,0.0,0.6,0.0,1.4,-0.02,0.0,0.06,0.63,5.31,0.02,-0.01,-0.35,0.06,-0.06,0.0,165.84,201.0,0.0,0.0,0.0,0.0
1776450606943545289,27924,0.0,1.4,0.0,1.2,-0.02,-0.08,0.06,0.63,5.31,0.02,-0.0,-0.36,-0.0,-0.0,-0.06,165.84,191.0,0.0,0.0,0.0,0.0
1776450607041820477,28024,0.108,0.5,0.0,1.3,-0.02,-0.2,0.06,0.63,5.31,0.01,-0.01,-0.35,-0.06,0.12,0.06,165.84,192.0,0.0,0.0,0.0,0.0
1776450607144251722,28125,0.1,0.2,0.0,0.9,0.1,0.04,0.06,0.63,5.31,0.03,-0.0,-0.32,-0.06,0.12,0.12,165.84,192.0,0.0,0.0,0.0,0.0
1776450607242520613,28225,0.1,0.3,0.0,0.9,0.21,-0.04,0.06,0.63,5.31,0.02,-0.02,-0.34,0.06,0.12,0.06,165.84,196.0,0.0,0.0,0.0,0.0
1776450607344940321,28325,0.0,0.2,0.0,1.1,-0.04,-0.1,0.06,0.63,5.31,0.03,-0.0,-0.33,0.06,-0.06,0.0,165.84,206.0,0.0,0.0,0.0,0.0
1776450607443203434,28425,0.1,0.2,0.084,0.5,0.0,-0.14,0.06,0.63,5.31,0.0,-0.01,-0.37,0.06,0.12,0.0,165.84,206.0,0.0,0.0,0.0,0.0
1776450607545605142,28525,0.0,1.0,0.072,0.6,0.02,-0.06,0.06,0.63,5.31,0.03,-0.01,-0.34,0.06,-0.12,0.06,165.84,196.0,0.0,0.0,0.0,0.0
1776450607643940662,28625,0.0,0.6,0.072,0.6,0.02,-0.08,0.06,0.63,5.31,0.03,-0.01,-0.35,-0.0,-0.0,0.0,166.53,196.0,0.0,0.0,0.0,0.0
1776450607746335796,28725,0.1,0.1,0.0,1.2,-0.02,-0.08,0.06,0.63,5.31,0.05,-0.02,-0.34,-0.0,-0.0,0.06,166.36,199.0,0.0,0.0,0.0,0.0
1776450607844644761,28826,0.096,0.1,0.0,1.5,-0.02,0.0,0.06,0.63,5.31,0.01,-0.02,-0.35,0.12,-0.0,0.06,166.53,196.0,0.0,0.0,0.0,0.0
1776450607952995508,28925,0.1,0.2,0.0,1.5,-0.18,-0.16,0.06,0.63,5.31,0.02,-0.01,-0.34,0.19,-0.0,0.06,166.36,196.0,0.0,0.0,0.0,0.0
1776450608045342064,29026,0.096,0.3,0.072,0.2,0.06,-0.04,0.06,0.63,5.31,0.01,-0.02,-0.33,-0.06,-0.06,-0.06,166.36,201.0,0.0,0.0,0.0,0.0
1776450608324213916,29126,0.0,0.9,0.08,0.2,-0.06,-0.1,0.06,0.63,5.31,0.04,-0.01,-0.35,-0.06,0.06,0.0,166.36,190.0,0.0,0.0,0.0,0.0
1776450608344329980,29225,0.0,0.9,0.072,0.5,-0.21,-0.06,0.06,0.63,5.31,0.03,-0.0,-0.34,-0.06,-0.06,-0.12,166.36,190.0,0.0,0.0,0.0,0.0
1776450608352635391,29325,0.0,0.9,0.076,0.5,-0.02,-0.02,0.06,0.63,5.31,0.04,-0.02,-0.32,-0.0,-0.0,0.06,166.36,176.0,0.0,0.0,0.0,0.0
1776450608442553390,29425,0.0,0.2,0.0,1.5,0.14,-0.04,0.06,0.63,5.31,0.01,-0.0,-0.32,-0.0,0.06,0.0,166.36,191.0,0.0,0.0,0.0,0.0
1776450608545021505,29524,0.0,1.4,0.0,1.1,0.0,-0.2,0.06,0.63,5.31,0.05,-0.0,-0.32,-0.0,-0.0,0.12,166.53,191.0,0.0,0.0,0.0,0.0
1776450608643340933,29624,0.104,0.2,0.0,0.8,0.1,-0.1,0.06,0.63,5.31,0.03,-0.01,-0.33,-0.0,-0.0,-0.06,166.36,192.0,0.0,0.0,0.0,0.0
1776450608745728381,29724,0.0,0.9,0.084,0.2,0.0,-0.04,0.06,0.63,5.31,0.04,-0.0,-0.32,0.12,-0.19,0.06,166.36,192.0,0.0,0.0,0.0,0.0
1776450608844026180,29824,0.0,0.0,0.0,1.5,0.04,-0.06,0.06,0.63,5.31,0.02,-0.0,-0.32,-0.0,-0.06,0.12,166.53,193.0,0.0,0.0,0.0,0.0
1776450608942331627,29924,0.0,1.1,0.08,0.3,0.16,-0.1,0.06,0.63,5.31,0.01,-0.01,-0.33,0.12,-0.12,-0.06,166.36,191.0,0.0,0.0,0.0,0.0
1776450609044725853,30024,0.0,1.1,0.088,1.2,-0.08,-0.16,0.06,0.63,5.31,0.04,-0.0,-0.33,0.19,0.06,0.0,166.53,191.0,0.0,0.0,0.0,0.0
1776450609147127783,30125,0.1,0.1,0.0,1.4,-0.02,-0.06,0.06,0.63,5.31,0.03,-0.01,-0.31,-0.06,0.06,0.0,166.36,202.0,0.0,0.0,0.0,0.0
1776450609245417156,30225,0.108,0.2,0.0,1.1,-0.08,-0.04,0.06,0.63,5.31,0.03,-0.0,-0.32,0.06,-0.0,0.12,166.36,185.0,0.0,0.0,0.0,0.0
1776450609343725936,30324,0.092,0.0,0.08,0.5,0.06,-0.12,0.06,0.63,5.31,0.03,-0.01,-0.33,-0.12,0.06,0.12,166.36,185.0,0.0,0.0,0.0,0.0
1776450609446079680,30424,0.0,1.0,0.068,0.3,0.04,-0.08,0.06,0.63,5.31,0.02,-0.0,-0.32,-0.06,0.19,0.06,169.96,198.0,0.0,0.0,0.0,0.0
1776450609544396016,30525,0.0,0.9,0.08,0.3,-0.06,-0.14,0.06,0.63,5.31,0.03,-0.02,-0.36,0.12,-0.12,0.12,166.36,186.0,0.0,0.0,0.0,0.0
1776450609646833742,30624,0.0,0.9,0.072,0.4,-0.06,-0.16,0.06,0.63,5.31,0.03,-0.01,-0.35,-0.06,-0.0,-0.06,166.36,186.0,0.0,0.0,0.0,0.0
1776450609745111356,30725,0.0,1.0,0.072,0.1,0.08,0.06,0.06,0.63,5.31,0.02,-0.0,-0.31,-0.0,-0.12,0.0,166.36,184.0,0.0,0.0,0.0,0.0
1776450609847513823,30826,0.0,0.0,0.0,0.9,0.08,0.02,0.06,0.63,5.31,0.04,-0.0,-0.36,-0.06,0.06,0.06,166.53,188.0,0.0,0.0,0.0,0.0
1776450609945811232,30925,0.104,0.5,0.0,1.2,0.06,-0.04,0.06,0.63,5.31,0.06,-0.02,-0.34,0.06,-0.12,0.0,167.56,188.0,0.0,0.0,0.0,0.0
1776450610048183162,31026,0.108,0.1,0.0,1.3,0.04,-0.1,0.06,0.63,5.31,0.02,-0.0,-0.34,0.12,-0.12,0.06,170.47,191.0,0.0,0.0,0.0,0.0
1776450610146515405,31126,0.0,0.7,0.0,1.5,-0.08,-0.06,0.06,0.63,5.31,0.03,-0.01,-0.32,0.12,-0.0,0.06,166.36,191.0,0.0,0.0,0.0,0.0
1776450610249051687,31226,0.1,0.5,0.0,1.5,-0.12,-0.02,0.06,0.63,5.31,0.03,-0.01,-0.35,-0.06,-0.0,-0.06,166.53,202.0,0.0,0.0,0.0,0.0
1776450610347228226,31326,0.1,0.3,0.0,1.4,-0.14,-0.02,0.06,0.63,5.31,0.03,-0.01,-0.33,-0.0,-0.0,0.0,166.36,194.0,0.0,0.0,0.0,0.0
1776450610445537618,31426,0.104,0.6,0.04,0.7,0.06,-0.18,0.06,0.63,5.31,0.02,-0.02,-0.31,-0.06,-0.06,0.06,166.36,194.0,0.0,0.0,0.0,0.0
1776450610547889566,31525,0.0,0.1,0.0,1.4,-0.02,0.1,0.06,0.63,5.31,0.03,-0.01,-0.31,-0.0,-0.06,0.06,170.64,196.0,0.0,0.0,0.0,0.0
1776450610646210957,31625,0.0,1.4,0.072,0.0,-0.1,-0.14,0.06,0.63,5.31,0.05,-0.02,-0.35,-0.06,-0.12,0.0,166.53,203.0,0.0,0.0,0.0,0.0
1776450610748613313,31726,0.0,1.5,0.076,0.1,-0.06,-0.21,0.06,0.63,5.31,0.02,-0.01,-0.32,-0.12,0.06,0.0,169.96,203.0,0.0,0.0,0.0,0.0
1776450610846905223,31825,0.0,0.2,0.076,0.5,0.1,-0.1,0.06,0.63,5.31,0.05,-0.02,-0.34,0.06,0.06,0.0,169.96,186.0,0.0,0.0,0.0,0.0
1776450610945173614,31925,0.0,1.0,0.0,1.8,0.0,0.02,0.06,0.63,5.31,0.04,-0.0,-0.32,-0.0,0.06,0.0,169.96,186.0,0.0,0.0,0.0,0.0
1776450611047643766,32025,0.1,1.4,0.084,0.1,0.08,-0.02,0.06,0.63,5.31,0.01,-0.02,-0.32,0.06,0.12,0.0,165.84,191.0,0.0,0.0,0.0,0.0
1776450611145908194,32124,0.0,1.2,0.0,1.1,-0.02,-0.04,0.06,0.63,5.31,0.02,-0.01,-0.33,0.06,-0.19,0.0,166.36,201.0,0.0,0.0,0.0,0.0
1776450611248289087,32224,0.096,0.2,0.0,1.1,-0.02,-0.08,0.06,0.63,5.31,0.04,-0.01,-0.35,-0.06,-0.0,0.0,166.36,201.0,0.0,0.0,0.0,0.0
1776450611346632941,32324,0.104,0.0,0.0,1.0,0.06,-0.02,0.06,0.63,5.31,0.02,-0.0,-0.33,0.06,0.12,-0.06,165.84,189.0,0.0,0.0,0.0,0.0
1776450611444871647,32424,0.1,0.3,0.0,0.5,-0.12,0.04,0.06,0.63,5.31,0.02,-0.01,-0.32,-0.0,-0.06,-0.06,169.96,200.0,0.0,0.0,0.0,0.0
1776450611547284336,32524,0.0,0.3,0.056,0.2,-0.08,0.0,0.06,0.63,5.31,0.04,-0.03,-0.32,-0.0,0.06,0.12,169.96,200.0,0.0,0.0,0.0,0.0
1776450611645606431,32624,0.096,0.1,0.0,0.5,0.02,-0.04,0.06,0.63,5.31,0.04,-0.0,-0.35,-0.06,-0.06,0.06,166.36,192.0,0.0,0.0,0.0,0.0
1776450611743871082,32723,0.0,0.0,0.0,1.5,0.04,-0.02,0.06,0.63,5.31,0.04,-0.01,-0.33,0.06,-0.12,-0.06,166.36,199.0,0.0,0.0,0.0,0.0
1776450611846296493,32824,0.0,1.4,0.0,1.3,-0.06,-0.12,0.06,0.63,5.31,0.04,-0.01,-0.33,0.06,-0.0,-0.06,166.36,199.0,0.0,0.0,0.0,0.0
1776450611948694775,32925,0.108,0.5,0.0,1.1,-0.02,-0.14,0.06,0.63,5.31,0.03,-0.0,-0.31,-0.06,0.06,-0.06,166.53,192.0,0.0,0.0,0.0,0.0
1776450612046993018,33026,0.1,0.4,0.0,1.1,-0.06,-0.16,0.06,0.63,5.31,0.03,-0.02,-0.32,-0.06,0.06,0.0,166.36,193.0,0.0,0.0,0.0,0.0
1776450612149392929,33126,0.0,0.9,0.08,0.3,0.02,0.04,0.06,0.63,5.31,0.01,-0.0,-0.32,-0.0,-0.0,0.0,170.64,193.0,0.0,0.0,0.0,0.0
1776450612247694857,33226,0.0,0.9,0.072,0.5,0.06,0.04,0.06,0.63,5.31,0.01,-0.02,-0.32,-0.19,0.06,0.0,166.36,197.0,0.0,0.0,0.0,0.0
1776450612350103269,33326,0.0,1.0,0.0,1.5,-0.1,-0.14,0.06,0.63,5.31,0.04,-0.01,-0.33,0.06,-0.12,0.12,166.36,197.0,0.0,0.0,0.0,0.0
1776450612448362864,33427,0.1,0.0,0.084,0.3,0.06,-0.02,0.06,0.63,5.31,0.02,-0.02,-0.31,0.12,-0.0,-0.06,166.36,194.0,0.0,0.0,0.0,0.0
1776450612550747368,33526,0.0,0.3,0.0,1.0,0.0,-0.18,0.06,0.63,5.31,0.02,-0.01,-0.32,0.12,-0.19,0.0,166.36,196.0,0.0,0.0,0.0,0.0
1776450612649103407,33626,0.0,0.6,0.072,0.4,-0.02,-0.02,0.06,0.63,5.31,0.03,-0.0,-0.33,-0.0,-0.06,-0.06,166.36,196.0,0.0,0.0,0.0,0.0
1776450612747395057,33726,0.0,0.9,0.072,0.3,0.1,-0.27,0.06,0.63,5.31,0.02,-0.01,-0.34,-0.12,-0.12,-0.06,166.36,192.0,0.0,0.0,0.0,0.0
1776450612849785135,33825,0.0,0.7,0.0,1.4,-0.12,-0.12,0.06,0.63,5.31,0.03,-0.0,-0.32,-0.06,0.12,0.0,166.36,191.0,0.0,0.0,0.0,0.0
1776450612948084471,33926,0.104,0.2,0.0,1.5,-0.06,-0.02,0.06,0.63,5.31,0.03,-0.01,-0.32,-0.12,-0.0,0.0,166.36,191.0,0.0,0.0,0.0,0.0
1776450613050474179,34026,0.0,1.4,0.0,1.2,0.06,-0.12,0.06,0.63,5.31,0.05,-0.0,-0.32,-0.06,0.25,0.12,170.64,202.0,0.0,0.0,0.0,0.0
1776450613148774255,34126,0.108,0.7,0.0,1.5,-0.02,-0.04,0.06,0.63,5.31,0.02,-0.01,-0.34,0.12,-0.06,0.0,166.36,202.0,0.0,0.0,0.0,0.0
1776450613251198722,34226,0.104,1.1,0.08,0.3,-0.02,-0.14,0.06,0.63,5.31,0.01,-0.0,-0.32,-0.06,0.06,0.06,166.36,194.0,0.0,0.0,0.0,0.0
1776450613349481761,34327,0.0,0.1,0.0,1.1,0.06,-0.14,0.06,0.63,5.31,0.03,-0.0,-0.32,-0.0,0.06,-0.06,166.36,197.0,0.0,0.0,0.0,0.0
1776450613447700208,34426,0.104,0.1,0.0,1.1,-0.04,-0.04,0.06,0.63,5.31,0.03,-0.0,-0.33,-0.19,-0.06,0.06,166.53,197.0,0.0,0.0,0.0,0.0
1776450613550141934,34526,0.0,0.8,0.084,0.4,-0.02,-0.14,0.06,0.63,5.31,0.03,-0.01,-0.32,-0.0,0.06,-0.06,166.36,194.0,0.0,0.0,0.0,0.0
1776450613648479325,34626,0.0,1.4,0.08,0.3,0.04,-0.08,0.06,0.63,5.31,0.03,-0.02,-0.33,-0.0,-0.12,0.06,166.36,202.0,0.0,0.0,0.0,0.0
1776450613750875385,34725,0.0,1.2,0.0,0.3,0.1,-0.04,0.06,0.63,5.31,0.03,-0.0,-0.34,0.12,-0.12,-0.06,167.38,202.0,0.0,0.0,0.0,0.0
1776450613849174332,34826,0.0,0.4,0.0,1.5,-0.14,-0.12,0.06,0.63,5.31,0.05,-0.0,-0.31,-0.06,-0.12,-0.06,166.53,191.0,0.0,0.0,0.0,0.0
1776450613951575076,34926,0.1,0.2,0.072,0.7,-0.02,0.0,0.06,0.63,5.31,0.03,-0.0,-0.33,-0.06,0.12,0.12,167.38,181.0,0.0,0.0,0.0,0.0
1776450614049862208,35026,0.0,1.3,0.08,0.3,0.14,-0.04,0.06,0.63,5.31,0.02,-0.02,-0.31,-0.0,-0.0,-0.06,166.36,181.0,0.0,0.0,0.0,0.0
1776450614152271360,35126,0.0,1.3,0.0,1.1,0.0,0.02,0.06,0.63,5.31,0.03,-0.02,-0.31,0.06,-0.25,0.0,166.53,195.0,0.0,0.0,0.0,0.0
1776450614250565844,35226,0.104,0.9,0.072,0.2,-0.06,-0.06,0.06,0.63,5.31,0.04,-0.0,-0.35,-0.0,-0.06,0.06,166.53,187.0,0.0,0.0,0.0,0.0
1776450614348872902,35325,0.0,0.7,0.076,0.3,-0.1,-0.08,0.06,0.63,5.31,0.02,-0.0,-0.32,-0.12,-0.06,0.12,166.36,187.0,0.0,0.0,0.0,0.0
1776450614451230554,35425,0.0,1.1,0.08,0.6,0.02,0.0,0.06,0.63,5.31,0.03,-0.0,-0.32,0.06,-0.0,0.06,166.36,196.0,0.0,0.0,0.0,0.0
1776450614549530723,35525,0.0,-0.1,0.0,0.3,-0.04,-0.06,0.06,0.63,5.31,0.05,-0.01,-0.32,-0.0,-0.0,-0.06,170.47,196.0,0.0,0.0,0.0,0.0
1776450614647865744,35624,0.092,0.1,0.0,0.9,-0.08,0.0,0.06,0.63,5.31,0.03,-0.0,-0.32,-0.12,-0.06,-0.06,166.36,205.0,0.0,0.0,0.0,0.0
1776450614750236396,35724,0.0,1.1,0.0,1.5,-0.02,-0.1,0.06,0.63,5.31,0.03,-0.01,-0.33,-0.0,-0.06,0.0,166.36,191.0,0.0,0.0,0.0,0.0
1776450614848578046,35825,0.1,0.4,0.084,0.3,-0.1,-0.2,0.06,0.63,5.31,0.02,-0.0,-0.33,-0.0,0.06,0.0,166.36,191.0,0.0,0.0,0.0,0.0
1776450614956911478,35924,0.0,0.1,0.0,1.3,0.1,-0.12,0.06,0.63,5.31,0.03,-0.0,-0.32,-0.19,0.12,0.0,166.36,200.0,0.0,0.0,0.0,0.0
1776450615049267774,36024,0.0,0.9,0.076,0.3,0.08,-0.14,0.06,0.63,5.31,0.0,-0.01,-0.32,-0.0,0.06,0.06,166.36,186.0,0.0,0.0,0.0,0.0
1776450615147563962,36124,0.0,0.0,0.0,1.4,-0.16,-0.21,0.06,0.63,5.31,0.03,-0.01,-0.33,-0.12,-0.12,0.0,166.36,186.0,0.0,0.0,0.0,0.0
1776450615249962392,36224,0.104,0.3,0.076,0.3,0.02,-0.04,0.06,0.63,5.31,0.02,-0.01,-0.32,-0.0,-0.0,0.06,166.36,193.0,0.0,0.0,0.0,0.0
1776450615348242635,36325,0.0,0.8,0.076,0.5,-0.06,-0.16,0.06,0.63,5.31,0.03,-0.01,-0.35,-0.12,-0.0,-0.06,166.36,194.0,0.0,0.0,0.0,0.0
1776450615450626176,36424,0.0,0.7,0.08,0.5,-0.12,-0.16,0.06,0.63,5.31,0.04,-0.01,-0.32,-0.0,-0.12,-0.06,166.53,194.0,0.0,0.0,0.0,0.0
1776450615548915993,36525,0.0,0.9,0.0,1.4,0.08,-0.18,0.06,0.63,5.31,0.03,-0.0,-0.33,-0.06,-0.06,0.0,166.36,196.0,0.0,0.0,0.0,0.0
1776450615651395849,36625,0.1,0.3,0.0,1.6,0.06,0.08,0.06,0.63,5.31,0.01,-0.0,-0.32,0.06,-0.12,-0.06,166.53,196.0,0.0,0.0,0.0,0.0
1776450615749654906,36725,0.0,1.4,0.08,0.1,-0.12,-0.06,0.06,0.63,5.31,0.03,-0.0,-0.32,-0.12,0.25,0.06,166.36,194.0,0.0,0.0,0.0,0.0
1776450615852052429,36826,0.0,1.2,0.088,0.3,0.02,-0.12,0.06,0.63,5.31,0.02,-0.0,-0.33,-0.06,-0.0,0.06,166.36,194.0,0.0,0.0,0.0,0.0
1776450615960464268,36927,0.0,1.2,0.0,1.3,0.14,0.02,0.06,0.63,5.31,0.04,-0.0,-0.34,-0.0,-0.0,0.06,166.36,194.0,0.0,0.0,0.0,0.0
1776450616052747083,37027,0.0,0.7,0.072,0.5,0.1,0.0,0.06,0.63,5.31,0.01,-0.0,-0.33,0.06,-0.06,0.06,166.36,191.0,0.0,0.0,0.0,0.0
1776450616151045567,37127,0.0,0.6,0.08,0.5,0.02,-0.04,0.06,0.63,5.31,0.02,-0.0,-0.34,-0.12,0.06,0.12,166.36,199.0,0.0,0.0,0.0,0.0
1776450616253441237,37227,0.0,0.8,0.0,1.6,0.1,0.1,0.06,0.63,5.31,0.03,-0.0,-0.31,0.12,-0.19,-0.06,166.36,199.0,0.0,0.0,0.0,0.0
1776450616351770703,37326,0.1,0.2,0.0,1.5,0.12,-0.14,0.06,0.63,5.31,0.04,-0.01,-0.32,0.06,-0.06,-0.06,166.53,189.0,0.0,0.0,0.0,0.0
1776450616449994631,37426,0.0,1.2,0.084,0.3,-0.12,-0.08,0.06,0.63,5.31,0.03,-0.01,-0.31,-0.0,-0.12,-0.06,166.53,193.0,0.0,0.0,0.0,0.0
1776450616552429857,37526,0.0,1.4,0.08,0.5,-0.02,0.0,0.06,0.63,5.31,0.02,-0.0,-0.31,0.06,-0.12,0.06,166.36,193.0,0.0,0.0,0.0,0.0
1776450616650739174,37625,0.0,1.3,0.076,0.3,0.06,-0.12,0.06,0.63,5.31,0.05,-0.01,-0.33,-0.0,-0.25,0.0,166.36,205.0,0.0,0.0,0.0,0.0
1776450616753140048,37726,0.096,0.2,0.0,1.2,-0.06,-0.08,0.06,0.63,5.31,0.01,-0.03,-0.32,-0.06,0.06,0.12,165.33,190.0,0.0,0.0,0.0,0.0
1776450616851488921,37826,0.104,0.1,0.0,1.1,-0.04,-0.08,0.06,0.63,5.31,0.04,-0.02,-0.34,-0.0,0.19,0.0,167.56,190.0,0.0,0.0,0.0,0.0
1776450616953835036,37926,0.096,0.3,0.0,1.1,0.1,-0.08,0.06,0.63,5.31,0.02,-0.0,-0.33,0.06,-0.19,0.06,166.36,194.0,0.0,0.0,0.0,0.0
1776450617052171094,38026,0.1,0.1,0.0,1.1,0.06,-0.08,0.06,0.63,5.31,0.02,-0.01,-0.32,-0.0,-0.12,0.06,166.53,194.0,0.0,0.0,0.0,0.0
1776450617150429559,38126,0.0,0.8,0.08,0.3,-0.02,-0.06,0.06,0.63,5.31,0.02,-0.01,-0.34,-0.06,-0.0,-0.06,170.47,189.0,0.0,0.0,0.0,0.0
1776450617258768454,38225,0.0,0.8,0.0,1.4,0.1,0.08,0.06,0.63,5.31,0.0,-0.0,-0.32,0.06,-0.0,0.06,170.64,196.0,0.0,0.0,0.0,0.0
1776450617351140899,38325,0.0,0.3,0.0,1.3,-0.02,-0.12,0.06,0.63,5.31,0.03,-0.01,-0.37,0.06,-0.0,0.0,166.36,196.0,0.0,0.0,0.0,0.0
1776450617449401993,38425,0.1,0.2,0.0,0.9,0.04,-0.12,0.06,0.63,5.31,0.02,-0.0,-0.35,-0.12,0.25,0.06,166.53,193.0,0.0,0.0,0.0,0.0
1776450617551794775,38524,0.0,0.9,0.08,0.2,-0.1,-0.18,0.06,0.63,5.31,0.01,-0.01,-0.32,0.06,0.19,-0.06,166.36,200.0,0.0,0.0,0.0,0.0
1776450617650083111,38625,0.0,1.0,0.072,0.3,-0.06,0.12,0.06,0.63,5.31,0.03,-0.02,-0.33,0.12,-0.12,0.06,166.36,200.0,0.0,0.0,0.0,0.0
1776450617752534744,38726,0.0,0.7,0.072,0.3,-0.06,-0.04,0.06,0.63,5.31,0.03,-0.01,-0.33,0.06,-0.19,-0.06,170.64,185.0,0.0,0.0,0.0,0.0
1776450617850836395,38825,0.0,0.9,0.076,0.5,0.1,-0.02,0.06,0.63,5.31,0.04,-0.02,-0.34,0.12,-0.12,-0.06,166.36,185.0,0.0,0.0,0.0,0.0
1776450617953237176,38925,0.1,0.1,0.0,1.5,0.0,-0.1,0.06,0.63,5.31,0.04,-0.01,-0.32,-0.06,-0.0,-0.06,166.36,188.0,0.0,0.0,0.0,0.0
1776450618051527197,39026,0.096,1.3,0.0,1.2,0.1,-0.06,0.06,0.63,5.31,0.02,-0.0,-0.35,-0.0,-0.19,0.06,170.47,204.0,0.0,0.0,0.0,0.0
1776450618153940534,39126,0.0,0.1,0.0,1.5,-0.16,-0.12,0.06,0.63,5.31,0.04,-0.01,-0.35,-0.12,0.06,0.06,170.47,204.0,0.0,0.0,0.0,0.0
1776450618252226166,39226,0.1,0.2,0.0,1.4,-0.12,-0.1,0.06,0.63,5.31,0.03,-0.0,-0.38,0.19,0.12,0.06,166.36,195.0,0.0,0.0,0.0,0.0
1776450618354635874,39326,0.0,1.5,0.088,0.3,0.14,-0.1,0.06,0.63,5.31,0.02,-0.0,-0.33,0.12,0.06,-0.06,166.36,186.0,0.0,0.0,0.0,0.0
1776450618452904765,39427,0.0,1.4,0.0,1.0,-0.06,0.04,0.06,0.63,5.31,0.03,-0.01,-0.34,0.06,0.06,0.06,166.36,186.0,0.0,0.0,0.0,0.0
1776450618592221450,39527,0.0,0.4,0.0,1.6,0.08,-0.06,0.06,0.63,5.31,0.03,-0.02,-0.33,0.06,-0.12,0.0,166.87,196.0,0.0,0.0,0.0,0.0
1776450618653633549,39627,0.104,0.1,0.0,0.6,-0.1,-0.12,0.06,0.63,5.31,0.01,-0.0,-0.33,-0.06,0.06,0.06,166.36,191.0,0.0,0.0,0.0,0.0
1776450618756022979,39727,0.0,1.3,0.0,1.1,0.08,0.0,0.06,0.63,5.31,0.02,-0.0,-0.34,-0.06,0.06,0.06,167.04,191.0,0.0,0.0,0.0,0.0
1776450618854308555,39827,0.104,0.3,0.0,0.3,0.12,-0.1,0.06,0.63,5.31,0.0,-0.01,-0.33,-0.0,0.06,0.06,167.04,188.0,0.0,0.0,0.0,0.0
1776450618952613965,39926,0.0,0.7,0.0,1.3,0.06,0.08,0.06,0.63,5.31,0.02,-0.03,-0.32,0.06,-0.06,-0.06,170.64,190.0,0.0,0.0,0.0,0.0
1776450619055008857,40027,0.1,0.0,0.0,1.2,-0.02,-0.08,0.06,0.63,5.31,0.01,-0.02,-0.33,-0.0,-0.12,0.06,166.53,190.0,0.0,0.0,0.0,0.0
1776450619153309415,40127,0.0,1.1,0.0,0.3,-0.04,-0.1,0.06,0.63,5.31,0.03,-0.03,-0.33,0.06,-0.0,0.0,166.36,192.0,0.0,0.0,0.0,0.0
1776450619255721271,40227,0.0,0.0,0.0,1.6,-0.04,-0.12,0.06,0.63,5.31,0.03,-0.0,-0.36,0.12,-0.12,0.06,166.36,192.0,0.0,0.0,0.0,0.0
1776450619354009588,40327,0.0,0.1,0.0,0.5,-0.04,-0.1,0.06,0.63,5.31,0.02,-0.01,-0.37,0.12,-0.06,0.0,166.53,195.0,0.0,0.0,0.0,0.0
1776450619456357129,40427,0.0,0.7,0.072,0.3,0.06,-0.1,0.06,0.63,5.31,0.02,-0.0,-0.35,-0.06,-0.06,-0.06,167.04,194.0,0.0,0.0,0.0,0.0
1776450619554666446,40526,0.0,0.9,0.0,1.4,0.1,-0.04,0.06,0.63,5.31,0.05,-0.0,-0.34,-0.0,-0.0,-0.06,170.64,194.0,0.0,0.0,0.0,0.0
1776450619653007763,40626,0.0,1.2,0.0,0.9,0.08,-0.12,0.06,0.63,5.31,0.01,-0.03,-0.33,-0.06,-0.06,0.0,166.36,195.0,0.0,0.0,0.0,0.0
1776450619755409748,40726,0.0,0.4,0.0,1.5,-0.02,0.0,0.06,0.63,5.31,0.03,-0.01,-0.38,-0.19,-0.12,-0.06,166.36,190.0,0.0,0.0,0.0,0.0
1776450620148228461,40825,0.1,0.1,0.0,1.6,-0.02,-0.02,0.06,0.63,5.31,0.07,-0.0,-0.35,-0.0,-0.0,0.0,170.47,190.0,0.0,0.0,0.0,0.0
1776450620160967188,40925,0.1,1.3,0.0,1.3,0.04,-0.14,0.06,0.63,5.31,0.01,-0.02,-0.37,-0.19,-0.0,0.0,166.36,188.0,0.0,0.0,0.0,0.0
1776450620173578101,41025,0.0,0.2,0.076,0.4,-0.06,0.02,0.06,0.63,5.31,0.02,-0.0,-0.36,-0.06,-0.12,-0.06,167.38,188.0,0.0,0.0,0.0,0.0
1776450620185816642,41125,0.0,0.9,0.068,0.3,-0.04,-0.18,0.06,0.63,5.31,0.02,-0.0,-0.35,-0.12,0.12,0.12,166.36,188.0,0.0,0.0,0.0,0.0
1776450620255089763,41225,0.0,0.1,0.0,1.5,-0.04,-0.06,0.06,0.63,5.31,0.02,-0.0,-0.34,-0.06,0.06,0.0,166.36,190.0,0.0,0.0,0.0,0.0
1776450620353399450,41326,0.092,0.2,0.0,1.3,0.0,0.16,0.06,0.63,5.31,0.04,-0.0,-0.33,-0.0,-0.0,0.06,166.36,190.0,0.0,0.0,0.0,0.0
1776450620455757084,41425,0.0,0.3,0.0,1.3,-0.1,-0.06,0.06,0.63,5.31,0.04,-0.01,-0.34,-0.12,0.19,0.0,166.36,195.0,0.0,0.0,0.0,0.0
1776450620554082493,41526,0.0,0.7,0.08,0.5,0.02,-0.04,0.06,0.63,5.31,0.01,-0.01,-0.33,-0.0,0.19,0.0,166.36,191.0,0.0,0.0,0.0,0.0
1776450620652405292,41626,0.1,0.5,0.0,1.6,0.04,-0.1,0.06,0.63,5.31,0.01,-0.0,-0.32,0.06,0.12,0.12,166.53,191.0,0.0,0.0,0.0,0.0
1776450620754813333,41725,0.1,0.1,0.0,1.5,0.08,-0.21,0.06,0.63,5.31,0.02,-0.01,-0.35,-0.0,0.12,0.0,170.64,197.0,0.0,0.0,0.0,0.0
1776450620853100150,41825,0.0,1.4,0.076,0.2,0.1,-0.16,0.06,0.63,5.31,0.03,-0.0,-0.34,-0.06,-0.0,0.0,170.47,184.0,0.0,0.0,0.0,0.0
1776450620961453749,41925,0.0,0.3,0.0,1.2,0.04,0.0,0.06,0.63,5.31,0.05,-0.0,-0.36,0.12,0.06,-0.06,170.47,184.0,0.0,0.0,0.0,0.0
1776450621053802174,42024,0.1,0.2,0.0,1.3,0.12,-0.18,0.06,0.63,5.31,0.02,-0.0,-0.34,-0.12,-0.0,0.0,166.36,195.0,0.0,0.0,0.0,0.0
1776450621156205364,42125,0.0,1.0,0.076,0.1,0.02,-0.14,0.06,0.63,5.31,0.04,-0.0,-0.35,-0.0,-0.06,0.06,166.36,199.0,0.0,0.0,0.0,0.0
1776450621254494662,42225,0.0,0.7,0.076,0.1,-0.04,-0.12,0.06,0.63,5.31,0.01,-0.01,-0.34,-0.0,-0.06,0.06,166.36,199.0,0.0,0.0,0.0,0.0
1776450621352798664,42324,0.0,0.1,0.0,1.5,0.0,-0.14,0.06,0.63,5.31,0.02,-0.0,-0.34,-0.0,-0.06,0.06,166.36,190.0,0.0,0.0,0.0,0.0
1776450621455161205,42424,0.076,0.3,0.0,1.2,0.06,-0.1,0.06,0.63,5.31,0.04,-0.0,-0.34,0.06,0.06,0.0,167.38,190.0,0.0,0.0,0.0,0.0
1776450621553469596,42525,0.1,1.0,0.08,0.4,0.08,-0.08,0.06,0.63,5.31,0.01,-0.01,-0.34,0.06,-0.0,0.12,166.36,190.0,0.0,0.0,0.0,0.0
1776450621655924970,42625,0.0,0.1,0.076,0.3,0.04,-0.12,0.06,0.63,5.31,0.01,-0.02,-0.33,-0.0,-0.0,-0.06,166.36,196.0,0.0,0.0,0.0,0.0
1776450621754193491,42726,0.0,1.6,0.0,1.3,0.0,-0.04,0.06,0.63,5.31,0.03,-0.02,-0.32,0.06,0.06,0.0,166.36,196.0,0.0,0.0,0.0,0.0
1776450621856568940,42826,0.104,0.6,0.0,0.0,0.06,-0.08,0.06,0.63,5.31,0.02,-0.01,-0.34,-0.0,0.19,-0.06,166.36,195.0,0.0,0.0,0.0,0.0
1776450621954901090,42926,0.0,0.8,0.0,1.5,-0.08,-0.1,0.06,0.63,5.31,0.03,-0.01,-0.3,-0.12,-0.12,0.0,166.53,183.0,0.0,0.0,0.0,0.0
1776450622057297797,43026,0.0,1.2,0.08,0.3,-0.08,-0.21,0.06,0.63,5.31,0.02,-0.01,-0.32,0.06,-0.12,0.0,166.36,183.0,0.0,0.0,0.0,0.0
1776450622155573948,43126,0.0,0.4,0.0,1.1,0.16,-0.04,0.06,0.63,5.31,0.01,-0.0,-0.34,-0.0,-0.06,0.0,167.56,195.0,0.0,0.0,0.0,0.0
1776450622257975655,43227,0.0,0.9,0.076,0.1,0.06,0.02,0.06,0.63,5.31,0.05,-0.01,-0.35,0.06,-0.06,0.0,166.53,195.0,0.0,0.0,0.0,0.0
1776450622356291713,43328,0.0,0.8,0.084,0.2,-0.02,-0.25,0.06,0.63,5.31,0.04,-0.03,-0.33,-0.0,-0.06,0.06,170.47,195.0,0.0,0.0,0.0,0.0
1776450622454517123,43427,0.0,0.2,0.076,0.2,0.04,-0.04,0.06,0.63,5.31,0.01,-0.02,-0.32,-0.0,-0.06,0.0,166.36,196.0,0.0,0.0,0.0,0.0
1776450622556954256,43527,0.0,0.0,0.072,0.2,-0.02,0.02,0.06,0.63,5.31,0.02,-0.0,-0.33,0.06,0.06,0.06,166.36,196.0,0.0,0.0,0.0,0.0
1776450622655232184,43627,0.0,0.1,0.0,1.4,-0.08,-0.14,0.06,0.63,5.31,0.04,-0.03,-0.34,0.06,0.06,-0.06,166.53,191.0,0.0,0.0,0.0,0.0
1776450622757669633,43727,0.1,0.3,0.0,1.6,0.1,-0.08,0.06,0.63,5.31,0.03,-0.0,-0.33,-0.0,-0.06,-0.06,166.36,196.0,0.0,0.0,0.0,0.0
1776450622855956876,43827,0.1,0.5,0.068,0.4,-0.04,-0.12,0.06,0.63,5.31,0.01,-0.02,-0.33,-0.0,0.06,0.06,166.36,196.0,0.0,0.0,0.0,0.0
1776450622958371639,43928,0.0,1.6,0.076,0.6,-0.1,-0.04,0.06,0.63,5.31,0.03,-0.02,-0.33,0.06,-0.0,0.06,170.47,190.0,0.0,0.0,0.0,0.0
1776450623056659530,44028,0.0,1.4,0.072,0.2,0.02,0.02,0.06,0.63,5.31,0.05,-0.02,-0.32,-0.06,-0.0,-0.06,166.36,187.0,0.0,0.0,0.0,0.0
1776450623159068441,44128,0.0,1.3,0.076,0.2,0.0,0.0,0.06,0.63,5.31,0.04,-0.0,-0.32,-0.06,0.06,0.0,166.36,187.0,0.0,0.0,0.0,0.0
1776450623257421795,44228,0.0,1.3,0.084,0.3,0.02,-0.18,0.06,0.63,5.31,0.03,-0.01,-0.32,0.06,0.06,0.06,166.36,199.0,0.0,0.0,0.0,0.0
1776450623359772058,44328,0.0,1.0,0.0,1.1,0.16,-0.16,0.06,0.63,5.31,0.04,-0.0,-0.32,-0.0,-0.12,0.06,167.38,198.0,0.0,0.0,0.0,0.0
1776450623457971653,44429,0.1,0.3,0.0,1.5,0.0,-0.04,0.06,0.63,5.31,0.01,-0.01,-0.34,0.06,0.12,0.06,166.36,198.0,0.0,0.0,0.0,0.0
1776450623560436379,44529,0.104,0.1,0.0,0.4,0.0,-0.14,0.06,0.63,5.31,0.02,0.01,-0.32,0.12,-0.0,-0.06,166.36,195.0,0.0,0.0,0.0,0.0
1776450623658757400,44628,0.0,0.3,0.068,0.3,-0.08,-0.18,0.06,0.63,5.31,0.02,-0.02,-0.34,-0.12,0.12,0.0,166.36,195.0,0.0,0.0,0.0,0.0
1776450623767120906,44728,0.0,0.8,0.072,0.6,-0.18,-0.02,0.06,0.63,5.31,0.03,-0.0,-0.33,-0.12,-0.06,0.0,166.36,195.0,0.0,0.0,0.0,0.0
1776450623859507813,44828,0.0,0.9,0.076,0.3,-0.2,-0.1,0.06,0.63,5.31,0.03,-0.0,-0.33,-0.06,-0.0,0.0,166.53,193.0,0.0,0.0,0.0,0.0
1776450623967812097,44929,0.0,-0.1,0.092,0.3,-0.06,-0.14,0.06,0.63,5.31,0.04,-0.01,-0.32,-0.12,-0.06,-0.06,166.36,193.0,0.0,0.0,0.0,0.0
1776450624060177208,45029,0.0,1.3,0.0,0.9,0.0,-0.25,0.06,0.63,5.31,0.04,-0.0,-0.33,-0.12,-0.06,0.0,166.36,185.0,0.0,0.0,0.0,0.0
1776450624352207825,45129,0.1,0.0,0.0,1.0,0.0,-0.08,0.06,0.63,5.31,0.02,-0.01,-0.33,0.06,0.31,0.12,166.36,195.0,0.0,0.0,0.0,0.0
1776450624359201791,45229,0.0,0.7,0.088,0.9,0.04,0.0,0.06,0.63,5.31,0.03,-0.01,-0.33,0.06,-0.0,0.06,166.36,195.0,0.0,0.0,0.0,0.0
1776450624367497350,45329,0.108,0.1,0.0,0.3,-0.14,-0.02,0.06,0.63,5.31,0.02,-0.02,-0.34,-0.06,0.06,0.0,166.36,200.0,0.0,0.0,0.0,0.0
1776450624457420015,45428,0.0,1.3,0.076,0.0,0.02,0.04,0.06,0.63,5.31,0.04,-0.01,-0.33,0.12,0.12,0.06,166.36,200.0,0.0,0.0,0.0,0.0
1776450624559827241,45529,0.0,1.3,0.068,0.3,0.06,-0.02,0.06,0.63,5.31,0.02,-0.02,-0.31,-0.0,-0.06,0.0,166.36,200.0,0.0,0.0,0.0,0.0
1776450624668228581,45629,0.0,0.6,0.072,0.5,-0.1,0.0,0.06,0.63,5.31,0.01,-0.0,-0.33,-0.0,0.12,0.06,167.56,193.0,0.0,0.0,0.0,0.0
1776450624760547192,45729,0.0,1.2,0.0,1.3,-0.06,0.08,0.06,0.63,5.31,0.02,-0.0,-0.32,-0.0,0.06,0.06,166.36,193.0,0.0,0.0,0.0,0.0
1776450624858816083,45829,0.0,0.8,0.08,0.4,0.18,-0.06,0.06,0.63,5.31,0.03,-0.0,-0.33,-0.12,-0.0,-0.12,166.36,186.0,0.0,0.0,0.0,0.0
1776450624961235716,45929,0.0,0.7,0.076,0.5,0.02,-0.16,0.06,0.63,5.31,0.04,-0.0,-0.32,0.06,0.12,0.06,166.36,192.0,0.0,0.0,0.0,0.0
1776450625059545978,46028,0.104,0.3,0.0,1.3,0.02,-0.02,0.06,0.63,5.31,0.04,-0.0,-0.32,-0.06,0.12,0.06,166.36,192.0,0.0,0.0,0.0,0.0
1776450625157821128,46128,0.0,1.5,0.076,0.4,0.1,-0.12,0.06,0.63,5.31,0.03,-0.03,-0.32,0.19,-0.12,0.0,166.36,193.0,0.0,0.0,0.0,0.0
1776450625260242947,46228,0.0,0.1,0.0,0.2,0.08,-0.21,0.06,0.63,5.31,0.04,-0.0,-0.32,-0.0,-0.06,0.06,166.36,188.0,0.0,0.0,0.0,0.0
1776450625358528578,46327,0.0,0.8,0.08,0.3,0.06,-0.1,0.06,0.63,5.31,0.02,-0.01,-0.32,-0.0,0.06,0.0,167.38,188.0,0.0,0.0,0.0,0.0
1776450625460907527,46428,0.0,1.0,0.08,0.5,-0.12,-0.04,0.06,0.63,5.31,0.02,-0.01,-0.32,-0.06,0.12,0.12,166.36,192.0,0.0,0.0,0.0,0.0
1776450625559228733,46529,0.0,0.6,0.08,0.3,0.2,0.1,0.06,0.63,5.31,0.04,-0.01,-0.32,-0.0,-0.06,0.0,166.36,193.0,0.0,0.0,0.0,0.0
1776450625657530142,46628,0.0,1.2,0.0,1.0,-0.02,0.02,0.06,0.63,5.31,0.03,-0.0,-0.33,-0.06,0.06,0.12,166.53,193.0,0.0,0.0,0.0,0.0
1776450625759933257,46728,0.108,0.2,0.0,1.0,0.0,0.0,0.06,0.63,5.31,0.0,-0.02,-0.32,-0.0,0.06,-0.06,166.36,189.0,0.0,0.0,0.0,0.0
1776450625858239537,46828,0.0,0.5,0.08,0.7,0.02,-0.06,0.06,0.63,5.31,0.01,-0.03,-0.33,0.12,0.12,0.12,166.36,194.0,0.0,0.0,0.0,0.0
1776450625966606506,46927,0.0,0.9,0.0,1.4,-0.12,-0.12,0.06,0.63,5.31,0.04,-0.0,-0.32,0.12,-0.06,-0.06,166.36,194.0,0.0,0.0,0.0,0.0
1776450626058939080,47027,0.104,0.1,0.0,1.5,0.0,0.02,0.06,0.63,5.31,0.05,-0.0,-0.32,0.12,-0.0,0.0,166.36,198.0,0.0,0.0,0.0,0.0
1776450626157240471,47127,0.104,0.3,0.0,1.6,0.04,-0.06,0.06,0.63,5.31,0.02,-0.01,-0.35,-0.06,-0.0,0.12,166.36,198.0,0.0,0.0,0.0,0.0
1776450626259631420,47226,0.1,0.3,0.0,1.4,-0.06,-0.1,0.06,0.63,5.31,0.03,-0.02,-0.33,-0.0,-0.0,0.0,166.53,195.0,0.0,0.0,0.0,0.0
1776450626357941996,47326,0.1,0.1,0.0,1.6,0.04,-0.04,0.06,0.63,5.31,0.04,-0.0,-0.32,0.12,-0.0,0.19,166.36,190.0,0.0,0.0,0.0,0.0
1776450626460297685,47427,0.1,0.2,0.0,1.4,-0.02,-0.12,0.06,0.63,5.31,0.05,-0.0,-0.32,-0.0,-0.0,0.0,166.36,190.0,0.0,0.0,0.0,0.0
1776450626558594724,47526,0.096,0.1,0.084,0.3,0.06,-0.08,0.06,0.63,5.31,0.02,-0.01,-0.32,-0.0,-0.0,0.06,166.36,189.0,0.0,0.0,0.0,0.0
1776450626661020932,47627,0.104,0.1,0.0,1.2,0.0,-0.02,0.06,0.63,5.31,0.0,-0.0,-0.35,0.06,0.06,0.0,166.53,193.0,0.0,0.0,0.0,0.0
1776450626759318286,47728,0.104,0.3,0.0,1.2,0.04,-0.14,0.06,0.63,5.31,0.01,-0.0,-0.3,0.06,-0.12,-0.06,166.36,193.0,0.0,0.0,0.0,0.0
1776450626861731141,47827,0.0,0.9,0.0,1.3,0.0,-0.06,0.06,0.63,5.31,0.04,-0.0,-0.32,-0.0,-0.0,0.0,166.36,186.0,0.0,0.0,0.0,0.0
1776450626960028755,47928,0.0,0.7,0.0,1.3,0.08,-0.1,0.06,0.63,5.31,0.01,-0.01,-0.33,-0.0,0.06,0.0,166.36,186.0,0.0,0.0,0.0,0.0
1776450627058277257,48028,0.1,-0.1,0.0,1.2,0.0,-0.04,0.06,0.63,5.31,0.06,-0.02,-0.32,0.12,-0.19,0.0,166.36,191.0,0.0,0.0,0.0,0.0
1776450627160721316,48128,0.1,0.9,0.076,0.3,-0.02,-0.06,0.06,0.63,5.31,0.04,-0.0,-0.34,-0.0,0.12,0.06,166.36,200.0,0.0,0.0,0.0,0.0
1776450627263133950,48229,0.0,0.6,0.072,0.3,-0.02,-0.08,0.06,0.63,5.31,0.03,-0.0,-0.32,0.06,-0.0,-0.06,167.56,200.0,0.0,0.0,0.0,0.0
1776450627361422785,48330,0.0,0.9,0.072,1.5,0.0,-0.06,0.06,0.63,5.31,0.01,-0.01,-0.32,0.25,0.06,0.0,166.36,189.0,0.0,0.0,0.0,0.0
1776450627463773493,48430,0.108,0.1,0.0,1.4,-0.02,0.06,0.06,0.63,5.31,0.01,-0.03,-0.32,0.12,-0.12,0.06,166.36,190.0,0.0,0.0,0.0,0.0
1776450627562085236,48530,0.0,1.3,0.096,0.1,0.08,-0.23,0.06,0.63,5.31,0.03,-0.01,-0.32,0.06,-0.06,0.0,166.36,190.0,0.0,0.0,0.0,0.0
1776450627664518573,48630,0.0,0.7,0.068,0.3,0.02,-0.18,0.06,0.63,5.31,0.04,-0.01,-0.35,-0.12,0.06,0.0,166.53,195.0,0.0,0.0,0.0,0.0
1776450627762825668,48730,0.0,0.3,0.0,1.4,0.0,-0.02,0.06,0.63,5.31,0.01,-0.01,-0.34,-0.06,-0.0,0.06,166.36,199.0,0.0,0.0,0.0,0.0
1776450627865214060,48830,0.1,0.1,0.0,1.5,0.0,0.02,0.06,0.63,5.31,0.03,-0.01,-0.34,-0.06,0.19,0.06,166.36,199.0,0.0,0.0,0.0,0.0
1776450627963509211,48930,0.104,0.3,0.0,1.5,-0.02,-0.02,0.06,0.63,5.31,0.03,-0.0,-0.32,0.19,0.06,0.06,167.56,193.0,0.0,0.0,0.0,0.0
1776450628065892640,49031,0.0,1.2,0.08,0.2,-0.02,0.0,0.06,0.63,5.31,0.01,-0.01,-0.33,0.06,0.06,0.0,166.36,201.0,0.0,0.0,0.0,0.0
1776450628164218735,49131,0.0,1.4,0.084,0.2,-0.08,-0.1,0.06,0.63,5.31,0.04,-0.0,-0.32,-0.06,0.06,0.06,166.36,201.0,0.0,0.0,0.0,0.0
1776450628262502404,49230,0.0,0.0,0.0,1.0,0.1,-0.1,0.06,0.63,5.31,0.02,-0.02,-0.31,-0.06,-0.12,0.06,165.84,194.0,0.0,0.0,0.0,0.0
1776450628364926278,49331,0.0,0.7,0.084,0.3,-0.08,-0.1,0.06,0.63,5.31,0.03,-0.01,-0.32,-0.12,0.12,-0.12,165.84,194.0,0.0,0.0,0.0,0.0
1776450628463134836,49431,0.0,1.5,0.084,1.1,0.12,-0.1,0.06,0.63,5.31,0.03,-0.0,-0.32,-0.19,-0.0,0.0,165.84,184.0,0.0,0.0,0.0,0.0
1776450628565588414,49531,0.1,0.3,0.084,0.4,-0.02,-0.06,0.06,0.63,5.31,0.03,-0.0,-0.32,-0.0,-0.0,-0.06,165.84,191.0,0.0,0.0,0.0,0.0
1776450628663883990,49631,0.0,0.1,0.076,0.2,-0.16,-0.1,0.06,0.63,5.31,0.02,-0.0,-0.33,0.06,-0.19,0.0,165.84,191.0,0.0,0.0,0.0,0.0
1776450628766298846,49731,0.0,1.1,0.08,0.5,0.0,-0.08,0.06,0.63,5.31,0.03,-0.02,-0.33,0.06,-0.06,0.06,166.36,195.0,0.0,0.0,0.0,0.0
1776450628864596903,49830,0.1,0.3,0.0,1.1,0.14,0.04,0.06,0.63,5.31,0.02,-0.0,-0.33,0.12,-0.12,-0.12,165.84,193.0,0.0,0.0,0.0,0.0
1776450628962903554,49930,0.096,0.2,0.0,1.1,-0.06,0.06,0.06,0.63,5.31,0.02,-0.01,-0.33,-0.0,-0.06,-0.06,166.36,193.0,0.0,0.0,0.0,0.0
1776450629065303669,50030,0.0,0.3,0.0,1.4,0.08,-0.02,0.06,0.63,5.31,0.04,-0.0,-0.34,-0.0,0.06,0.06,165.84,200.0,0.0,0.0,0.0,0.0
1776450629163591875,50129,0.1,0.0,0.0,1.5,0.02,-0.08,0.06,0.63,5.31,0.03,-0.01,-0.32,0.12,-0.19,-0.12,169.96,188.0,0.0,0.0,0.0,0.0
1776450629266012508,50230,0.1,0.1,0.076,0.3,0.04,-0.1,0.06,0.63,5.31,0.04,-0.0,-0.32,-0.0,0.06,-0.12,166.36,188.0,0.0,0.0,0.0,0.0
1776450629364296584,50330,0.0,1.3,0.076,0.6,0.06,-0.18,0.06,0.63,5.31,0.01,-0.01,-0.32,-0.0,-0.12,-0.06,166.36,193.0,0.0,0.0,0.0,0.0
1776450629466635440,50430,0.0,1.3,0.088,0.2,0.1,-0.14,0.06,0.63,5.31,0.05,-0.0,-0.33,0.06,-0.06,0.0,166.36,193.0,0.0,0.0,0.0,0.0
1776450629564966146,50530,0.0,1.2,0.08,0.4,-0.12,-0.14,0.06,0.63,5.31,0.05,-0.0,-0.32,-0.06,0.06,0.12,166.36,195.0,0.0,0.0,0.0,0.0
1776450629663358537,50630,0.0,1.4,0.084,0.3,0.02,-0.14,0.06,0.63,5.31,0.02,-0.01,-0.33,-0.0,0.12,0.0,170.64,200.0,0.0,0.0,0.0,0.0
1776450629761560539,50729,0.0,0.5,0.0,1.0,-0.1,-0.02,0.06,0.63,5.31,0.03,-0.01,-0.32,0.12,-0.0,0.12,166.36,200.0,0.0,0.0,0.0,0.0
1776450629863983469,50829,0.0,0.1,0.0,1.6,0.18,-0.08,0.06,0.63,5.31,0.02,-0.01,-0.31,-0.12,-0.0,-0.06,166.36,189.0,0.0,0.0,0.0,0.0
1776450629962278545,50929,0.0,1.4,0.0,0.9,0.08,0.0,0.06,0.63,5.31,0.05,-0.01,-0.33,0.06,-0.0,0.06,166.36,198.0,0.0,0.0,0.0,0.0
1776450630064698086,51028,0.0,1.0,0.0,1.4,0.02,-0.08,0.06,0.63,5.31,0.02,-0.02,-0.34,-0.0,-0.06,0.06,166.36,198.0,0.0,0.0,0.0,0.0
1776450630162986995,51128,0.104,0.2,0.0,0.4,0.18,-0.08,0.06,0.63,5.31,0.02,-0.01,-0.35,0.06,0.19,0.06,166.36,195.0,0.0,0.0,0.0,0.0
1776450630261296609,51227,0.0,1.3,0.088,0.5,-0.02,-0.02,0.06,0.63,5.31,0.01,-0.0,-0.33,-0.0,-0.12,-0.12,166.36,193.0,0.0,0.0,0.0,0.0
1776450630359561703,51326,0.1,1.0,0.084,0.6,-0.02,-0.14,0.06,0.63,5.31,0.01,-0.0,-0.34,0.06,0.06,-0.06,166.36,193.0,0.0,0.0,0.0,0.0
1776450630461948466,51426,0.0,1.0,0.072,0.3,0.1,-0.02,0.06,0.63,5.31,0.04,-0.0,-0.32,-0.06,0.19,-0.06,166.36,198.0,0.0,0.0,0.0,0.0
1776450630560285043,51526,0.0,0.9,0.084,0.3,0.1,0.04,0.06,0.63,5.31,0.02,-0.0,-0.33,0.06,-0.06,0.0,166.36,198.0,0.0,0.0,0.0,0.0
1776450630658554841,51625,0.0,0.8,0.072,0.7,0.04,0.0,0.06,0.63,5.31,0.01,-0.02,-0.33,-0.19,-0.0,-0.06,166.36,199.0,0.0,0.0,0.0,0.0
1776450630760975401,51725,0.0,0.9,0.072,0.2,-0.06,-0.12,0.06,0.63,5.31,0.01,-0.01,-0.35,-0.0,-0.12,0.0,166.36,197.0,0.0,0.0,0.0,0.0
1776450630859283569,51825,0.0,1.0,0.072,0.4,-0.06,-0.12,0.06,0.63,5.31,0.03,-0.02,-0.34,-0.12,-0.0,0.06,166.36,197.0,0.0,0.0,0.0,0.0
1776450630961680147,51924,0.0,1.1,0.076,0.3,0.04,-0.12,0.06,0.63,5.31,0.01,-0.01,-0.33,-0.06,-0.12,0.0,166.36,192.0,0.0,0.0,0.0,0.0
1776450631059983835,52024,0.0,0.6,0.0,1.4,0.0,-0.08,0.06,0.63,5.31,0.02,-0.0,-0.33,-0.0,-0.12,-0.12,166.36,193.0,0.0,0.0,0.0,0.0
1776450631158268189,52124,0.0,1.3,0.08,0.2,-0.04,-0.02,0.06,0.63,5.31,0.04,-0.02,-0.34,-0.12,0.06,0.0,166.36,193.0,0.0,0.0,0.0,0.0
1776450631260672618,52224,0.0,1.2,0.088,0.0,0.08,-0.25,0.06,0.63,5.31,0.04,-0.01,-0.35,-0.12,0.12,0.06,166.36,204.0,0.0,0.0,0.0,0.0
1776450631358938361,52324,0.0,1.2,0.0,1.0,-0.06,-0.08,0.06,0.63,5.31,0.04,-0.02,-0.35,0.06,-0.0,0.0,166.36,198.0,0.0,0.0,0.0,0.0
1776450631461366958,52424,0.0,0.7,0.0,0.4,-0.1,0.0,0.06,0.63,5.31,0.04,-0.01,-0.35,-0.06,0.06,0.06,166.36,198.0,0.0,0.0,0.0,0.0
1776450631559667515,52524,0.0,1.3,0.072,0.2,-0.06,-0.14,0.06,0.63,5.31,0.04,-0.01,-0.34,-0.06,0.12,0.0,166.36,202.0,0.0,0.0,0.0,0.0
1776450631662065945,52624,0.1,0.2,0.0,1.4,0.18,-0.12,0.06,0.63,5.31,0.04,-0.0,-0.36,0.12,-0.0,0.06,166.36,202.0,0.0,0.0,0.0,0.0
1776450631760376336,52724,0.0,0.3,0.0,1.6,0.0,-0.12,0.06,0.63,5.31,0.04,-0.01,-0.36,-0.06,-0.0,0.06,166.36,192.0,0.0,0.0,0.0,0.0
1776450631868769805,52824,0.1,0.2,0.084,0.3,0.02,-0.16,0.06,0.63,5.31,0.04,-0.0,-0.35,-0.0,-0.0,0.06,166.36,199.0,0.0,0.0,0.0,0.0
1776450631961075972,52925,0.0,1.3,0.0,1.0,-0.14,-0.04,0.06,0.63,5.31,0.02,-0.01,-0.35,-0.06,-0.06,0.12,170.64,199.0,0.0,0.0,0.0,0.0
1776450632059318307,53025,0.104,0.2,0.0,1.2,0.12,-0.16,0.06,0.63,5.31,0.02,-0.01,-0.34,0.12,-0.0,0.06,170.64,193.0,0.0,0.0,0.0,0.0
1776450632161765570,53125,0.092,0.3,0.076,0.5,0.0,0.0,0.06,0.63,5.31,0.02,-0.01,-0.33,0.06,-0.19,0.0,166.36,190.0,0.0,0.0,0.0,0.0
1776450632260046702,53226,0.0,0.1,0.0,1.3,0.08,-0.16,0.06,0.63,5.31,0.06,-0.02,-0.34,0.06,-0.0,0.0,166.36,190.0,0.0,0.0,0.0,0.0
1776450632362474335,53325,0.096,-0.1,0.072,0.3,0.04,-0.06,0.06,0.63,5.31,0.05,-0.02,-0.34,0.12,0.06,0.0,166.36,187.0,0.0,0.0,0.0,0.0
1776450632460725263,53425,0.0,1.3,0.0,1.0,-0.02,-0.16,0.06,0.63,5.31,0.0,-0.02,-0.36,0.06,0.06,-0.06,166.36,184.0,0.0,0.0,0.0,0.0
1776450632569113973,53525,0.0,1.0,0.076,0.5,0.12,0.02,0.06,0.63,5.31,0.02,-0.0,-0.36,-0.0,-0.0,0.06,166.36,184.0,0.0,0.0,0.0,0.0
1776450632661470140,53624,0.0,0.1,0.0,1.5,0.04,-0.02,0.06,0.63,5.31,0.04,-0.01,-0.32,-0.12,0.12,0.0,166.36,192.0,0.0,0.0,0.0,0.0
1776450632759772198,53724,0.096,0.3,0.0,1.5,-0.02,0.04,0.06,0.63,5.31,0.03,-0.04,-0.33,-0.0,-0.06,0.06,167.38,192.0,0.0,0.0,0.0,0.0
1776450632862154609,53825,0.096,0.2,0.0,1.5,-0.02,-0.06,0.06,0.63,5.31,0.02,-0.01,-0.33,0.12,-0.06,-0.12,166.36,195.0,0.0,0.0,0.0,0.0
1776450632960467352,53924,0.0,1.2,0.0,1.1,0.02,-0.1,0.06,0.63,5.31,0.04,-0.02,-0.32,-0.06,-0.06,-0.06,166.36,190.0,0.0,0.0,0.0,0.0
1776450633062853152,54025,0.0,0.7,0.076,0.2,-0.06,-0.02,0.06,0.63,5.31,0.02,-0.01,-0.35,0.12,-0.0,0.06,166.36,190.0,0.0,0.0,0.0,0.0
1776450633161152469,54125,0.1,0.3,0.08,0.2,-0.08,-0.04,0.06,0.63,5.31,0.02,-0.0,-0.33,-0.06,-0.06,0.0,167.38,192.0,0.0,0.0,0.0,0.0
1776450633263550306,54225,0.0,1.4,0.08,0.5,0.0,0.04,0.06,0.63,5.31,0.02,-0.03,-0.34,-0.0,-0.06,0.06,166.36,197.0,0.0,0.0,0.0,0.0
1776450633361862197,54325,0.0,1.2,0.0,1.2,-0.08,0.02,0.06,0.63,5.31,0.03,-0.0,-0.36,-0.06,0.06,0.06,166.36,197.0,0.0,0.0,0.0,0.0
1776450633460090588,54425,0.096,0.1,0.0,1.1,-0.14,-0.02,0.06,0.63,5.31,0.03,-0.02,-0.38,-0.0,-0.06,0.12,166.36,193.0,0.0,0.0,0.0,0.0
1776450633562551499,54524,0.1,-0.1,0.0,1.0,0.1,-0.1,0.06,0.63,5.31,0.04,-0.0,-0.32,-0.0,-0.0,0.06,167.38,195.0,0.0,0.0,0.0,0.0
1776450633670940820,54625,0.0,0.7,0.08,0.2,-0.02,0.04,0.06,0.63,5.31,0.03,-0.02,-0.36,-0.0,0.06,-0.06,166.36,195.0,0.0,0.0,0.0,0.0
1776450633763250616,54725,0.096,0.1,0.0,1.3,0.1,-0.1,0.06,0.63,5.31,0.03,-0.01,-0.34,-0.0,0.06,-0.06,166.36,189.0,0.0,0.0,0.0,0.0
1776450633861555377,54825,0.0,0.9,0.084,1.3,-0.04,-0.04,0.06,0.63,5.31,0.01,-0.0,-0.36,0.19,-0.06,-0.12,166.36,189.0,0.0,0.0,0.0,0.0
1776450633963982307,54926,0.0,-0.1,0.0,1.5,0.06,-0.12,0.06,0.63,5.31,0.02,-0.01,-0.32,-0.06,-0.0,0.0,166.53,197.0,0.0,0.0,0.0,0.0
1776450634062244828,55026,0.1,0.2,0.072,0.3,-0.02,-0.02,0.06,0.63,5.31,0.01,-0.01,-0.32,0.06,-0.06,0.0,166.36,196.0,0.0,0.0,0.0,0.0
1776450634164646406,55126,0.0,1.3,0.0,1.2,0.04,-0.02,0.06,0.63,5.31,0.02,-0.0,-0.32,0.06,-0.0,0.06,166.36,196.0,0.0,0.0,0.0,0.0
1776450634262921056,55226,0.0,0.9,0.0,1.6,0.1,-0.14,0.06,0.63,5.31,0.02,-0.02,-0.34,0.06,-0.06,0.12,166.36,194.0,0.0,0.0,0.0,0.0
1776450634361182132,55325,0.0,1.3,0.076,0.3,0.0,-0.04,0.06,0.63,5.31,0.02,-0.0,-0.32,-0.0,0.12,0.0,166.36,207.0,0.0,0.0,0.0,0.0
1776450634463612136,55426,0.1,0.1,0.0,1.6,-0.02,-0.02,0.06,0.63,5.31,0.01,-0.01,-0.32,0.12,-0.0,-0.06,166.36,207.0,0.0,0.0,0.0,0.0
1776450634566069195,55527,0.0,1.2,0.0,1.2,0.02,-0.1,0.06,0.63,5.31,0.02,-0.0,-0.32,-0.0,-0.0,-0.06,166.36,190.0,0.0,0.0,0.0,0.0
1776450634664329197,55626,0.104,0.0,0.0,0.5,0.04,-0.08,0.06,0.63,5.31,0.02,-0.0,-0.32,0.06,-0.06,0.0,166.36,195.0,0.0,0.0,0.0,0.0
1776450634766736423,55727,0.0,-0.1,0.0,0.5,-0.02,-0.12,0.06,0.63,5.31,0.02,-0.03,-0.33,-0.0,-0.0,-0.06,166.36,195.0,0.0,0.0,0.0,0.0
1776450635332230834,55827,0.0,1.2,0.0,1.3,0.04,-0.06,0.06,0.63,5.31,0.04,-0.02,-0.33,0.12,-0.0,0.0,166.36,189.0,0.0,0.0,0.0,0.0
1776450635364708625,55927,0.0,1.0,0.072,0.6,0.02,-0.16,0.06,0.63,5.31,0.02,-0.03,-0.37,-0.06,-0.0,-0.06,166.36,195.0,0.0,0.0,0.0,0.0
1776450635368892386,56028,0.0,0.1,0.0,1.6,0.18,-0.08,0.06,0.63,5.31,0.03,-0.0,-0.34,0.12,-0.06,0.06,166.36,195.0,0.0,0.0,0.0,0.0
1776450635372964998,56128,0.0,0.4,0.0,1.2,-0.08,-0.18,0.06,0.63,5.31,0.03,-0.01,-0.29,-0.0,0.25,-0.06,166.36,192.0,0.0,0.0,0.0,0.0
1776450635377047463,56227,0.104,-0.1,0.0,1.2,0.0,-0.14,0.06,0.63,5.31,0.03,-0.01,-0.34,0.06,-0.0,-0.06,166.36,192.0,0.0,0.0,0.0,0.0
1776450635381046427,56328,0.104,0.1,0.0,1.1,-0.12,-0.23,0.06,0.63,5.31,0.01,-0.0,-0.36,-0.0,0.12,0.0,166.36,189.0,0.0,0.0,0.0,0.0
1776450635467173054,56428,0.0,0.3,0.0,1.6,0.04,-0.06,0.06,0.63,5.31,0.02,-0.0,-0.33,0.06,-0.0,0.0,166.36,197.0,0.0,0.0,0.0,0.0
1776450635565412482,56527,0.0,1.4,0.084,0.1,-0.02,-0.06,0.06,0.63,5.31,0.03,-0.01,-0.34,0.12,-0.19,0.0,166.36,197.0,0.0,0.0,0.0,0.0
1776450635667834986,56628,0.0,0.2,0.088,0.2,0.06,-0.02,0.06,0.63,5.31,0.01,-0.0,-0.32,-0.06,-0.0,0.06,166.36,199.0,0.0,0.0,0.0,0.0
1776450635766119025,56728,0.0,1.0,0.072,0.2,-0.06,-0.08,0.06,0.63,5.31,0.02,-0.02,-0.33,-0.0,-0.06,0.06,166.36,189.0,0.0,0.0,0.0,0.0
1776450635864409972,56827,0.0,0.9,0.076,0.3,0.14,-0.18,0.06,0.63,5.31,0.04,-0.0,-0.33,-0.0,0.06,-0.06,166.36,189.0,0.0,0.0,0.0,0.0
1776450635966819253,56927,0.0,0.9,0.0,1.5,0.0,-0.1,0.06,0.63,5.31,0.05,-0.0,-0.34,0.06,-0.0,0.12,166.53,195.0,0.0,0.0,0.0,0.0
1776450636065108626,57028,0.0,1.4,0.08,0.4,-0.08,-0.04,0.06,0.63,5.31,0.03,-0.02,-0.33,-0.0,-0.0,0.06,165.33,195.0,0.0,0.0,0.0,0.0
1776450636420189675,57127,0.0,1.1,0.076,0.1,0.04,0.0,0.06,0.63,5.31,0.01,-0.01,-0.35,-0.06,0.06,-0.06,166.36,195.0,0.0,0.0,0.0,0.0
1776450636466507953,57227,0.0,1.0,0.0,1.7,0.06,0.0,0.06,0.63,5.31,0.01,-0.02,-0.34,0.12,-0.0,-0.12,166.36,195.0,0.0,0.0,0.0,0.0
1776450636474847474,57328,0.104,0.3,0.0,1.6,-0.04,-0.25,0.06,0.63,5.31,0.02,-0.0,-0.33,0.06,0.12,0.0,166.36,195.0,0.0,0.0,0.0,0.0
1776450636486121479,57427,0.108,0.4,0.0,0.3,-0.08,-0.04,0.06,0.63,5.31,0.03,-0.02,-0.33,-0.0,-0.12,-0.06,166.36,194.0,0.0,0.0,0.0,0.0
1776450636568877216,57527,0.0,-0.1,0.0,1.2,-0.08,-0.06,0.06,0.63,5.31,0.01,-0.0,-0.31,0.06,0.12,-0.06,170.64,198.0,0.0,0.0,0.0,0.0
1776450636667222329,57627,0.108,-0.2,0.0,1.0,-0.08,0.04,0.06,0.63,5.31,0.03,-0.03,-0.35,-0.0,-0.0,-0.06,171.16,198.0,0.0,0.0,0.0,0.0
1776450636765444238,57728,0.048,1.0,0.072,0.5,-0.12,0.0,0.06,0.63,5.31,0.02,-0.0,-0.34,-0.0,-0.0,0.0,166.36,192.0,0.0,0.0,0.0,0.0
1776450636867909761,57828,0.0,0.5,0.0,1.5,-0.12,0.02,0.06,0.63,5.31,0.03,-0.03,-0.34,0.06,0.06,0.0,166.36,190.0,0.0,0.0,0.0,0.0
1776450636966205170,57927,0.104,0.2,0.08,0.2,0.08,-0.12,0.06,0.63,5.31,0.02,-0.0,-0.34,-0.0,-0.06,0.0,166.36,190.0,0.0,0.0,0.0,0.0
1776450637068602581,58027,0.0,0.3,0.0,1.1,-0.16,-0.02,0.06,0.63,5.31,0.01,-0.0,-0.32,0.06,-0.06,0.0,166.36,191.0,0.0,0.0,0.0,0.0
1776450637166906121,58128,0.0,0.7,0.0,1.7,0.1,-0.14,0.06,0.63,5.31,0.05,-0.02,-0.32,0.06,-0.06,0.0,170.47,208.0,0.0,0.0,0.0,0.0
1776450637269270921,58228,0.0,0.2,0.0,1.3,0.04,-0.08,0.06,0.63,5.31,0.04,-0.0,-0.32,-0.12,-0.12,0.0,170.47,208.0,0.0,0.0,0.0,0.0
1776450637367561219,58328,0.104,0.1,0.0,1.2,0.06,-0.04,0.06,0.63,5.31,0.03,-0.01,-0.34,0.06,0.12,-0.06,170.47,201.0,0.0,0.0,0.0,0.0
1776450637469994093,58429,0.104,0.0,0.0,0.6,-0.08,-0.06,0.06,0.63,5.31,0.03,-0.02,-0.32,-0.12,-0.06,0.0,171.16,201.0,0.0,0.0,0.0,0.0
1776450637568269799,58529,0.0,1.1,0.084,0.1,0.08,0.04,0.06,0.63,5.31,0.04,-0.02,-0.32,-0.0,0.19,0.06,170.47,191.0,0.0,0.0,0.0,0.0
1776450637670747469,58629,0.0,0.6,0.0,1.4,-0.06,-0.08,0.06,0.63,5.31,0.04,-0.0,-0.33,-0.06,0.06,-0.06,171.16,191.0,0.0,0.0,0.0,0.0
1776450637768997490,58730,0.0,1.4,0.088,0.6,-0.02,-0.14,0.06,0.63,5.31,0.04,-0.0,-0.32,-0.0,-0.0,-0.06,170.99,191.0,0.0,0.0,0.0,0.0
1776450637940217040,58829,0.104,0.2,0.0,1.1,-0.02,0.08,0.06,0.63,5.31,0.03,-0.0,-0.33,-0.0,0.06,0.0,170.47,195.0,0.0,0.0,0.0,0.0
1776450637969705811,58930,0.096,0.3,0.0,1.2,-0.08,0.16,0.06,0.63,5.31,0.04,-0.0,-0.32,-0.0,-0.0,0.0,166.36,195.0,0.0,0.0,0.0,0.0
1776450638072098666,59030,0.1,0.0,0.0,1.2,0.0,-0.1,0.06,0.63,5.31,0.03,-0.0,-0.32,-0.12,-0.0,0.0,167.04,195.0,0.0,0.0,0.0,0.0
1776450638170392946,59130,0.104,0.5,0.0,0.9,-0.08,-0.12,0.06,0.63,5.31,0.04,-0.02,-0.3,-0.06,-0.06,0.0,170.64,202.0,0.0,0.0,0.0,0.0
1776450638272805431,59231,0.104,0.3,0.0,1.3,-0.04,-0.1,0.06,0.63,5.31,0.02,-0.01,-0.3,0.12,-0.19,0.0,166.36,182.0,0.0,0.0,0.0,0.0
1776450638371106082,59332,0.108,0.4,0.0,1.0,0.08,-0.18,0.06,0.63,5.31,0.02,-0.01,-0.32,-0.0,-0.12,0.0,166.36,182.0,0.0,0.0,0.0,0.0
1776450638473513808,59431,0.1,0.0,0.0,1.2,0.0,-0.12,0.06,0.63,5.31,0.03,-0.02,-0.33,0.06,-0.06,0.0,166.36,183.0,0.0,0.0,0.0,0.0
1776450638571751254,59532,0.0,0.6,0.0,1.4,-0.02,-0.25,0.06,0.63,5.31,0.05,-0.02,-0.32,0.06,-0.0,0.0,166.36,183.0,0.0,0.0,0.0,0.0
1776450638674192147,59633,0.0,1.4,0.072,0.5,0.0,-0.02,0.06,0.63,5.31,0.04,-0.03,-0.32,-0.0,-0.19,0.06,166.36,194.0,0.0,0.0,0.0,0.0
1776450638772478945,59732,0.0,1.1,0.076,0.3,-0.12,-0.08,0.06,0.63,5.31,0.02,-0.01,-0.33,-0.0,-0.12,0.06,166.36,191.0,0.0,0.0,0.0,0.0
1776450638874893356,59832,0.0,1.6,0.084,0.7,-0.06,0.06,0.06,0.63,5.31,0.01,-0.01,-0.31,0.06,-0.12,-0.06,166.36,191.0,0.0,0.0,0.0,0.0
1776450638973189803,59932,0.0,0.2,0.0,1.4,0.0,-0.16,0.06,0.63,5.31,0.01,-0.02,-0.32,0.06,-0.0,0.0,166.36,194.0,0.0,0.0,0.0,0.0
1776450639075595455,60033,0.0,0.8,0.0,1.5,0.0,-0.04,0.06,0.63,5.31,0.03,-0.01,-0.33,-0.0,-0.0,0.06,166.36,190.0,0.0,0.0,0.0,0.0
1776450639208218915,60133,0.104,0.1,0.084,0.2,-0.08,-0.02,0.06,0.63,5.31,0.02,-0.03,-0.33,-0.0,-0.06,0.06,166.87,190.0,0.0,0.0,0.0,0.0
1776450639276297776,60234,0.0,0.9,0.0,1.1,0.08,0.14,0.06,0.63,5.31,0.04,-0.02,-0.32,0.06,0.06,0.0,166.36,193.0,0.0,0.0,0.0,0.0
1776450639374547611,60335,0.0,1.0,0.08,0.5,0.04,-0.02,0.06,0.63,5.31,0.04,-0.02,-0.33,0.06,0.12,-0.06,166.36,188.0,0.0,0.0,0.0,0.0
1776450639476976744,60435,0.0,0.9,0.072,0.5,-0.02,-0.02,0.06,0.63,5.31,0.05,-0.01,-0.33,-0.0,0.06,0.0,170.47,188.0,0.0,0.0,0.0,0.0
1776450639575242191,60534,0.0,1.0,0.076,0.4,-0.08,0.04,0.06,0.63,5.31,0.02,-0.01,-0.32,-0.06,0.12,0.06,170.99,194.0,0.0,0.0,0.0,0.0
1776450639677677547,60635,0.0,0.7,0.0,1.2,0.04,-0.12,0.06,0.63,5.31,0.02,-0.0,-0.31,0.19,-0.0,0.0,167.21,191.0,0.0,0.0,0.0,0.0
1776450639775978363,60736,0.1,0.2,0.0,0.3,0.0,-0.14,0.06,0.63,5.31,0.03,-0.0,-0.31,-0.06,-0.12,0.0,166.36,191.0,0.0,0.0,0.0,0.0
1776450640072214574,60835,0.0,1.1,0.0,1.2,0.04,-0.06,0.06,0.63,5.31,0.04,-0.01,-0.34,-0.06,0.12,-0.06,170.47,194.0,0.0,0.0,0.0,0.0
1776450640085602227,60935,0.0,0.2,0.0,1.6,0.18,-0.02,0.06,0.63,5.31,0.03,-0.01,-0.34,0.06,-0.0,0.0,170.64,194.0,0.0,0.0,0.0,0.0
1776450640098802548,61035,0.1,0.5,0.076,0.4,0.16,-0.08,0.06,0.63,5.31,0.03,-0.01,-0.32,-0.0,0.06,0.06,170.64,186.0,0.0,0.0,0.0,0.0
1776450640177364820,61134,0.0,1.1,0.0,0.5,0.0,-0.08,0.06,0.63,5.31,0.04,-0.01,-0.33,-0.0,0.06,0.06,171.16,199.0,0.0,0.0,0.0,0.0
1776450640275628303,61234,0.0,1.0,0.084,0.5,-0.02,0.08,0.06,0.63,5.31,0.02,-0.02,-0.33,-0.06,0.19,0.0,166.36,199.0,0.0,0.0,0.0,0.0
1776450640373923490,61334,0.0,0.9,0.072,0.7,0.02,-0.1,0.06,0.63,5.31,0.01,-0.01,-0.32,-0.12,-0.0,0.06,166.36,204.0,0.0,0.0,0.0,0.0
1776450640476314476,61433,0.0,0.7,0.0,1.2,0.06,-0.12,0.06,0.63,5.31,0.02,-0.01,-0.29,-0.12,0.06,-0.06,170.64,196.0,0.0,0.0,0.0,0.0
1776450640574660311,61533,0.0,0.1,0.0,0.3,0.0,-0.1,0.06,0.63,5.31,0.04,-0.02,-0.32,-0.12,0.06,0.06,170.64,196.0,0.0,0.0,0.0,0.0
1776450640677069370,61633,0.0,0.7,0.0,1.5,-0.1,-0.21,0.06,0.63,5.31,0.03,-0.01,-0.33,0.12,-0.12,-0.06,171.16,189.0,0.0,0.0,0.0,0.0
1776450641356208622,61733,0.0,-0.2,0.084,0.0,-0.06,0.02,0.06,0.63,5.31,0.04,-0.04,-0.33,0.06,-0.0,0.12,169.61,185.0,0.0,0.0,0.0,0.0
1776450641373362203,61833,0.0,1.1,0.072,0.3,-0.02,0.14,0.06,0.63,5.31,0.04,-0.01,-0.32,0.19,-0.06,0.06,166.36,185.0,0.0,0.0,0.0,0.0
1776450641381706355,61933,0.0,0.5,0.0,1.1,0.08,0.08,0.06,0.63,5.31,0.05,-0.0,-0.33,-0.0,0.25,-0.06,166.36,193.0,0.0,0.0,0.0,0.0
1776450641385691190,62032,0.1,0.3,0.0,1.6,-0.02,-0.04,0.06,0.63,5.31,0.03,-0.02,-0.32,0.06,-0.0,0.12,166.36,193.0,0.0,0.0,0.0,0.0
1776450641389941210,62132,0.0,1.4,0.088,0.2,0.08,-0.18,0.06,0.63,5.31,0.02,-0.02,-0.33,-0.06,-0.06,0.0,171.16,195.0,0.0,0.0,0.0,0.0
1776450641393819082,62232,0.0,1.0,0.0,1.0,-0.21,-0.08,0.06,0.63,5.31,0.02,-0.01,-0.34,0.06,-0.0,-0.06,167.04,181.0,0.0,0.0,0.0,0.0
1776450641402035178,62331,0.1,0.2,0.068,0.4,-0.16,-0.06,0.06,0.63,5.31,0.03,-0.01,-0.32,0.12,0.06,0.06,166.36,181.0,0.0,0.0,0.0,0.0
1776450641481682043,62431,0.0,1.4,0.076,0.2,-0.1,-0.1,0.06,0.63,5.31,0.01,-0.02,-0.34,-0.12,0.06,0.06,170.47,192.0,0.0,0.0,0.0,0.0
1776450641574061820,62531,0.0,1.4,0.0,1.4,-0.1,-0.08,0.06,0.63,5.31,0.02,-0.0,-0.34,-0.06,0.06,0.06,166.53,191.0,0.0,0.0,0.0,0.0
1776450641672366896,62630,0.108,0.2,0.0,1.2,0.0,-0.12,0.06,0.63,5.31,0.03,-0.01,-0.32,-0.06,-0.0,0.0,170.47,191.0,0.0,0.0,0.0,0.0
1776450641774747845,62730,0.0,1.0,0.076,0.1,0.08,-0.04,0.06,0.63,5.31,0.04,-0.02,-0.32,0.06,-0.06,0.06,166.36,190.0,0.0,0.0,0.0,0.0
1776450641873030810,62830,0.0,0.7,0.08,1.6,0.08,-0.04,0.06,0.63,5.31,0.03,-0.0,-0.31,-0.06,-0.06,0.0,167.38,192.0,0.0,0.0,0.0,0.0
1776450641971304664,62930,0.104,0.3,0.0,1.4,0.02,-0.02,0.06,0.63,5.31,0.03,-0.01,-0.34,-0.0,-0.0,-0.06,170.64,192.0,0.0,0.0,0.0,0.0
1776450642073752149,63030,0.0,0.1,0.0,1.4,-0.04,-0.08,0.06,0.63,5.31,0.05,-0.03,-0.32,-0.0,-0.06,-0.06,170.47,194.0,0.0,0.0,0.0,0.0
1776450642172051577,63130,0.0,0.1,0.0,1.7,-0.04,-0.08,0.06,0.63,5.31,0.01,-0.0,-0.33,-0.0,-0.06,0.0,166.53,194.0,0.0,0.0,0.0,0.0
1776450642274446043,63229,0.0,1.2,0.084,0.1,0.1,-0.21,0.06,0.63,5.31,0.04,-0.02,-0.35,-0.12,-0.06,0.0,166.36,194.0,0.0,0.0,0.0,0.0
1776450642372738823,63330,0.0,0.4,0.0,0.3,-0.04,-0.14,0.06,0.63,5.31,0.04,-0.01,-0.32,0.06,0.06,0.06,171.16,188.0,0.0,0.0,0.0,0.0
1776450642470986103,63430,0.1,0.3,0.0,1.2,-0.02,-0.02,0.06,0.63,5.31,0.05,-0.02,-0.33,-0.0,-0.0,0.0,166.36,188.0,0.0,0.0,0.0,0.0
1776450642573432236,63529,0.0,0.6,0.072,0.3,0.1,-0.08,0.06,0.63,5.31,0.02,-0.01,-0.34,0.06,-0.0,0.0,166.36,192.0,0.0,0.0,0.0,0.0
1776450642671711979,63629,0.0,1.0,0.08,0.3,0.1,0.0,0.06,0.63,5.31,0.02,-0.01,-0.32,-0.0,-0.0,-0.12,166.36,187.0,0.0,0.0,0.0,0.0
1776450642774152724,63730,0.0,0.8,0.0,1.4,-0.08,-0.08,0.06,0.63,5.31,0.03,-0.02,-0.34,0.06,-0.12,0.06,166.36,187.0,0.0,0.0,0.0,0.0
1776450642872442874,63830,0.0,1.1,0.0,0.3,0.02,-0.06,0.06,0.63,5.31,0.01,-0.0,-0.35,-0.0,0.12,0.06,166.36,191.0,0.0,0.0,0.0,0.0
1776450642974869322,63930,0.0,0.7,0.084,0.3,0.08,-0.04,0.06,0.63,5.31,0.03,-0.01,-0.33,0.12,0.12,0.0,167.38,189.0,0.0,0.0,0.0,0.0
1776450643073137972,64030,0.108,0.0,0.0,1.2,-0.02,-0.06,0.06,0.63,5.31,0.03,-0.01,-0.32,0.06,0.06,0.0,166.36,189.0,0.0,0.0,0.0,0.0
1776450643175538736,64131,0.0,0.5,0.076,0.5,0.1,-0.08,0.06,0.63,5.31,0.02,-0.02,-0.34,0.19,-0.0,-0.06,170.81,192.0,0.0,0.0,0.0,0.0
1776450643277950869,64232,0.0,0.6,0.0,1.4,0.0,0.0,0.06,0.63,5.31,0.02,-0.02,-0.33,0.06,-0.0,-0.06,170.47,192.0,0.0,0.0,0.0,0.0
1776450643376232056,64332,0.096,-0.1,0.0,1.6,0.08,-0.04,0.06,0.63,5.31,0.01,-0.0,-0.34,0.06,0.06,0.0,166.36,192.0,0.0,0.0,0.0,0.0
1776450643478608782,64433,0.0,1.4,0.08,0.3,-0.02,-0.14,0.06,0.63,5.31,0.01,-0.02,-0.36,0.06,-0.06,0.12,170.47,196.0,0.0,0.0,0.0,0.0
1776450643576939988,64533,0.0,1.2,0.0,0.3,0.1,-0.2,0.06,0.63,5.31,0.02,-0.01,-0.31,0.12,0.06,0.0,167.21,196.0,0.0,0.0,0.0,0.0
1776450643679404066,64633,0.0,0.5,0.0,1.5,0.02,0.04,0.06,0.63,5.31,0.01,-0.02,-0.32,-0.06,-0.0,-0.06,170.64,197.0,0.0,0.0,0.0,0.0
1776450643777638771,64733,0.096,0.3,0.0,1.3,-0.1,-0.12,0.06,0.63,5.31,0.03,-0.02,-0.37,-0.0,-0.06,0.06,170.47,192.0,0.0,0.0,0.0,0.0
1776450643875931422,64833,0.0,1.3,0.064,0.6,0.06,-0.12,0.06,0.63,5.31,0.03,-0.02,-0.34,-0.06,-0.0,0.0,167.04,192.0,0.0,0.0,0.0,0.0
1776450643978319777,64932,0.0,0.3,0.0,1.1,-0.04,-0.02,0.06,0.63,5.31,0.06,-0.01,-0.33,-0.12,-0.0,0.06,171.5,186.0,0.0,0.0,0.0,0.0
1776450644076607261,65033,0.0,0.6,0.072,0.2,-0.02,-0.14,0.06,0.63,5.31,0.05,-0.0,-0.35,-0.06,-0.0,0.19,166.36,193.0,0.0,0.0,0.0,0.0
1776450644179024153,65134,0.0,1.0,0.08,0.3,0.02,-0.12,0.06,0.63,5.31,0.03,-0.0,-0.34,-0.12,-0.12,0.06,166.87,193.0,0.0,0.0,0.0,0.0
1776450644277321322,65233,0.0,0.9,0.084,0.4,-0.02,-0.1,0.06,0.63,5.31,0.03,-0.01,-0.32,-0.0,-0.06,0.0,167.38,195.0,0.0,0.0,0.0,0.0
1776450644379701733,65334,0.0,0.9,0.084,0.2,-0.02,-0.06,0.06,0.63,5.31,0.04,-0.0,-0.35,0.06,-0.0,-0.06,166.36,201.0,0.0,0.0,0.0,0.0
1776450644478010569,65434,0.0,0.7,0.072,0.3,-0.02,-0.14,0.06,0.63,5.31,0.04,-0.02,-0.32,0.12,0.06,0.06,166.36,201.0,0.0,0.0,0.0,0.0
1776450644576280034,65533,0.0,1.0,0.0,0.3,0.04,-0.04,0.06,0.63,5.31,0.03,-0.02,-0.33,0.06,-0.12,-0.06,166.36,201.0,0.0,0.0,0.0,0.0
1776450644678719593,65633,0.0,0.2,0.0,1.1,0.06,-0.02,0.06,0.63,5.31,0.04,-0.01,-0.33,-0.0,-0.06,0.0,166.87,201.0,0.0,0.0,0.0,0.0
1776450644777016317,65733,0.1,0.5,0.0,1.1,0.02,-0.08,0.06,0.63,5.31,0.03,-0.01,-0.34,-0.12,0.06,0.0,171.16,195.0,0.0,0.0,0.0,0.0
1776450644885371509,65832,0.1,0.1,0.0,1.2,-0.04,-0.14,0.06,0.63,5.31,0.03,-0.01,-0.36,-0.06,0.19,0.0,167.04,196.0,0.0,0.0,0.0,0.0
1776450644977709601,65932,0.0,0.3,0.0,1.5,0.12,-0.02,0.06,0.63,5.31,0.02,-0.03,-0.36,0.06,0.12,0.06,167.04,196.0,0.0,0.0,0.0,0.0
1776450645076023529,66032,0.096,1.2,0.088,0.3,0.16,-0.08,0.06,0.63,5.31,0.03,-0.02,-0.33,-0.0,-0.0,0.12,170.47,196.0,0.0,0.0,0.0,0.0
1776450645178410996,66132,0.0,0.5,0.0,1.2,0.0,-0.06,0.06,0.63,5.31,0.05,-0.0,-0.32,-0.0,0.12,0.06,167.04,192.0,0.0,0.0,0.0,0.0
1776450645276712350,66233,0.1,0.4,0.0,1.2,0.06,-0.02,0.06,0.63,5.31,0.03,-0.01,-0.33,0.06,-0.06,0.12,167.04,192.0,0.0,0.0,0.0,0.0
1776450645379091316,66333,0.1,0.1,0.0,1.3,0.04,-0.12,0.06,0.63,5.31,0.03,-0.02,-0.34,0.06,0.06,-0.06,167.04,194.0,0.0,0.0,0.0,0.0
1776450645481473209,66434,0.0,0.8,0.0,1.6,0.12,-0.16,0.06,0.63,5.31,0.04,-0.02,-0.33,-0.0,-0.0,0.06,167.04,194.0,0.0,0.0,0.0,0.0
1776450645579803322,66535,0.096,0.1,0.0,1.5,0.06,0.14,0.06,0.63,5.31,0.03,-0.0,-0.32,-0.0,0.06,-0.06,167.04,193.0,0.0,0.0,0.0,0.0
1776450645678144472,66634,0.0,1.3,0.08,0.1,-0.04,-0.08,0.06,0.63,5.31,0.03,-0.01,-0.32,-0.06,0.06,0.0,166.87,187.0,0.0,0.0,0.0,0.0
1776450645780476939,66734,0.0,0.2,0.0,0.6,-0.06,0.0,0.06,0.63,5.31,0.01,-0.0,-0.33,-0.0,-0.12,0.0,166.87,187.0,0.0,0.0,0.0,0.0
1776450645878804571,66834,0.0,1.0,0.0,1.4,0.1,-0.02,0.06,0.63,5.31,0.02,-0.03,-0.32,0.12,0.06,0.0,166.87,198.0,0.0,0.0,0.0,0.0
1776450645981209445,66934,0.1,0.4,0.0,1.6,0.04,-0.04,0.06,0.63,5.31,0.02,-0.01,-0.33,0.19,-0.06,0.0,171.16,193.0,0.0,0.0,0.0,0.0
1776450646079503521,67034,0.096,0.4,0.076,0.3,-0.04,-0.1,0.06,0.63,5.31,0.02,-0.01,-0.33,0.06,0.12,0.0,171.16,193.0,0.0,0.0,0.0,0.0
1776450646177769671,67134,0.0,1.3,0.0,0.4,0.06,-0.02,0.06,0.63,5.31,0.03,-0.01,-0.35,0.06,-0.0,0.0,167.04,194.0,0.0,0.0,0.0,0.0
1776450646280224934,67233,0.0,0.6,0.076,0.5,0.02,-0.06,0.06,0.63,5.31,0.02,-0.0,-0.34,0.12,-0.25,0.06,167.04,194.0,0.0,0.0,0.0,0.0
1776450646382571882,67334,0.096,0.2,0.0,1.5,-0.23,-0.12,0.06,0.63,5.31,0.02,-0.0,-0.35,-0.0,0.06,0.12,167.04,194.0,0.0,0.0,0.0,0.0
1776450646480868755,67434,0.0,0.9,0.0,1.2,0.08,-0.1,0.06,0.63,5.31,0.04,-0.03,-0.34,-0.06,-0.12,0.06,167.04,195.0,0.0,0.0,0.0,0.0
1776450646579190146,67534,0.0,0.7,0.0,1.4,-0.1,-0.04,0.06,0.63,5.31,0.03,-0.03,-0.36,-0.06,-0.06,-0.06,167.04,203.0,0.0,0.0,0.0,0.0
1776450646681588205,67635,0.112,0.4,0.0,1.4,0.0,-0.06,0.06,0.63,5.31,0.03,-0.03,-0.32,-0.0,-0.0,0.12,167.04,203.0,0.0,0.0,0.0,0.0
1776450646779864022,67735,0.1,0.0,0.0,1.5,0.0,0.06,0.06,0.63,5.31,0.02,-0.02,-0.36,-0.12,-0.0,0.06,171.16,202.0,0.0,0.0,0.0,0.0
1776450646882294192,67835,0.1,1.1,0.0,1.3,0.0,0.04,0.06,0.63,5.31,0.01,-0.02,-0.32,-0.0,0.12,0.0,170.47,202.0,0.0,0.0,0.0,0.0
1776450646984693770,67936,0.104,0.3,0.0,1.1,-0.06,-0.02,0.06,0.63,5.31,0.01,-0.0,-0.35,-0.25,0.19,0.12,171.16,194.0,0.0,0.0,0.0,0.0
1776450647082993161,68036,0.1,0.3,0.0,1.0,-0.2,-0.1,0.06,0.63,5.31,0.03,-0.0,-0.34,-0.06,0.19,0.06,170.64,194.0,0.0,0.0,0.0,0.0
1776450647181287070,68135,0.1,0.2,0.0,0.9,0.0,-0.06,0.06,0.63,5.31,0.01,-0.01,-0.34,-0.06,-0.0,0.0,170.47,194.0,0.0,0.0,0.0,0.0
1776450647283701722,68235,0.104,0.9,0.076,0.3,-0.04,0.04,0.06,0.63,5.31,0.02,-0.0,-0.37,-0.19,0.19,0.0,166.53,198.0,0.0,0.0,0.0,0.0
1776450647381988465,68336,0.0,0.1,0.0,1.3,0.06,-0.12,0.06,0.63,5.31,0.02,-0.02,-0.36,0.06,-0.25,0.0,166.36,186.0,0.0,0.0,0.0,0.0
1776450647480241078,68435,0.0,1.0,0.084,0.6,0.06,-0.04,0.06,0.63,5.31,0.03,-0.0,-0.35,-0.06,-0.12,-0.06,166.36,186.0,0.0,0.0,0.0,0.0
1776450647582695286,68535,0.0,1.0,0.088,0.2,0.0,-0.16,0.06,0.63,5.31,0.03,-0.0,-0.33,-0.0,-0.0,0.06,167.38,182.0,0.0,0.0,0.0,0.0
1776450647680982158,68636,0.0,0.6,0.0,1.5,-0.08,-0.02,0.06,0.63,5.31,0.02,-0.02,-0.37,0.12,-0.06,0.0,166.36,194.0,0.0,0.0,0.0,0.0
1776450647783392884,68736,0.0,1.5,0.072,0.3,0.08,-0.06,0.06,0.63,5.31,0.02,-0.02,-0.34,-0.0,0.06,-0.06,166.36,194.0,0.0,0.0,0.0,0.0
1776450647881683090,68836,0.0,1.4,0.088,0.1,-0.06,-0.1,0.06,0.63,5.31,0.0,-0.0,-0.35,0.06,0.12,-0.12,166.53,192.0,0.0,0.0,0.0,0.0
1776450647990015744,68935,0.0,0.1,0.0,1.1,0.06,0.04,0.06,0.63,5.31,0.03,-0.0,-0.35,0.06,0.12,0.12,166.36,192.0,0.0,0.0,0.0,0.0
1776450648082393262,69035,0.108,0.1,0.0,1.0,-0.08,-0.2,0.06,0.63,5.31,0.04,-0.02,-0.34,-0.0,-0.0,-0.06,166.36,198.0,0.0,0.0,0.0,0.0
1776450648184778081,69136,0.0,0.7,0.08,0.7,-0.08,-0.25,0.06,0.63,5.31,0.03,-0.02,-0.34,-0.0,0.06,-0.06,166.36,189.0,0.0,0.0,0.0,0.0
1776450648283074064,69235,0.1,0.1,0.0,1.0,0.0,-0.02,0.06,0.63,5.31,0.02,-0.01,-0.34,-0.0,-0.06,0.0,170.47,189.0,0.0,0.0,0.0,0.0
1776450648385441179,69336,0.0,0.7,0.068,0.3,0.04,0.06,0.06,0.63,5.31,0.02,-0.0,-0.37,-0.12,-0.06,0.12,166.36,192.0,0.0,0.0,0.0,0.0
1776450648483741663,69436,0.0,0.7,0.076,0.4,-0.06,0.04,0.06,0.63,5.31,0.02,-0.01,-0.35,0.06,0.06,0.12,166.36,192.0,0.0,0.0,0.0,0.0
1776450648582105405,69536,0.0,0.7,0.084,0.2,-0.08,-0.04,0.06,0.63,5.31,0.02,-0.01,-0.35,-0.0,-0.0,0.12,166.36,192.0,0.0,0.0,0.0,0.0
1776450648684482465,69637,0.0,0.8,0.076,0.7,-0.16,-0.12,0.06,0.63,5.31,0.03,-0.01,-0.33,0.06,-0.06,0.0,166.36,193.0,0.0,0.0,0.0,0.0
1776450648782772078,69737,0.0,1.0,0.076,0.3,0.21,-0.06,0.06,0.63,5.31,0.03,-0.01,-0.32,0.06,-0.12,-0.19,166.36,192.0,0.0,0.0,0.0,0.0
1776450648885167600,69836,0.0,0.2,0.0,1.6,-0.08,0.02,0.06,0.63,5.31,0.04,-0.01,-0.34,-0.0,-0.0,-0.12,166.36,192.0,0.0,0.0,0.0,0.0
1776450648983473973,69936,0.1,0.2,0.0,1.5,0.1,-0.12,0.06,0.63,5.31,0.03,-0.03,-0.33,-0.0,-0.06,-0.12,166.36,188.0,0.0,0.0,0.0,0.0
1776450649085857106,70037,0.1,-0.2,0.0,1.7,0.02,0.08,0.06,0.63,5.31,0.02,-0.0,-0.33,-0.12,0.06,0.12,166.36,188.0,0.0,0.0,0.0,0.0
1776450649184210349,70136,0.1,0.2,0.0,1.4,0.1,-0.14,0.06,0.63,5.31,0.01,-0.01,-0.32,-0.06,0.19,-0.06,166.36,190.0,0.0,0.0,0.0,0.0
1776450649286576797,70236,0.1,1.2,0.084,0.2,0.0,-0.06,0.06,0.63,5.31,0.01,-0.01,-0.33,-0.12,0.12,-0.06,166.36,203.0,0.0,0.0,0.0,0.0
1776450649384821947,70336,0.0,1.2,0.088,0.1,-0.16,-0.12,0.06,0.63,5.31,0.04,-0.0,-0.33,0.06,-0.12,-0.06,166.36,203.0,0.0,0.0,0.0,0.0
1776450649483131560,70436,0.0,0.5,0.0,0.2,0.12,-0.06,0.06,0.63,5.31,0.01,-0.02,-0.34,0.12,0.06,-0.06,166.36,197.0,0.0,0.0,0.0,0.0
1776450649585550286,70536,0.0,0.9,0.0,1.5,0.04,-0.12,0.06,0.63,5.31,0.02,-0.01,-0.33,0.12,-0.0,-0.06,166.36,191.0,0.0,0.0,0.0,0.0
1776450649683879733,70636,0.096,0.2,0.0,1.5,0.08,-0.2,0.06,0.63,5.31,0.03,-0.03,-0.32,0.19,-0.25,-0.06,166.36,191.0,0.0,0.0,0.0,0.0
1776450649782157438,70735,0.0,1.4,0.0,0.3,-0.06,-0.04,0.06,0.63,5.31,0.05,-0.02,-0.36,-0.0,-0.0,-0.06,166.36,200.0,0.0,0.0,0.0,0.0
1776450649884555627,70836,0.0,0.4,0.0,0.2,0.06,-0.06,0.06,0.63,5.31,0.03,-0.0,-0.34,0.06,-0.06,0.06,166.36,202.0,0.0,0.0,0.0,0.0
1776450649992881744,70937,0.0,-0.3,0.0,1.4,0.14,0.0,0.06,0.63,5.31,0.04,-0.0,-0.34,-0.06,-0.12,0.06,166.36,202.0,0.0,0.0,0.0,0.0
1776450650085236596,71036,0.0,0.7,0.08,0.3,-0.02,-0.12,0.06,0.63,5.31,0.05,-0.01,-0.34,-0.0,-0.0,-0.06,166.36,189.0,0.0,0.0,0.0,0.0
1776450650187648044,71137,0.0,0.1,0.0,1.3,-0.12,-0.1,0.06,0.63,5.31,0.01,-0.01,-0.34,-0.12,-0.06,0.0,166.7,189.0,0.0,0.0,0.0,0.0
1776450650285968824,71238,0.0,1.3,0.0,1.3,-0.06,0.14,0.06,0.63,5.31,0.04,-0.01,-0.32,0.06,-0.0,0.06,166.36,192.0,0.0,0.0,0.0,0.0
1776450650388325383,71337,0.104,0.1,0.0,1.1,0.04,-0.02,0.06,0.63,5.31,0.02,-0.01,-0.33,0.06,-0.06,0.06,166.36,188.0,0.0,0.0,0.0,0.0
1776450650486618811,71437,0.108,0.3,0.0,1.3,-0.08,-0.12,0.06,0.63,5.31,0.03,-0.02,-0.36,-0.06,-0.12,0.0,166.36,188.0,0.0,0.0,0.0,0.0
1776450650584949480,71537,0.1,0.2,0.0,0.5,0.06,0.16,0.06,0.63,5.31,0.04,-0.0,-0.32,-0.0,-0.06,0.06,167.38,202.0,0.0,0.0,0.0,0.0
1776450650687320687,71638,0.0,0.7,0.072,0.3,-0.1,-0.16,0.06,0.63,5.31,0.04,-0.0,-0.33,0.12,-0.0,0.06,166.36,194.0,0.0,0.0,0.0,0.0
1776450650789735043,71739,0.0,0.6,0.072,0.6,0.02,0.0,0.06,0.63,5.31,0.02,-0.01,-0.34,0.06,0.06,0.06,166.36,194.0,0.0,0.0,0.0,0.0
1776450650888047286,71839,0.0,0.9,0.0,0.1,0.04,-0.08,0.06,0.63,5.31,0.02,-0.02,-0.33,-0.06,0.19,0.0,166.36,196.0,0.0,0.0,0.0,0.0
1776450650990458493,71939,0.0,1.4,0.0,1.3,0.08,-0.14,0.06,0.63,5.31,0.03,-0.01,-0.32,-0.0,0.06,0.0,166.36,196.0,0.0,0.0,0.0,0.0
1776450651428207871,72039,0.0,1.0,0.072,0.2,-0.08,0.04,0.06,0.63,5.31,0.04,-0.01,-0.32,-0.0,0.06,-0.06,166.36,196.0,0.0,0.0,0.0,0.0
1776450651490143543,72139,0.0,0.5,0.076,0.3,0.0,-0.21,0.06,0.63,5.31,0.02,-0.01,-0.33,0.06,-0.0,0.06,166.36,194.0,0.0,0.0,0.0,0.0
1776450651494202434,72240,0.0,1.2,0.0,1.2,0.0,-0.1,0.06,0.63,5.31,0.04,-0.0,-0.3,-0.0,-0.12,-0.06,166.36,192.0,0.0,0.0,0.0,0.0
1776450651505747235,72340,0.1,0.2,0.0,1.3,0.1,-0.1,0.06,0.63,5.31,0.02,-0.0,-0.32,-0.06,0.06,0.0,166.36,192.0,0.0,0.0,0.0,0.0
1776450651517978592,72439,0.104,0.4,0.076,0.6,-0.08,-0.16,0.06,0.63,5.31,0.02,-0.0,-0.33,-0.0,-0.0,0.06,166.36,194.0,0.0,0.0,0.0,0.0
1776450651588434638,72540,0.0,1.0,0.0,1.7,0.0,0.04,0.06,0.63,5.31,0.03,-0.01,-0.35,-0.25,-0.06,-0.06,166.36,194.0,0.0,0.0,0.0,0.0
1776450651690848457,72640,0.092,0.2,0.0,1.5,-0.06,0.06,0.06,0.63,5.31,0.03,-0.01,-0.33,0.12,-0.0,-0.06,166.36,198.0,0.0,0.0,0.0,0.0
1776450651789132292,72739,0.0,1.4,0.0,1.2,-0.02,-0.14,0.06,0.63,5.31,0.02,-0.0,-0.35,0.06,-0.12,-0.06,166.36,202.0,0.0,0.0,0.0,0.0
1776450651887420794,72839,0.0,0.5,0.076,0.2,0.08,-0.08,0.06,0.63,5.31,0.03,-0.01,-0.33,0.06,-0.06,0.0,169.96,202.0,0.0,0.0,0.0,0.0
1776450651989836464,72939,0.0,1.2,0.0,1.3,0.04,-0.02,0.06,0.63,5.31,0.03,-0.02,-0.33,0.19,0.06,0.06,165.67,192.0,0.0,0.0,0.0,0.0
1776450652088167800,73038,0.1,0.3,0.076,0.2,-0.12,-0.1,0.06,0.63,5.31,0.03,-0.02,-0.35,-0.0,-0.0,-0.06,166.87,192.0,0.0,0.0,0.0,0.0
1776450652190518618,73139,0.0,0.7,0.0,1.5,0.0,0.02,0.06,0.63,5.31,0.03,-0.02,-0.33,-0.0,0.19,-0.06,166.36,192.0,0.0,0.0,0.0,0.0
1776450652288863713,73239,0.1,0.2,0.076,0.3,0.14,0.12,0.06,0.63,5.31,0.01,-0.02,-0.34,-0.0,-0.0,0.06,166.36,183.0,0.0,0.0,0.0,0.0
1776450652387134956,73338,0.0,0.2,0.0,1.4,0.08,-0.08,0.06,0.63,5.31,0.03,-0.0,-0.33,0.06,-0.06,-0.12,166.36,197.0,0.0,0.0,0.0,0.0
1776450652489494385,73438,0.0,0.7,0.0,1.6,-0.02,-0.12,0.06,0.63,5.31,0.02,-0.0,-0.32,-0.0,-0.12,-0.06,167.38,197.0,0.0,0.0,0.0,0.0
1776450652587816369,73539,0.1,0.4,0.0,1.4,-0.02,-0.21,0.06,0.63,5.31,0.02,-0.02,-0.32,-0.0,0.06,-0.12,166.36,195.0,0.0,0.0,0.0,0.0
1776450652686096704,73638,0.104,0.1,0.0,1.4,-0.14,-0.14,0.06,0.63,5.31,0.03,-0.0,-0.32,0.12,-0.06,0.0,166.36,195.0,0.0,0.0,0.0,0.0
1776450652844206100,73738,0.112,-0.1,0.0,1.5,0.1,-0.04,0.06,0.63,5.31,0.03,-0.01,-0.34,-0.06,-0.06,0.0,166.36,194.0,0.0,0.0,0.0,0.0
1776450652886804840,73838,0.096,0.0,0.0,1.4,0.0,0.06,0.06,0.63,5.31,0.04,-0.01,-0.32,-0.0,-0.06,0.0,169.96,184.0,0.0,0.0,0.0,0.0
1776450652989222991,73937,0.1,0.9,0.0,1.1,0.08,-0.06,0.06,0.63,5.31,0.03,-0.01,-0.36,0.06,0.06,-0.06,165.67,184.0,0.0,0.0,0.0,0.0
1776450653087498160,74038,0.104,0.7,0.076,0.2,0.04,-0.08,0.06,0.63,5.31,0.03,-0.02,-0.3,0.06,0.19,0.0,165.84,193.0,0.0,0.0,0.0,0.0
1776450653189927405,74138,0.0,0.6,0.0,1.5,0.06,0.08,0.06,0.63,5.31,0.02,-0.01,-0.3,0.06,-0.0,-0.06,165.84,195.0,0.0,0.0,0.0,0.0
1776450653288308055,74237,0.092,0.3,0.0,1.4,-0.04,-0.06,0.06,0.63,5.31,0.02,-0.02,-0.34,0.19,-0.06,-0.06,165.67,195.0,0.0,0.0,0.0,0.0
1776450653390569151,74337,0.088,1.5,0.084,0.1,0.16,-0.1,0.06,0.63,5.31,0.04,-0.03,-0.32,0.06,-0.12,0.06,165.84,200.0,0.0,0.0,0.0,0.0
1776450653488870283,74437,0.0,0.6,0.08,0.3,-0.21,0.1,0.06,0.63,5.31,0.05,-0.01,-0.33,-0.0,-0.06,0.0,165.84,193.0,0.0,0.0,0.0,0.0
1776450653587223766,74536,0.0,0.7,0.076,0.4,-0.04,-0.2,0.06,0.63,5.31,0.03,-0.02,-0.32,0.12,-0.0,0.0,165.67,193.0,0.0,0.0,0.0,0.0
1776450653685492750,74636,0.0,0.8,0.08,0.6,0.0,-0.1,0.06,0.63,5.31,0.03,-0.02,-0.32,-0.19,0.06,0.0,165.84,190.0,0.0,0.0,0.0,0.0
1776450653787911420,74736,0.0,0.2,0.0,1.6,0.0,-0.04,0.06,0.63,5.31,0.04,-0.02,-0.33,0.06,0.19,0.0,165.67,190.0,0.0,0.0,0.0,0.0
1776450653886218867,74835,0.096,0.0,0.0,1.3,-0.12,-0.04,0.06,0.63,5.31,0.02,-0.0,-0.32,-0.06,-0.0,-0.06,165.84,192.0,0.0,0.0,0.0,0.0
1776450653988618963,74936,0.1,0.1,0.0,1.3,0.16,-0.12,0.06,0.63,5.31,0.02,-0.01,-0.32,-0.0,0.06,-0.06,165.67,191.0,0.0,0.0,0.0,0.0
1776450654086906817,75036,0.096,0.2,0.0,1.4,0.18,-0.14,0.06,0.63,5.31,0.02,-0.0,-0.33,0.06,-0.06,0.06,165.84,191.0,0.0,0.0,0.0,0.0
1776450654189300561,75136,0.096,0.3,0.08,0.6,0.12,0.06,0.06,0.63,5.31,0.02,-0.02,-0.32,-0.0,0.06,0.0,166.7,199.0,0.0,0.0,0.0,0.0
1776450654287615711,75237,0.0,0.7,0.0,1.2,0.0,-0.08,0.06,0.63,5.31,0.02,-0.01,-0.34,0.06,-0.12,-0.06,165.67,191.0,0.0,0.0,0.0,0.0
