timestamp_ns,time_ms,voltage_left,current_left_ma,voltage_right,current_right_ma,motor_current_left,motor_current_right,euler_x,euler_y,euler_z,acc_lin_x,acc_lin_y,acc_lin_z,gyro_x,gyro_y,gyro_z,sonar_mm,tof_mm,rpm_left,rpm_right,rotations_left,rotations_right
1776358757421061226,137762,0.016,0.1,0.0,1.0,0.04,-0.2,1.5,-2.63,-1.25,0.11,-0.0,-0.38,-0.06,-0.06,0.0,204.43,209.0,0.0,0.0,0.0,
1776358757508989094,1904,0.0,0.0,0.0,1.2,0.02,-0.08,-0.0,-2.88,-2.0,-0.01,0.02,-0.39,-0.06,0.06,0.0,201.34,190.0,0.0,0.0,0.0,0.0
1776358757607301379,2003,0.02,0.3,0.0,0.2,-0.04,-0.14,-0.0,-2.88,-2.0,0.0,0.01,-0.38,0.06,-0.06,-0.06,212.66,219.0,0.0,0.0,0.0,0.0
1776358757709699838,2103,0.008,0.0,0.0,0.8,-0.04,-0.06,-0.0,-2.88,-2.0,0.0,0.02,-0.36,0.06,-0.0,-0.06,205.46,219.0,0.0,0.0,0.0,0.0
1776358757807977941,2203,0.008,0.3,0.0,1.2,-0.04,-0.12,-0.0,-2.88,-2.0,-0.03,0.02,-0.38,-0.12,-0.0,0.06,222.09,204.0,0.0,0.0,0.0,0.0
1776358758039224798,2302,0.0,1.1,0.0,0.0,0.06,-0.12,-0.0,-2.88,-2.0,0.0,0.03,-0.4,0.12,-0.06,0.06,238.73,205.0,0.0,0.0,0.0,0.0
1776358758098811253,2402,0.0,0.5,0.0,0.9,0.06,-0.14,-0.0,-2.88,-2.0,-0.02,0.01,-0.37,0.19,-0.06,-0.06,11933.83,200.0,0.0,0.0,0.0,0.0
1776358758111243946,2502,0.0,1.0,0.0,0.3,-0.08,-0.06,-0.0,-2.88,-2.0,0.0,0.02,-0.35,0.19,-0.0,-0.06,11935.37,200.0,0.0,0.0,0.0,0.0
1776358758211290971,2603,0.0,0.2,0.0,1.2,0.04,-0.21,-0.0,-2.88,-2.0,-0.02,0.02,-0.35,-0.06,-0.0,-0.12,11934.0,217.0,0.0,0.0,0.0,0.0
1776358758307684086,2703,0.048,0.1,0.0,0.5,0.0,-0.14,-0.0,-2.88,-2.0,-0.01,0.02,-0.36,0.12,-0.12,0.0,11932.45,207.0,0.0,0.0,0.0,0.0
1776358758410035051,2803,0.0,0.1,0.0,1.2,-0.02,-0.1,-0.0,-2.88,-2.0,0.0,0.01,-0.37,-0.12,-0.0,0.12,11936.23,207.0,0.0,0.0,0.0,0.0
1776358758512359315,2904,0.024,0.1,0.0,0.7,0.02,-0.23,-0.0,-2.88,-2.0,-0.01,0.03,-0.35,-0.0,-0.0,0.0,203.91,209.0,0.0,0.0,0.0,0.0
1776358758612624358,3005,0.02,0.3,0.0,0.3,0.0,-0.2,-0.0,-2.88,-2.0,-0.02,0.01,-0.38,-0.12,0.06,0.0,11935.71,215.0,0.0,0.0,0.0,0.0
1776358758719054030,3105,0.0,0.2,0.008,0.5,0.04,-0.08,-0.0,-2.88,-2.0,0.0,0.02,-0.37,-0.0,-0.19,-0.19,204.94,215.0,0.0,0.0,0.0,0.0
1776358758811378900,3205,0.0,0.9,0.0,0.7,0.04,-0.06,-0.0,-2.88,-2.0,0.01,0.02,-0.38,-0.06,-0.06,0.0,203.74,215.0,0.0,0.0,0.0,0.0
1776358758909658011,3305,0.0,0.3,0.0,1.0,-0.06,-0.16,-0.0,-2.88,-2.0,-0.01,0.03,-0.38,-0.06,-0.19,0.0,209.06,216.0,0.0,0.0,0.0,0.0
1776358759119213926,3404,0.0,0.3,0.004,0.5,0.04,-0.12,-0.0,-2.88,-2.0,-0.01,0.01,-0.35,-0.06,-0.0,0.06,11937.6,205.0,0.0,0.0,0.0,0.0
1776358759131972334,3504,0.004,0.3,0.0,0.8,0.04,-0.25,-0.0,-2.88,-2.0,-0.01,0.01,-0.35,0.06,-0.19,-0.06,209.06,205.0,0.0,0.0,0.0,0.0
1776358759208636695,3604,0.0,0.2,0.04,0.7,-0.02,-0.04,-0.0,-2.88,-2.0,0.0,0.01,-0.32,-0.0,-0.0,-0.06,208.03,213.0,0.0,0.0,0.0,0.0
1776358759310990948,3704,0.06,0.1,0.0,0.9,-0.04,-0.1,-0.0,-2.88,-2.0,-0.01,0.03,-0.36,0.19,-0.12,0.0,221.58,207.0,0.0,0.0,0.0,0.0
1776358759409321089,3804,0.04,0.4,0.0,0.3,-0.02,-0.12,-0.0,-2.88,-2.0,0.0,0.01,-0.36,0.06,-0.0,0.06,213.17,207.0,0.0,0.0,0.0,0.0
1776358759511658641,3904,0.0,0.1,0.016,0.7,-0.04,-0.12,-0.0,-2.88,-2.0,0.0,0.03,-0.36,0.06,0.12,-0.12,209.06,223.0,0.0,0.0,0.0,0.0
1776358759611880524,4004,0.016,0.2,0.0,0.7,-0.04,-0.12,-0.0,-2.88,-2.0,0.0,0.02,-0.35,0.06,0.12,0.0,11935.03,201.0,0.0,0.0,0.0,0.0
1776358759712393697,4104,0.0,0.6,0.0,1.1,-0.06,-0.12,-0.0,-2.88,-2.0,0.0,0.01,-0.34,-0.0,-0.0,-0.06,217.46,201.0,0.0,0.0,0.0,0.0
1776358759919215391,4205,0.0,0.8,0.0,0.6,-0.1,-0.18,-0.0,-2.88,-2.0,0.0,0.03,-0.38,0.06,-0.06,0.06,11933.83,229.0,0.0,0.0,0.0,0.0
1776358759931417810,4304,0.008,0.2,0.0,1.1,-0.02,-0.25,-0.0,-2.88,-2.0,-0.01,0.02,-0.37,-0.0,-0.0,-0.12,209.57,229.0,0.0,0.0,0.0,0.0
1776358760011363589,4405,0.0,1.0,0.0,0.7,0.0,-0.08,-0.0,-2.88,-2.0,0.0,0.03,-0.37,-0.0,0.06,0.12,230.5,213.0,0.0,0.0,0.0,0.0
1776358760113728083,4505,0.0,0.5,0.0,1.0,-0.04,-0.14,-0.0,-2.88,-2.0,0.01,0.01,-0.36,0.06,-0.0,-0.06,199.63,208.0,0.0,0.0,0.0,0.0
1776358760212042084,4605,0.044,0.3,0.048,0.6,-0.04,-0.18,-0.0,-2.88,-2.0,0.0,0.02,-0.37,0.25,-0.06,0.06,204.94,208.0,0.0,0.0,0.0,0.0
1776358760314443741,4705,0.052,0.2,0.0,0.9,0.06,-0.2,-0.0,-2.88,-2.0,0.0,0.01,-0.34,-0.06,0.06,0.06,209.06,225.0,0.0,0.0,0.0,0.0
1776358760412712930,4805,0.0,0.7,0.024,0.5,-0.12,-0.2,-0.0,-2.88,-2.0,0.0,-0.0,-0.36,0.12,-0.06,-0.06,225.69,210.0,0.0,0.0,0.0,0.0
1776358760510967788,4904,0.028,0.2,0.0,0.1,-0.12,-0.2,-0.0,-2.88,-2.0,0.0,0.02,-0.34,-0.06,0.12,0.0,212.15,210.0,0.0,0.0,0.0,0.0
1776358760613398517,5004,0.02,0.5,0.0,0.5,-0.12,-0.18,-0.0,-2.88,-2.0,-0.01,0.01,-0.37,0.06,-0.06,-0.06,209.06,209.0,0.0,0.0,0.0,0.0
1776358760711717739,5105,0.0,0.9,0.0,0.8,0.06,-0.14,-0.0,-2.88,-2.0,0.0,0.02,-0.37,-0.12,0.12,0.06,204.77,206.0,0.0,0.0,0.0,0.0
1776358760822014918,5206,0.0,0.5,0.0,1.2,-0.16,-0.06,-0.0,-2.88,-2.0,0.0,0.01,-0.35,-0.0,0.06,0.06,11930.74,206.0,0.0,0.0,0.0,0.0
1776358760914383178,5306,0.012,0.0,0.0,1.2,0.0,-0.06,-0.0,-2.88,-2.0,-0.01,-0.0,-0.36,-0.12,0.06,0.06,11932.97,206.0,0.0,0.0,0.0,0.0
1776358761014773811,5406,0.0,0.7,0.0,0.3,-0.02,-0.08,-0.0,-2.88,-2.0,0.0,0.03,-0.36,-0.0,-0.06,0.0,208.89,206.0,0.0,0.0,0.0,0.0
1776358761114979970,5506,0.0,0.4,0.0,0.3,-0.08,-0.18,-0.0,-2.88,-2.0,-0.02,0.02,-0.35,0.19,-0.0,0.0,11933.31,204.0,0.0,0.0,0.0,0.0
1776358761223386817,5606,0.0,0.2,0.0,1.0,-0.04,-0.1,-0.0,-2.88,-2.0,-0.01,0.02,-0.34,0.06,-0.06,0.06,11935.03,198.0,0.0,0.0,0.0,0.0
1776358761313746681,5706,0.048,0.3,0.0,0.8,-0.25,-0.16,-0.0,-2.88,-2.0,-0.01,-0.0,-0.36,0.06,-0.06,0.0,11932.8,208.0,0.0,0.0,0.0,0.0
1776358761416081575,5807,0.048,0.1,0.0,0.8,0.04,-0.08,-0.0,-2.88,-2.0,0.0,0.02,-0.35,-0.0,-0.06,0.0,11932.8,208.0,0.0,0.0,0.0,0.0
1776358761522256973,5907,0.024,0.1,0.0,0.1,-0.2,-0.14,-0.0,-2.88,-2.0,0.0,0.02,-0.34,-0.19,0.06,0.0,11932.8,214.0,0.0,0.0,0.0,0.0
1776358761624730708,6007,0.016,0.2,0.0,1.0,-0.08,-0.02,-0.0,-2.88,-2.0,0.0,0.02,-0.34,-0.0,-0.06,0.0,11931.08,214.0,0.0,0.0,0.0,0.0
1776358761723064018,6107,0.0,0.5,0.0,1.1,0.02,-0.16,-0.0,-2.88,-2.0,0.0,0.02,-0.35,0.12,-0.06,0.0,11933.31,214.0,0.0,0.0,0.0,0.0
1776358761817483258,6207,0.008,0.1,0.0,1.2,0.02,-0.06,-0.0,-2.88,-2.0,-0.01,0.03,-0.37,-0.0,-0.0,0.06,217.98,214.0,0.0,0.0,0.0,0.0
1776358761915792552,6307,0.0,0.2,0.0,1.1,-0.08,-0.1,-0.0,-2.88,-2.0,-0.01,0.03,-0.36,-0.06,-0.19,-0.06,213.86,201.0,0.0,0.0,0.0,0.0
1776358762014058813,6407,0.004,0.4,0.0,1.0,0.0,-0.12,-0.0,-2.88,-2.0,0.0,0.02,-0.38,0.12,-0.06,0.12,209.57,205.0,0.0,0.0,0.0,0.0
1776358762116453461,6508,0.004,0.2,0.0,0.7,-0.06,-0.08,-0.0,-2.88,-2.0,0.0,0.05,-0.37,-0.0,-0.12,0.0,209.57,205.0,0.0,0.0,0.0,0.0
1776358762214815776,6607,0.052,0.5,0.0,1.1,0.0,-0.12,-0.0,-2.88,-2.0,-0.03,0.01,-0.39,0.12,0.19,-0.06,200.14,204.0,0.0,0.0,0.0,0.0
1776358762317108820,6708,0.052,0.1,0.0,1.0,-0.18,-0.37,-0.0,-2.88,-2.0,0.0,0.01,-0.36,0.06,0.12,0.12,205.46,214.0,0.0,0.0,0.0,0.0
1776358762415432675,6808,0.036,0.3,0.0,1.0,-0.12,-0.16,-0.0,-2.88,-2.0,0.0,0.01,-0.34,-0.0,-0.0,0.0,200.14,214.0,0.0,0.0,0.0,0.0
1776358762513682573,6907,0.028,0.1,0.0,1.0,0.08,-0.12,-0.0,-2.88,-2.0,0.0,0.04,-0.35,0.06,0.06,-0.06,201.34,207.0,0.0,0.0,0.0,0.0
1776358762616083850,7007,0.024,0.3,0.0,1.3,0.04,-0.04,-0.0,-2.88,-2.0,-0.06,0.07,-0.34,-0.06,-0.37,-0.06,205.46,205.0,0.0,0.0,0.0,0.0
1776358762714398354,7108,0.0,0.9,0.0,0.9,-0.12,-0.21,-0.0,-2.88,-2.0,-0.1,0.1,-0.42,0.31,-0.06,0.0,209.57,205.0,0.0,0.0,0.0,0.0
1776358762816856368,7207,0.0,0.4,0.0,1.1,-0.06,-0.06,-0.0,-2.88,-2.0,-0.08,-0.07,-0.41,0.06,0.12,0.0,196.02,209.0,0.0,0.0,0.0,0.0
1776358762919233443,7308,0.0,0.1,0.0,0.6,-0.04,-0.1,-0.0,-2.88,-2.0,0.0,0.11,-0.37,0.25,0.19,0.12,197.05,205.0,0.0,0.0,0.0,0.0
1776358763017481360,7409,0.0,0.4,0.008,0.4,-0.02,-0.16,-0.0,-2.88,-1.88,0.0,0.15,-0.38,-0.12,0.06,0.12,205.46,205.0,0.0,0.0,0.0,0.0
1776358763115773344,7508,0.0,0.5,0.0,0.9,0.02,-0.14,-0.0,-2.88,-1.88,0.01,0.11,-0.33,-0.75,-0.56,0.0,201.34,204.0,0.0,0.0,0.0,0.0
1776358763218214109,7608,0.052,0.4,0.0,0.8,-0.12,0.0,-0.0,-2.88,-1.94,0.03,0.14,-0.36,-0.94,-0.69,0.0,201.17,204.0,0.0,0.0,0.0,0.0
1776358763316443264,7708,0.052,0.1,0.0,0.2,-0.02,-0.08,-0.0,-2.88,-1.94,0.05,-0.19,-0.27,0.63,-0.88,0.0,226.89,210.0,0.0,0.0,0.0,0.0
1776358763418790777,7808,0.0,0.4,0.0,1.1,0.04,-0.08,-0.0,-2.75,-1.81,0.34,0.13,0.36,1.63,-1.75,-0.94,11931.77,205.0,0.0,0.0,0.0,0.0
1776358763519019486,7908,0.024,0.3,0.0,1.1,-0.06,-0.18,-0.19,-2.75,-1.44,0.06,0.55,1.63,4.06,2.88,-6.44,11930.57,210.0,0.0,0.0,0.0,0.0
1776358763617287694,8008,0.0,0.3,0.0,0.7,-0.08,-0.14,-1.25,-2.69,-1.25,-0.62,0.18,2.15,-2.81,-7.0,-16.87,11932.97,210.0,0.0,0.0,0.0,0.0
1776358763719734421,8108,0.016,0.3,0.0,0.9,0.02,-0.06,-2.81,-1.94,-1.94,-0.7,0.32,2.35,-8.25,-7.81,-14.75,11932.28,276.0,0.0,0.0,0.0,0.0
1776358763818027535,8208,0.012,0.3,0.0,0.5,-0.08,-0.08,-4.0,-1.31,-2.5,-0.84,0.12,1.24,-2.56,-0.94,-10.56,11930.57,412.0,0.0,0.0,0.0,0.0
1776358763918491245,8308,0.0,0.5,0.0,1.1,-0.08,-0.18,-4.69,-1.5,-2.0,-1.3,-0.44,0.75,7.25,4.63,-4.19,493.75,412.0,0.0,0.0,0.0,0.0
1776358764018705153,8409,0.0,0.8,0.0,0.7,-0.08,-0.16,-4.69,-1.63,-0.94,-0.45,-0.52,-0.05,12.19,-3.5,3.13,11933.66,547.0,0.0,0.0,0.0,0.0
1776358764121095680,8509,0.004,0.1,0.004,0.5,0.0,-0.08,-4.38,-1.0,0.56,0.3,0.08,-0.42,18.81,-6.38,3.13,11931.08,703.0,0.0,0.0,0.0,0.0
1776358764217462812,8609,0.0,0.1,0.0,1.0,-0.23,-0.14,-4.19,-0.63,2.44,0.2,0.23,-0.87,21.5,3.13,0.12,837.09,703.0,0.0,0.0,0.0,0.0
1776358764319876375,8709,0.04,0.2,0.0,1.4,-0.02,-0.18,-4.19,-1.63,3.94,-0.18,0.34,-1.39,8.81,18.12,0.81,889.23,703.0,0.0,0.0,0.0,0.0
1776358764418114833,8809,0.0,0.7,0.0,0.7,0.06,-0.21,-3.5,-4.25,4.13,0.02,0.18,-2.23,-2.94,32.13,11.94,1041.18,1208.0,0.0,0.0,0.0,0.0
1776358764516424916,8908,0.0,0.4,0.0,0.9,0.04,-0.1,-1.44,-7.38,3.75,0.05,-0.69,-2.55,-8.06,30.75,25.37,1040.15,2476.0,0.0,0.0,0.0,0.0
1776358764618841053,9008,0.008,0.4,0.0,0.9,-0.06,-0.21,1.25,-8.69,3.25,0.69,-0.82,-2.5,-9.69,3.63,25.0,1062.79,2476.0,0.0,0.0,0.0,0.0
1776358764717126934,9108,0.0,0.6,0.008,0.4,0.0,-0.2,3.31,-8.25,2.19,0.57,-0.29,-2.35,-9.19,-16.12,16.69,1121.61,1111.0,0.0,0.0,0.0,0.0
1776358764815400964,9207,0.0,0.6,0.0,0.8,-0.06,-0.16,4.19,-6.5,1.63,0.34,0.23,-1.21,-4.19,-25.37,2.69,1109.09,556.0,0.0,0.0,0.0,0.0
1776358764917812175,9308,0.004,0.3,0.0,1.2,0.12,-0.14,3.5,-4.0,1.5,0.47,0.77,-0.03,1.81,-24.69,-17.0,1126.93,556.0,0.0,0.0,0.0,0.0
1776358765018030554,9408,0.0,0.3,0.0,0.9,-0.08,-0.1,1.56,-1.94,1.63,0.39,0.44,-0.29,4.31,-13.38,-18.25,11934.34,2174.0,0.0,0.0,0.0,0.0
1776358765126404283,9508,0.0,-0.1,0.0,0.7,-0.12,0.06,-0.25,-0.69,1.63,0.15,-0.0,-0.56,3.88,-4.5,-16.25,11936.06,3052.0,0.0,0.0,0.0,0.0
1776358765216761366,9608,0.0,0.1,0.052,0.5,-0.08,-0.16,-1.5,-0.44,1.81,0.39,-0.03,-0.55,2.69,-2.63,-9.31,1149.22,3052.0,0.0,0.0,0.0,0.0
1776358765319208862,9709,0.052,0.4,0.048,0.3,0.04,-0.1,-1.94,-0.5,1.88,0.24,0.06,-0.4,1.94,2.75,0.94,1152.82,207.0,0.0,0.0,0.0,0.0
1776358765417442894,9808,0.0,0.3,0.0,1.2,-0.18,-0.2,-1.63,-0.75,1.81,-0.34,-0.0,-0.76,-2.63,1.81,5.88,1174.6,70.0,0.0,0.0,0.0,0.0
1776358765519875817,9909,0.0,0.2,0.0,1.0,-0.14,-0.06,-0.81,-1.0,1.44,-0.36,0.24,-0.39,-9.13,7.69,9.94,1149.39,70.0,0.0,0.0,0.0,0.0
1776358766175228848,10010,0.0,0.0,0.0,0.9,0.02,-0.02,0.19,-1.56,0.94,-0.43,0.2,-0.28,-10.31,6.38,9.0,1172.37,70.0,0.0,0.0,0.0,0.0
1776358766220210999,10109,0.008,0.2,0.0,1.0,-0.02,-0.23,1.0,-1.75,0.44,0.02,0.31,-0.21,-7.81,5.44,9.94,1266.53,70.0,0.0,0.0,0.0,0.0
1776358766233723439,10210,0.008,0.2,0.004,0.3,-0.02,-0.12,2.25,-2.19,0.0,0.13,0.02,-0.49,0.12,1.0,13.44,1255.21,70.0,0.0,0.0,0.0,0.0
1776358766246281240,10309,0.008,0.8,0.0,0.8,-0.02,-0.18,3.5,-2.0,0.37,0.31,0.02,-0.35,8.81,-4.81,12.69,1175.63,70.0,0.0,0.0,0.0,0.0
1776358766310307163,10409,0.0,0.1,0.0,1.3,-0.02,-0.12,4.63,-1.56,1.19,0.02,0.07,-0.18,9.38,-0.37,11.88,1169.46,70.0,0.0,0.0,0.0,0.0
1776358766318598104,10510,0.0,0.4,0.0,1.0,0.04,-0.1,5.81,-1.81,2.0,-0.43,-0.38,-0.61,6.69,4.63,11.56,1146.13,70.0,0.0,0.0,0.0,0.0
1776358766326836178,10609,0.052,0.4,0.0,0.8,0.08,-0.1,6.44,-2.69,3.25,-0.55,-0.48,-0.83,4.75,4.06,1.44,1174.09,70.0,0.0,0.0,0.0,0.0
1776358766331081465,10708,0.0,0.3,0.0,0.5,0.0,-0.18,5.94,-3.75,4.38,-0.31,-0.29,-0.61,2.88,3.25,-9.69,11932.28,235.0,0.0,0.0,0.0,0.0
1776358766416722911,10808,0.0,0.3,0.024,0.3,0.0,-0.14,4.63,-4.06,4.69,-0.19,-0.14,-0.53,0.94,-2.19,-14.81,1165.86,235.0,0.0,0.0,0.0,0.0
1776358766519179723,10908,0.024,0.3,0.0,0.2,0.14,-0.2,3.25,-3.88,4.75,-0.27,-0.06,-0.42,-0.25,-4.81,-12.13,1193.64,235.0,0.0,0.0,0.0,0.0
1776358766627534952,11009,0.0,0.9,0.02,0.7,-0.06,-0.16,2.31,-3.56,4.88,-0.04,-0.3,-0.33,-0.31,-5.56,-8.81,1129.67,134.0,0.0,0.0,0.0,0.0
1776358766719873631,11109,0.0,1.0,0.008,0.3,-0.06,-0.2,1.63,-3.19,4.69,0.29,-0.36,-0.14,-2.31,-5.13,-4.5,1149.91,80.0,0.0,0.0,0.0,0.0
1776358766818165946,11208,0.0,0.5,0.008,0.1,0.02,-0.06,0.81,-2.69,4.19,0.19,0.1,-0.25,-4.69,-8.5,-13.75,1177.35,80.0,0.0,0.0,0.0,0.0
1776358766920550355,11309,0.0,0.3,0.0,0.7,-0.14,-0.14,-1.12,-2.13,3.56,0.76,0.51,-0.34,-4.81,-4.31,-22.75,1222.45,74.0,0.0,0.0,0.0,0.0
1776358767127216315,11410,0.004,0.2,0.0,1.0,0.1,-0.16,-3.25,-1.75,2.25,0.67,0.52,-0.41,-2.94,4.25,-19.94,11932.45,70.0,0.0,0.0,0.0,0.0
1776358767140090348,11510,0.0,0.3,0.0,0.1,-0.04,-0.2,-4.81,-1.37,1.12,0.37,0.29,-0.48,-3.25,0.44,-12.0,11931.6,70.0,0.0,0.0,0.0,0.0
1776358767219496540,11610,0.056,0.9,0.0,0.8,0.02,-0.2,-5.25,-1.06,0.63,-0.11,0.24,-0.42,-4.25,-5.31,0.31,214.38,70.0,0.0,0.0,0.0,0.0
1776358767321949309,11710,0.052,0.1,0.0,0.9,-0.04,-0.12,-4.81,-0.25,0.12,-0.04,0.12,-0.43,-6.81,-8.56,7.38,1238.4,70.0,0.0,0.0,0.0,0.0
1776358767426246457,11809,0.028,0.1,0.0,0.3,0.06,-0.25,-3.94,0.37,-0.44,-0.17,0.24,-0.53,-7.13,-4.13,12.13,11930.91,70.0,0.0,0.0,0.0,0.0
1776358767520577086,11909,0.0,0.4,0.0,1.3,-0.02,-0.29,-2.69,0.63,-0.75,-0.35,0.29,-0.57,-4.5,5.13,13.0,11933.14,70.0,0.0,0.0,0.0,0.0
1776358767620911604,12009,0.02,0.2,0.0,1.0,0.12,-0.2,-1.31,0.06,-0.81,-0.37,0.22,-0.22,-4.44,10.94,16.44,259.82,70.0,0.0,0.0,0.0,0.0
1776358767721118203,12108,0.0,0.7,0.0,0.5,-0.04,-0.12,0.19,-0.75,-1.12,-0.07,0.21,-0.07,-5.63,8.44,14.56,11931.6,70.0,0.0,0.0,0.0,0.0
1776358767829693536,12208,0.0,0.1,0.0,0.1,0.1,-0.16,1.37,-1.31,-1.63,0.03,0.15,-0.03,-4.94,3.75,8.31,11934.51,70.0,0.0,0.0,0.0,0.0
1776358767921803218,12308,0.008,0.2,0.0,1.0,0.0,-0.2,1.88,-1.5,-1.94,0.13,-0.03,-0.15,-1.06,-0.19,4.06,11933.48,70.0,0.0,0.0,0.0,0.0
1776358768020204659,12408,0.0,0.1,0.0,1.1,0.12,-0.08,2.25,-1.5,-2.13,0.31,-0.09,-0.28,1.69,-0.75,4.13,11934.86,70.0,0.0,0.0,0.0,0.0
1776358768231219691,12509,0.004,0.1,0.0,1.0,0.0,-0.1,2.5,-1.69,-2.0,0.44,-0.19,-0.63,6.0,2.25,0.69,11933.48,70.0,0.0,0.0,0.0,0.0
1776358768243956431,12609,0.0,0.0,0.0,1.0,-0.02,-0.06,2.44,-2.5,-1.75,0.22,-0.5,-0.8,9.56,5.81,-0.44,11936.4,70.0,0.0,0.0,0.0,0.0
1776358768321279091,12709,0.048,0.3,0.0,1.2,-0.12,-0.18,2.31,-3.31,-1.06,-0.04,-0.37,-0.64,6.5,4.19,-2.0,11934.86,70.0,0.0,0.0,0.0,0.0
1776358768425507641,12809,0.028,0.5,0.0,0.3,-0.14,-0.08,2.0,-3.63,-0.63,-0.47,-0.04,-0.66,0.44,1.06,-2.81,11934.17,70.0,0.0,0.0,0.0,0.0
1776358768523912907,12909,0.0,0.2,0.02,0.2,-0.16,-0.04,1.94,-3.94,-0.37,-0.29,-0.15,-0.41,-2.0,2.81,0.5,11932.97,70.0,0.0,0.0,0.0,0.0
1776358768622209384,13009,0.0,1.0,0.0,0.3,0.06,-0.2,2.19,-4.56,-0.12,-0.37,-0.34,-0.4,-1.31,3.25,2.63,11934.86,70.0,0.0,0.0,0.0,0.0
1776358768730643115,13109,0.0,0.4,0.0,0.2,0.04,-0.06,2.13,-5.19,0.12,-0.24,-0.21,-0.42,1.88,0.56,-3.69,11932.28,70.0,0.0,0.0,0.0,0.0
1776358768828917853,13209,0.012,0.2,0.0,0.8,0.12,-0.02,1.06,-5.25,0.44,0.12,-0.15,-0.23,3.94,-0.56,-14.38,11933.14,70.0,0.0,0.0,0.0,0.0
1776358768923327091,13309,0.004,0.1,0.0,0.8,-0.04,-0.06,0.06,-5.5,0.5,0.19,0.16,-0.1,1.31,3.44,-8.13,1196.9,70.0,0.0,0.0,0.0,0.0
1776358769029665427,13410,0.0,1.0,0.0,0.3,0.02,-0.06,-0.88,-5.63,0.25,0.28,0.21,-0.38,-1.25,3.06,-10.25,11933.14,70.0,0.0,0.0,0.0,0.0
1776358769119873860,13510,0.004,0.1,0.0,1.0,-0.02,-0.08,-1.69,-5.69,-0.12,0.3,0.11,-0.53,-1.31,-0.06,-7.13,1254.18,70.0,0.0,0.0,0.0,0.0
1776358769230423973,13609,0.056,0.1,0.0,1.1,-0.1,-0.06,-2.38,-5.31,-0.63,0.51,0.12,-0.36,-1.75,-5.81,-5.63,11934.86,70.0,0.0,0.0,0.0,0.0
1776358769320634609,13709,0.0,0.1,0.0,0.8,-0.14,-0.14,-2.69,-4.56,-1.06,0.05,0.47,-0.53,-2.75,-6.69,-1.69,11932.63,70.0,0.0,0.0,0.0,0.0
1776358769519197788,13809,0.04,0.2,0.0,0.8,0.02,-0.14,-2.69,-3.56,-1.37,-0.14,0.33,-0.44,-3.13,-5.38,1.69,11934.68,70.0,0.0,0.0,0.0,0.0
1776358769531701145,13910,0.02,0.4,0.012,0.2,-0.04,-0.31,-2.63,-2.75,-1.56,-0.19,0.18,-0.6,-3.13,-5.63,-1.25,11933.66,70.0,0.0,0.0,0.0,0.0
1776358769631726653,14010,0.0,1.1,0.012,0.3,-0.08,-0.14,-2.81,-2.25,-1.75,-0.31,0.25,-0.45,-2.94,-3.13,-1.0,11932.28,70.0,0.0,0.0,0.0,0.0
1776358769729974379,14110,0.008,0.4,0.0,1.0,-0.04,-0.12,-2.56,-2.0,-1.69,-0.43,0.19,-0.37,-2.25,0.12,7.06,11935.03,70.0,0.0,0.0,0.0,0.0
1776358769832396519,14211,0.008,0.1,0.0,1.0,0.06,-0.12,-1.63,-1.94,-1.37,-0.57,0.09,-0.35,-2.31,1.63,8.19,11934.68,70.0,0.0,0.0,0.0,0.0
1776358769924690289,14311,0.012,0.3,0.0,1.2,0.0,-0.16,-0.88,-2.06,-1.44,0.1,0.26,-0.19,-4.0,1.75,9.38,11935.03,70.0,0.0,0.0,0.0,0.0
1776358770033166438,14411,0.008,1.0,0.0,0.8,-0.02,-0.1,-0.0,-2.38,-1.88,0.33,0.04,-0.09,-5.31,5.81,8.81,11934.68,70.0,0.0,0.0,0.0,0.0
1776358770125350773,14512,0.004,0.0,0.0,0.9,0.0,-0.12,0.69,-3.0,-2.56,0.33,-0.21,-0.29,-3.06,6.5,5.13,11935.37,70.0,0.0,0.0,0.0,0.0
1776358770233787276,14612,0.06,0.2,0.06,0.3,0.02,-0.06,1.25,-3.75,-3.0,0.34,-0.22,-0.5,1.25,1.63,3.44,11936.06,70.0,0.0,0.0,0.0,0.0
1776358770324097478,14712,0.052,0.2,0.036,0.2,0.02,-0.16,1.44,-4.06,-3.06,0.36,-0.29,-0.52,5.19,-0.12,1.88,11933.83,70.0,0.0,0.0,0.0,0.0
1776358770426410281,14812,0.0,1.2,0.032,0.9,0.2,-0.08,1.63,-4.44,-2.94,0.22,-0.33,-0.53,4.63,-0.0,4.06,11932.28,70.0,0.0,0.0,0.0,0.0
1776358770532620709,14912,0.024,0.3,0.0,0.8,0.06,-0.08,2.06,-4.63,-2.69,-0.17,-0.11,-0.42,1.75,1.0,5.25,11931.43,70.0,0.0,0.0,0.0,0.0
1776358770635131778,15012,0.0,0.4,0.012,1.0,0.02,-0.06,2.5,-4.94,-2.5,-0.42,-0.0,-0.51,-0.88,3.38,3.31,11931.94,70.0,0.0,0.0,0.0,0.0
1776358770733421870,15112,0.0,0.3,0.0,0.9,-0.06,-0.08,2.5,-5.19,-2.38,-0.37,-0.03,-0.51,-2.31,1.75,-3.19,11932.63,70.0,0.0,0.0,0.0,0.0
1776358770825789120,15212,0.008,0.2,0.004,0.2,0.06,-0.1,2.06,-5.31,-2.31,-0.36,-0.1,-0.48,-2.81,-1.12,-4.94,11933.66,70.0,0.0,0.0,0.0,0.0
1776358770934000302,15312,0.0,0.3,0.0,0.0,-0.02,0.08,1.63,-5.31,-2.31,-0.26,-0.27,-0.36,-0.94,-2.5,-5.88,11934.0,70.0,0.0,0.0,0.0,0.0
1776358771135215429,15412,0.004,0.0,0.0,0.9,0.06,-0.06,0.88,-5.19,-2.06,-0.37,-0.04,-0.03,3.0,-4.44,-10.31,11933.14,70.0,0.0,0.0,0.0,0.0
1776358771147828095,15512,0.004,0.8,0.004,0.6,-0.02,-0.08,-0.25,-5.13,-1.56,0.05,-0.16,-0.03,4.06,3.06,-8.63,11934.68,70.0,0.0,0.0,0.0,0.0
1776358771233081054,15611,0.0,0.6,0.0,0.5,0.04,-0.1,-0.94,-5.56,-1.31,0.62,0.17,-0.33,5.31,4.06,-9.88,11935.03,70.0,0.0,0.0,0.0,0.0
1776358771323331086,15711,0.04,0.1,0.0,0.1,-0.02,-0.14,-2.44,-5.63,-1.63,0.52,0.32,-0.44,7.69,4.31,-16.87,11935.2,70.0,0.0,0.0,0.0,0.0
1776358771425696256,15811,0.0,0.6,0.0,0.3,-0.02,-0.08,-4.19,-5.44,-1.63,0.38,0.47,-0.28,7.5,3.0,-15.88,11936.4,70.0,0.0,0.0,0.0,0.0
1776358771531883231,15910,0.0,1.0,0.0,0.9,-0.08,-0.08,-5.06,-5.38,-1.37,0.0,0.27,-0.32,5.0,3.88,-3.31,11936.4,70.0,0.0,0.0,0.0,0.0
1776358771624413450,16010,0.016,0.1,0.012,0.7,-0.12,-0.23,-5.19,-5.38,-1.0,-0.16,0.25,-0.55,2.5,-3.5,-0.75,11936.23,70.0,0.0,0.0,0.0,0.0
1776358771732742583,16110,0.0,0.6,0.008,1.0,-0.12,-0.16,-5.06,-4.56,-0.75,-0.11,0.1,-0.63,1.25,-11.19,2.25,11937.94,70.0,0.0,0.0,0.0,0.0
1776358771825020706,16210,0.004,0.1,0.0,1.2,-0.08,0.0,-4.81,-3.25,-0.75,-0.28,0.18,-0.53,-1.94,-14.13,4.25,11936.57,75.0,0.0,0.0,0.0,0.0
1776358771925393228,16310,0.008,0.0,0.004,0.3,-0.04,-0.1,-4.38,-2.13,-0.81,-0.34,0.17,-0.57,-5.13,-6.19,6.19,11934.86,75.0,0.0,0.0,0.0,0.0
1776358772031710525,16410,0.004,0.1,0.0,0.8,-0.16,-0.14,-3.63,-1.75,-0.88,-0.53,0.11,-0.53,-6.63,5.63,9.25,11934.68,70.0,0.0,0.0,0.0,0.0
1776358772275221229,16509,0.004,0.6,0.0,1.2,-0.06,-0.16,-2.63,-2.5,-0.88,-0.31,-0.0,-0.63,-7.25,11.69,11.94,11934.51,70.0,0.0,0.0,0.0,0.0
1776358772314499006,16609,0.06,0.1,0.0,0.5,-0.02,-0.2,-1.37,-3.38,-1.25,-0.23,-0.01,-0.32,-8.69,9.5,12.81,11934.51,70.0,0.0,0.0,0.0,0.0
1776358772322651716,16709,0.056,0.1,0.0,1.0,0.06,-0.06,-0.37,-4.13,-2.0,0.35,-0.0,-0.08,-8.44,4.56,7.25,11937.09,70.0,0.0,0.0,0.0,0.0
1776358772420891397,16809,0.036,0.3,0.0,1.2,-0.06,-0.02,0.44,-4.5,-2.69,0.34,-0.03,-0.02,-5.13,4.56,10.69,11938.63,70.0,0.0,0.0,0.0,0.0
1776358772531269351,16909,0.032,0.3,0.0,0.5,0.0,-0.06,1.31,-4.94,-2.94,0.04,-0.07,0.02,-0.31,4.06,5.63,11936.57,70.0,0.0,0.0,0.0,0.0
1776358772633785488,17009,0.016,0.4,0.0,1.2,0.0,-0.18,1.63,-5.44,-3.0,0.33,-0.13,-0.28,1.0,3.31,2.38,11935.37,70.0,0.0,0.0,0.0,0.0
1776358772724055042,17110,0.0,0.6,0.0,0.9,-0.02,-0.08,1.88,-5.81,-3.13,0.3,-0.12,-0.37,2.75,1.69,4.88,1229.83,70.0,0.0,0.0,0.0,0.0
1776358772834436978,17211,0.004,0.2,0.0,0.9,-0.06,-0.1,2.75,-6.44,-3.19,0.32,-0.39,-0.51,3.13,2.56,12.44,11934.51,70.0,0.0,0.0,0.0,0.0
1776358772926725682,17311,0.0,0.0,0.0,0.9,0.04,-0.08,3.75,-7.06,-3.0,-0.05,-0.31,-0.65,2.56,0.69,5.94,11935.03,70.0,0.0,0.0,0.0,0.0
1776358773027112050,17411,0.0,0.2,0.0,1.1,-0.14,-0.1,3.94,-7.19,-2.75,-0.12,-0.14,-0.72,1.0,-1.63,-0.31,1192.27,70.0,0.0,0.0,0.0,0.0
1776358773155223534,17512,0.004,-0.2,0.0,0.2,-0.04,-0.1,3.69,-6.94,-2.75,-0.15,-0.01,-0.58,-0.5,-3.56,-4.38,1157.28,70.0,0.0,0.0,0.0,0.0
1776358773227816039,17612,0.0,0.5,0.048,0.6,0.02,-0.08,3.06,-6.63,-2.69,-0.43,0.01,-0.72,-0.31,-4.0,-8.25,1230.34,70.0,0.0,0.0,0.0,0.0
1776358773326059438,17713,0.036,0.1,0.0,0.5,-0.06,-0.23,2.06,-6.19,-2.31,-0.52,-0.15,-0.59,2.38,-7.06,-12.5,11936.57,70.0,0.0,0.0,0.0,0.0
1776358773434475793,17813,0.0,0.2,0.0,0.2,0.0,-0.06,0.75,-5.63,-1.75,-0.43,-0.36,-0.26,4.19,-8.81,-14.56,11935.03,70.0,0.0,0.0,0.0,0.0
1776358773529015884,17913,0.0,0.4,0.0,0.8,0.04,-0.12,-0.44,-4.94,-1.0,-0.08,-0.16,-0.2,5.06,-8.81,-8.19,11934.68,70.0,0.0,0.0,0.0,0.0
1776358773629183962,18013,0.0,0.5,0.008,0.5,0.04,-0.06,-1.0,-4.5,-0.63,0.12,0.24,-0.22,3.63,-1.25,-6.31,11938.29,70.0,0.0,0.0,0.0,0.0
1776358773729503032,18113,0.016,0.3,0.0,0.8,0.06,-0.02,-2.19,-4.69,-0.56,0.41,0.44,-0.08,2.94,7.19,-17.0,11937.94,70.0,0.0,0.0,0.0,0.0
1776358773829882970,18213,0.0,0.2,0.0,0.3,0.14,-0.1,-3.88,-5.06,-0.94,0.39,0.41,-0.01,1.63,9.94,-16.12,1172.03,70.0,0.0,0.0,0.0,0.0
1776358773928180237,18313,0.0,0.4,0.0,0.3,0.1,-0.18,-5.44,-5.19,-1.37,0.4,0.3,-0.33,2.5,2.88,-15.38,1171.34,70.0,0.0,0.0,0.0,0.0
1776358774038602206,18414,0.008,0.3,0.0,0.9,0.1,-0.12,-6.5,-5.0,-1.44,0.27,0.19,-0.53,4.56,-0.94,-5.56,11934.34,70.0,0.0,0.0,0.0,0.0
1776358774131014256,18514,0.0,0.3,0.0,1.3,0.0,-0.33,-6.31,-4.63,-1.12,-0.06,0.18,-0.49,3.13,-4.88,7.44,11937.6,70.0,0.0,0.0,0.0,0.0
1776358774239278222,18614,0.052,0.3,0.0,0.9,0.16,-0.1,-5.44,-3.94,-0.81,-0.33,0.28,-0.75,-0.44,-5.44,9.5,11934.0,70.0,0.0,0.0,0.0,0.0
1776358774329515269,18714,0.048,0.4,0.0,1.2,-0.08,-0.18,-4.38,-3.44,-0.5,-0.54,-0.0,-0.86,-5.0,-0.81,11.56,11934.0,70.0,0.0,0.0,0.0,0.0
1776358774427805083,18814,0.024,0.1,0.0,0.3,0.02,-0.29,-3.13,-3.5,-0.5,-0.66,-0.07,-0.55,-7.25,1.63,13.69,11933.66,70.0,0.0,0.0,0.0,0.0
1776358774538415672,18914,0.0,0.7,0.016,1.0,-0.06,-0.2,-1.44,-3.75,-0.44,-0.54,0.16,-0.2,-6.81,1.75,19.19,11936.57,70.0,0.0,0.0,0.0,0.0
1776358774628534855,19014,0.0,0.4,0.0,1.0,-0.06,-0.2,0.5,-3.94,-0.63,-0.09,0.32,-0.06,-4.5,5.31,19.44,1195.18,70.0,0.0,0.0,0.0,0.0
1776358774730926224,19115,0.016,0.6,0.0,0.7,0.06,-0.14,2.0,-4.5,-0.75,0.64,0.15,0.03,-1.5,5.19,10.56,1186.27,70.0,0.0,0.0,0.0,0.0
1776358774955222990,19215,0.012,0.2,0.0,0.2,-0.02,0.0,2.69,-4.81,-0.94,0.38,-0.06,-0.49,0.69,3.5,6.69,11937.6,70.0,0.0,0.0,0.0,0.0
1776358775021713787,19315,0.0,0.5,0.0,0.9,0.02,-0.2,3.31,-4.94,-1.0,0.49,-0.13,-0.35,1.19,-2.13,6.56,11935.37,70.0,0.0,0.0,0.0,0.0
1776358775034466862,19415,0.0,0.9,0.0,0.6,0.0,-0.14,4.13,-4.75,-1.37,0.51,-0.29,-0.25,-1.31,-4.06,9.5,11936.4,70.0,0.0,0.0,0.0,0.0
1776358775128148528,19515,0.0,0.0,0.0,1.0,-0.04,-0.16,5.19,-4.81,-2.25,0.21,-0.19,-0.53,-4.31,-8.81,10.31,1233.43,70.0,0.0,0.0,0.0,0.0
1776358775238706295,19614,0.064,0.0,0.0,0.7,0.04,-0.27,5.81,-4.19,-2.56,-0.04,0.07,-0.6,-2.5,-5.38,2.88,11936.57,70.0,0.0,0.0,0.0,0.0
1776358775328962810,19715,0.0,0.2,0.0,1.2,-0.1,-0.14,5.75,-4.06,-2.63,-0.26,0.01,-0.68,1.12,2.81,-4.75,11936.06,70.0,0.0,0.0,0.0,0.0
1776358775433207823,19815,0.032,0.2,0.0,0.2,0.1,-0.16,4.94,-4.69,-2.25,-0.2,-0.2,-0.66,3.81,5.75,-12.13,11936.74,70.0,0.0,0.0,0.0,0.0
1776358775541778221,19915,0.016,0.0,0.0,1.0,-0.02,-0.21,3.5,-5.25,-1.81,-0.38,-0.18,-0.53,3.5,0.37,-15.69,11937.09,70.0,0.0,0.0,0.0,0.0
1776358775633879797,20016,0.016,0.1,0.0,0.1,-0.12,-0.04,2.13,-5.25,-1.25,-0.47,-0.24,-0.4,0.88,-5.56,-11.94,11934.86,70.0,0.0,0.0,0.0,0.0
1776358775742342960,20116,0.0,0.7,0.0,0.2,0.04,-0.27,1.19,-4.94,-0.81,-0.35,-0.04,-0.11,-1.44,-6.31,-9.19,11936.57,70.0,0.0,0.0,0.0,0.0
1776358775834637322,20216,0.0,0.3,0.004,1.1,0.08,-0.08,0.19,-4.56,-0.88,0.42,0.05,-0.22,1.37,0.56,-10.31,11937.6,70.0,0.0,0.0,0.0,0.0
1776358775935037667,20317,0.0,0.6,0.0,0.2,-0.12,-0.35,-0.94,-4.88,-0.75,0.73,0.17,-0.02,5.13,6.0,-14.5,1246.12,70.0,0.0,0.0,0.0,0.0
1776358776143221000,20417,0.004,0.1,0.0,0.4,-0.1,-0.14,-2.56,-5.19,-1.25,0.48,0.26,-0.25,5.56,8.88,-15.94,11935.54,70.0,0.0,0.0,0.0,0.0
1776358776158230421,20517,0.004,0.2,0.0,0.9,-0.02,-0.06,-4.19,-5.5,-1.5,0.38,0.47,-0.33,5.25,4.25,-16.5,1174.6,70.0,0.0,0.0,0.0,0.0
1776358776236070730,20618,0.06,0.4,0.0,1.0,0.0,-0.2,-5.75,-5.31,-1.56,0.07,0.3,-0.46,2.13,1.19,-11.38,11933.14,70.0,0.0,0.0,0.0,0.0
1776358776336381820,20718,0.052,0.7,0.0,0.2,-0.04,-0.1,-6.31,-5.19,-1.63,-0.02,0.05,-0.46,-1.56,-1.19,0.0,11934.34,70.0,0.0,0.0,0.0,0.0
1776358776434676800,20818,0.0,0.2,0.0,1.3,0.02,-0.1,-6.06,-5.06,-1.81,-0.2,-0.01,-0.52,-3.0,-1.88,5.38,225.87,70.0,0.0,0.0,0.0,0.0
1776358776535007945,20918,0.028,0.1,0.024,0.2,-0.16,-0.23,-5.25,-5.0,-1.94,-0.36,0.06,-0.57,-3.19,0.69,11.88,11937.43,70.0,0.0,0.0,0.0,0.0
1776358776637404366,21018,0.012,-0.1,0.0,0.9,-0.08,-0.16,-4.06,-5.06,-1.69,-0.48,0.34,-0.57,-1.5,2.63,11.44,11935.89,70.0,0.0,0.0,0.0,0.0
1776358776735712585,21117,0.012,0.0,0.0,1.1,0.0,-0.21,-3.0,-4.94,-1.19,-0.25,0.44,-0.37,-0.44,2.69,11.25,11936.4,70.0,0.0,0.0,0.0,0.0
1776358776875242187,21217,0.008,0.2,0.0,1.0,0.08,-0.08,-1.75,-4.75,-0.94,-0.26,0.34,-0.15,-2.25,1.25,12.56,11937.26,70.0,0.0,0.0,0.0,0.0
1776358776934400781,21317,0.008,-0.1,0.0,0.3,-0.02,-0.16,-0.88,-4.5,-1.06,-0.1,-0.0,0.01,-4.94,-3.81,6.44,209.57,70.0,0.0,0.0,0.0,0.0
1776358777032667223,21416,0.0,0.3,0.0,0.9,-0.04,-0.2,0.06,-4.19,-1.63,-0.03,-0.2,-0.21,-7.5,-4.5,12.0,1272.19,70.0,0.0,0.0,0.0,0.0
1776358777135079956,21517,0.004,0.0,0.0,0.5,0.0,-0.21,1.31,-4.06,-2.25,0.3,-0.41,-0.49,-4.69,-4.19,12.44,1263.78,70.0,0.0,0.0,0.0,0.0
1776358777235372764,21617,0.0,1.0,0.048,0.8,-0.06,-0.12,2.25,-4.38,-3.13,0.59,-0.32,-0.47,1.06,-2.69,7.38,11937.94,70.0,0.0,0.0,0.0,0.0
1776358777335769846,21718,0.052,0.4,0.0,1.0,-0.02,-0.02,2.75,-4.56,-3.25,0.05,-0.05,-0.57,5.06,-0.31,3.06,11937.43,70.0,0.0,0.0,0.0,0.0
1776358777434071261,21818,0.032,0.5,0.024,0.3,-0.1,-0.12,3.19,-5.0,-2.63,-0.18,-0.21,-0.73,6.31,6.25,6.69,1202.56,70.0,0.0,0.0,0.0,0.0
1776358777532316771,21917,0.012,0.2,0.0,0.9,0.04,-0.04,3.56,-5.75,-1.88,-0.35,-0.29,-0.74,4.06,4.06,0.88,1126.07,70.0,0.0,0.0,0.0,0.0
1776358777642776019,22017,0.016,0.3,0.0,0.9,0.0,-0.14,3.25,-6.19,-1.25,-0.43,-0.12,-0.6,0.56,-1.94,-5.13,11935.71,70.0,0.0,0.0,0.0,0.0
1776358777733040919,22117,0.004,0.3,0.008,1.1,-0.02,0.0,2.69,-5.81,-1.0,-0.5,0.16,-0.52,-2.63,-5.88,-6.56,1172.72,70.0,0.0,0.0,0.0,0.0
1776358777831302354,22216,0.004,0.1,0.0,0.9,0.06,-0.18,2.06,-5.44,-1.06,-0.19,-0.03,-0.33,-1.56,-1.25,-7.13,1196.21,70.0,0.0,0.0,0.0,0.0
1776358777933728346,22316,0.0,0.4,0.0,0.9,-0.02,-0.12,1.56,-5.56,-0.94,-0.17,-0.35,-0.25,2.0,-1.37,-6.0,1198.1,70.0,0.0,0.0,0.0,0.0
1776358778055208308,22417,0.0,0.9,0.008,0.3,0.04,-0.14,0.88,-5.56,-0.69,-0.04,-0.22,-0.16,2.63,-0.31,-4.94,1239.26,70.0,0.0,0.0,0.0,0.0
1776358778136342123,22516,0.004,0.2,0.0,1.0,0.0,-0.2,0.5,-5.75,-0.5,0.03,0.11,-0.23,1.88,2.88,-5.94,11939.66,70.0,0.0,0.0,0.0,0.0
1776358778232723660,22616,0.0,1.2,0.044,0.5,0.0,-0.14,-0.63,-5.69,-0.56,0.39,0.48,-0.29,2.19,1.12,-16.19,1210.28,70.0,0.0,0.0,0.0,0.0
1776358778335069334,22716,0.0,0.5,0.0,0.9,-0.04,-0.16,-2.13,-5.31,-1.12,0.5,0.52,-0.39,2.88,3.56,-14.44,1163.97,70.0,0.0,0.0,0.0,0.0
1776358778433374753,22816,0.0,1.0,0.02,0.3,-0.06,-0.1,-3.56,-5.0,-1.63,0.38,0.35,-0.41,4.81,0.31,-13.75,1228.45,70.0,0.0,0.0,0.0,0.0
1776358778543753104,22916,0.0,0.7,0.0,0.8,-0.06,0.02,-4.56,-4.63,-1.5,0.09,0.29,-0.44,4.69,-3.31,-4.81,11938.29,70.0,0.0,0.0,0.0,0.0
1776358778636108831,23016,0.0,0.8,0.0,0.8,-0.04,0.0,-4.75,-3.88,-1.19,-0.28,0.27,-0.31,0.94,-9.0,0.25,11937.77,70.0,0.0,0.0,0.0,0.0
1776358778734359974,23116,0.012,0.1,0.0,0.4,-0.16,-0.04,-4.5,-2.94,-0.94,-0.45,0.27,-0.46,-3.13,-4.81,5.44,11936.91,70.0,0.0,0.0,0.0,0.0
1776358778836877140,23216,0.004,0.2,0.0,1.2,0.0,-0.16,-3.63,-2.69,-0.81,-0.51,0.14,-0.51,-6.06,2.25,11.44,11938.29,70.0,0.0,0.0,0.0,0.0
1776358778967237606,23316,0.0,0.4,0.0,0.0,-0.14,-0.12,-2.44,-3.06,-0.56,-0.63,0.12,-0.52,-5.94,6.44,11.0,11937.09,70.0,0.0,0.0,0.0,0.0
1776358779037464972,23416,0.0,0.7,0.0,1.1,-0.06,-0.12,-1.63,-3.81,-0.5,-0.1,0.06,-0.23,-2.88,8.31,5.94,11937.43,70.0,0.0,0.0,0.0,0.0
1776358779133761231,23516,0.0,0.9,0.0,0.7,-0.1,-0.06,-1.31,-4.44,-0.75,0.12,0.13,-0.04,-2.25,5.38,2.31,218.15,70.0,0.0,0.0,0.0,0.0
1776358779242126961,23616,0.0,0.1,0.0,0.8,0.12,-0.12,-0.88,-4.81,-1.0,-0.13,-0.09,-0.26,-3.19,3.19,6.75,1235.31,70.0,0.0,0.0,0.0,0.0
1776358779334434586,23715,0.04,0.4,0.0,0.2,-0.1,-0.16,-0.06,-5.06,-1.31,0.1,-0.36,-0.26,-4.44,-0.94,8.88,218.15,70.0,0.0,0.0,0.0,0.0
1776358779434698868,23815,0.036,0.4,0.0,0.6,0.0,-0.23,0.94,-5.0,-1.81,0.23,-0.31,-0.47,-3.0,-4.5,10.94,11938.63,70.0,0.0,0.0,0.0,0.0
1776358779543121818,23915,0.0,0.3,0.0,0.3,0.06,-0.1,1.88,-5.13,-2.31,0.43,-0.36,-0.68,1.63,-2.38,8.19,11936.91,70.0,0.0,0.0,0.0,0.0
1776358779641482252,24015,0.016,0.4,0.0,0.5,0.1,-0.14,2.5,-5.56,-2.31,0.18,-0.26,-0.67,5.44,-0.37,4.94,11939.83,70.0,0.0,0.0,0.0,0.0
1776358779733771027,24115,0.0,0.4,0.0,1.1,0.12,-0.12,2.63,-5.88,-1.88,-0.12,-0.08,-0.57,3.31,5.31,-0.81,11940.17,70.0,0.0,0.0,0.0,0.0
1776358779834126491,24215,0.0,0.6,0.012,0.4,-0.12,-0.02,2.31,-6.44,-1.69,-0.27,-0.0,-0.52,-1.19,3.13,-5.19,1223.82,70.0,0.0,0.0,0.0,0.0
1776358779991223678,24314,0.0,0.0,0.0,0.8,0.08,-0.1,1.75,-6.5,-1.69,-0.7,0.01,-0.63,-4.88,-3.69,-6.0,1225.02,70.0,0.0,0.0,0.0,0.0
1776358780042825731,24415,0.004,0.2,0.0,0.8,0.08,-0.14,1.25,-5.88,-1.69,-0.04,-0.17,-0.46,-4.19,-9.44,-7.19,11940.52,70.0,0.0,0.0,0.0,0.0
1776358780133122215,24515,0.0,0.6,0.0,1.2,-0.12,-0.08,0.69,-5.06,-1.94,0.11,-0.28,-0.37,1.88,-7.81,-7.44,1206.5,70.0,0.0,0.0,0.0,0.0
1776358780233430011,24614,0.0,0.7,0.052,0.9,0.02,-0.08,-0.12,-4.63,-1.75,0.39,-0.2,0.11,5.81,-3.75,-7.31,11937.77,70.0,0.0,0.0,0.0,0.0
1776358780333766251,24714,0.044,0.3,0.0,1.0,-0.12,-0.06,-0.88,-4.5,-1.44,-0.16,0.29,-0.15,2.63,0.69,-9.88,11938.12,70.0,0.0,0.0,0.0,0.0
1776358780432093809,24814,0.0,0.5,0.0,0.9,-0.04,-0.14,-2.19,-4.63,-1.44,0.35,0.43,-0.37,-0.0,4.31,-15.0,1169.97,70.0,0.0,0.0,0.0,0.0
1776358780532291888,24913,0.016,0.1,0.02,0.9,-0.02,-0.18,-3.38,-4.81,-2.0,0.48,0.34,-0.65,0.19,5.25,-9.19,11939.49,70.0,0.0,0.0,0.0,0.0
1776358780640768364,25013,0.0,0.7,0.0,0.9,-0.18,0.04,-4.19,-4.88,-2.31,0.21,0.23,-0.55,2.81,1.25,-6.75,11935.54,70.0,0.0,0.0,0.0,0.0
1776358780733183266,25113,0.0,0.5,0.0,1.3,0.04,-0.14,-4.5,-4.63,-2.13,0.01,0.21,-0.4,3.5,-3.81,-0.06,11938.63,70.0,0.0,0.0,0.0,0.0
1776358780833485062,25213,0.0,0.3,0.0,0.9,-0.02,-0.18,-4.38,-4.06,-1.81,-0.03,0.37,-0.13,2.69,-5.13,2.69,1198.44,70.0,0.0,0.0,0.0,0.0
1776358780935867666,25314,0.004,0.2,0.0,0.8,-0.16,-0.23,-3.88,-3.5,-1.5,-0.35,0.37,-0.44,-0.37,-1.19,7.5,1268.59,70.0,0.0,0.0,0.0,0.0
1776358781036233265,25415,0.0,0.4,0.0,0.6,-0.1,-0.14,-2.88,-3.56,-1.12,-0.44,0.14,-0.48,-3.0,5.81,12.69,11938.8,70.0,0.0,0.0,0.0,0.0
1776358781144587103,25516,0.0,0.3,0.0,0.5,-0.04,-0.21,-1.31,-4.31,-1.06,-0.54,0.09,-0.58,-3.56,9.19,17.06,11940.34,70.0,0.0,0.0,0.0,0.0
1776358781236957337,25616,0.0,1.0,0.052,0.5,-0.06,-0.21,0.12,-4.94,-0.75,-0.24,0.33,-0.32,-1.37,6.94,12.5,11940.86,70.0,0.0,0.0,0.0,0.0
1776358781337259070,25716,0.0,0.4,0.0,1.0,0.02,-0.18,0.81,-5.25,-0.81,0.12,0.33,0.04,-2.13,1.88,2.5,11941.54,70.0,0.0,0.0,0.0,0.0
1776358781435507880,25817,0.0,0.8,0.036,0.7,0.0,-0.2,1.12,-5.38,-1.12,0.03,0.06,-0.18,-3.38,2.44,6.13,1179.23,70.0,0.0,0.0,0.0,0.0
1776358781537929496,25917,0.024,0.1,0.0,0.6,0.0,-0.12,2.0,-5.5,-1.56,0.48,-0.43,-0.36,-4.31,-1.63,11.38,1193.81,70.0,0.0,0.0,0.0,0.0
1776358781644170357,26016,0.016,0.1,0.0,1.0,0.0,-0.16,3.06,-6.31,-2.63,0.3,-0.49,-0.51,-2.88,-1.06,9.88,11940.0,70.0,0.0,0.0,0.0,0.0
1776358781734560833,26116,0.012,0.3,0.0,0.6,-0.02,-0.1,3.63,-6.56,-2.81,0.23,-0.21,-0.68,2.06,1.19,2.5,1187.29,70.0,0.0,0.0,0.0,0.0
1776358781844961483,26216,0.0,0.7,0.0,0.8,-0.02,-0.08,3.69,-7.06,-2.5,-0.17,-0.15,-0.65,4.38,5.75,0.88,11940.34,70.0,0.0,0.0,0.0,0.0
1776358781937233998,26316,0.0,0.3,0.0,1.2,0.02,-0.12,3.75,-7.63,-2.0,-0.29,-0.15,-0.6,2.81,1.94,1.56,11937.09,70.0,0.0,0.0,0.0,0.0
1776358782045670280,26416,0.0,0.1,0.0,1.2,0.04,-0.25,3.81,-7.81,-1.56,-0.26,-0.07,-0.43,-0.56,-3.5,-4.13,11936.74,70.0,0.0,0.0,0.0,0.0
1776358782283214648,26516,0.0,0.2,0.0,0.9,0.02,-0.1,2.81,-7.19,-1.63,-0.24,0.04,-0.37,-0.88,-9.5,-17.44,11941.2,70.0,0.0,0.0,0.0,0.0
1776358782324338740,26616,0.052,0.3,0.0,1.0,0.0,-0.06,1.12,-6.38,-1.75,-0.18,-0.0,-0.19,1.81,-4.13,-16.31,1210.79,70.0,0.0,0.0,0.0,0.0
1776358782336593873,26716,0.04,0.1,0.0,0.6,0.0,-0.06,-0.31,-6.06,-1.5,-0.16,-0.19,-0.19,4.44,-3.38,-11.56,11940.52,70.0,0.0,0.0,0.0,0.0
1776358782440881727,26816,0.028,0.3,0.0,0.4,0.08,-0.1,-0.94,-5.94,-1.12,-0.17,-0.43,-0.16,1.75,-4.75,-4.5,11939.49,70.0,0.0,0.0,0.0,0.0
1776358782545283873,26916,0.0,0.7,0.02,0.6,0.0,-0.29,-1.63,-5.63,-1.06,0.0,0.18,-0.54,-0.12,-1.75,-9.19,11939.66,70.0,0.0,0.0,0.0,0.0
1776358782643573942,27016,0.0,1.0,0.004,0.5,-0.04,-0.16,-2.56,-5.63,-1.31,0.32,0.5,-0.38,0.06,6.0,-9.31,11939.66,70.0,0.0,0.0,0.0,0.0
1776358782746046028,27116,0.012,0.4,0.0,0.8,0.0,-0.08,-3.56,-5.81,-1.81,0.25,0.49,-0.35,1.69,7.44,-11.63,11938.97,70.0,0.0,0.0,0.0,0.0
1776358782838285853,27216,0.012,0.2,0.0,1.0,-0.04,-0.12,-4.63,-5.88,-1.81,0.32,0.33,-0.46,4.63,5.88,-8.69,11937.26,70.0,0.0,0.0,0.0,0.0
1776358782936668883,27316,0.008,0.2,0.0,0.7,0.06,-0.21,-5.06,-5.94,-1.63,0.28,0.08,-0.35,5.06,0.31,0.0,11939.66,70.0,0.0,0.0,0.0,0.0
1776358783045019963,27415,0.004,0.3,0.0,0.8,0.1,-0.16,-5.0,-5.56,-1.31,-0.12,0.16,-0.48,2.06,-7.81,1.06,11940.69,70.0,0.0,0.0,0.0,0.0
1776358783137331774,27515,0.0,0.5,0.0,1.0,0.06,-0.18,-4.63,-4.63,-1.06,-0.39,0.36,-0.56,-1.25,-7.75,5.81,11938.8,70.0,0.0,0.0,0.0,0.0
1776358783235698765,27615,0.0,0.5,0.0,0.5,-0.08,-0.23,-3.75,-4.13,-0.88,-0.42,0.24,-0.46,-4.88,1.06,12.44,11938.63,70.0,0.0,0.0,0.0,0.0
1776358783335995652,27714,0.04,0.7,0.052,0.2,-0.06,-0.06,-2.13,-4.38,-0.75,-0.72,0.1,-0.45,-6.5,4.63,18.12,11938.97,70.0,0.0,0.0,0.0,0.0
1776358783434217759,27814,0.032,0.2,0.0,0.8,-0.02,-0.16,-0.31,-4.69,-0.44,-0.48,0.26,-0.2,-3.5,5.63,16.12,11939.66,70.0,0.0,0.0,0.0,0.0
1776358783544608520,27914,0.02,0.2,0.0,1.0,0.04,-0.08,0.5,-4.94,-0.37,0.33,0.27,0.05,-1.69,0.81,2.81,11936.23,70.0,0.0,0.0,0.0,0.0
1776358783642907365,28014,0.0,1.1,0.0,0.3,-0.04,-0.1,0.63,-4.81,-0.81,0.33,0.06,-0.37,-2.31,-0.19,1.69,11936.74,70.0,0.0,0.0,0.0,0.0
1776358783735343060,28114,0.0,0.3,0.0,0.0,-0.06,-0.14,1.12,-5.0,-1.19,0.57,-0.25,-0.41,0.56,0.56,7.5,11935.89,70.0,0.0,0.0,0.0,0.0
1776358784059264000,28213,0.012,0.2,0.004,0.2,0.04,0.04,1.75,-5.44,-1.75,0.5,-0.35,-0.34,2.88,-1.5,7.25,11937.43,70.0,0.0,0.0,0.0,0.0
1776358784071449689,28313,0.004,0.2,0.0,0.9,-0.08,-0.02,2.44,-5.88,-1.88,0.38,-0.3,-0.53,3.38,0.56,8.75,1207.87,70.0,0.0,0.0,0.0,0.0
1776358784134640968,28412,0.008,0.2,0.0,0.9,-0.04,-0.12,3.13,-6.31,-1.69,-0.19,-0.27,-0.49,1.56,2.13,5.44,11938.63,70.0,0.0,0.0,0.0,0.0
1776358784148162409,28512,0.0,0.1,0.0,0.2,-0.02,0.02,3.44,-6.75,-1.5,-0.22,-0.17,-0.59,-0.06,0.94,1.94,1162.26,70.0,0.0,0.0,0.0,0.0
1776358784232908788,28612,0.0,0.5,0.0,1.1,-0.02,-0.12,3.31,-6.88,-1.37,-0.32,-0.09,-0.51,0.12,-2.13,-4.13,1135.33,70.0,0.0,0.0,0.0,0.0
1776358784335320138,28712,0.044,0.1,0.0,1.1,0.08,-0.21,2.63,-6.56,-1.19,-0.35,0.03,-0.38,0.69,-5.81,-9.63,1201.36,70.0,0.0,0.0,0.0,0.0
1776358784433579681,28812,0.0,0.7,0.0,0.9,0.06,-0.06,1.81,-5.94,-1.0,-0.45,-0.0,-0.48,-0.12,-5.81,-6.56,1157.8,70.0,0.0,0.0,0.0,0.0
1776358784543963601,28912,0.0,0.3,0.0,1.0,-0.04,-0.06,1.44,-5.75,-0.69,-0.31,-0.31,-0.42,1.19,-4.81,-3.44,11935.89,70.0,0.0,0.0,0.0,0.0
1776358784634302129,29012,0.0,0.2,0.0,1.0,-0.04,-0.21,0.63,-5.44,-0.44,-0.17,-0.15,-0.15,1.0,-5.56,-12.63,1184.38,70.0,0.0,0.0,0.0,0.0
1776358784744651642,29113,0.0,0.6,0.0,0.2,-0.04,-0.08,-0.5,-5.06,-0.5,-0.16,0.18,-0.36,-1.88,-1.44,-9.44,11935.89,70.0,0.0,0.0,0.0,0.0
1776358784835009206,29213,0.016,0.3,0.0,0.3,-0.02,-0.16,-1.12,-5.06,-0.69,0.17,0.24,-0.33,-1.12,1.75,-5.94,1192.95,70.0,0.0,0.0,0.0,0.0
1776358784937402538,29314,0.004,0.0,0.0,0.9,0.04,-0.1,-1.88,-5.0,-0.88,0.6,0.39,-0.45,0.44,-2.0,-8.56,205.46,70.0,0.0,0.0,0.0,0.0
1776358785055248110,29414,0.008,0.3,0.0,1.1,-0.06,-0.31,-3.0,-3.94,-1.31,0.38,0.51,-0.46,2.13,-4.94,-12.75,11937.94,70.0,0.0,0.0,0.0,0.0
1776358785146286297,29514,0.004,0.0,0.0,1.1,-0.1,-0.02,-4.0,-3.19,-1.69,0.2,0.29,-0.14,2.0,1.56,-6.38,11937.77,70.0,0.0,0.0,0.0,0.0
1776358785244365835,29615,0.0,0.2,0.044,0.3,-0.1,-0.16,-4.31,-3.06,-1.81,-0.14,0.26,-0.32,-2.19,0.44,-1.06,11938.12,70.0,0.0,0.0,0.0,0.0
1776358785338771674,29715,0.0,0.2,0.0,0.8,0.06,-0.18,-4.44,-3.0,-2.06,-0.12,0.2,-0.41,-4.44,0.37,-1.81,1204.1,70.0,0.0,0.0,0.0,0.0
1776358785438869869,29815,0.032,0.2,0.0,1.1,-0.1,-0.1,-4.19,-2.94,-2.44,-0.23,0.24,-0.61,-4.75,-0.25,7.19,11938.97,70.0,0.0,0.0,0.0,0.0
1776358785537358968,29915,0.0,1.0,0.0,0.3,-0.1,0.02,-3.13,-2.88,-2.5,-0.46,0.09,-0.74,-3.31,-0.5,13.5,11938.12,70.0,0.0,0.0,0.0,0.0
1776358785637764080,30015,0.024,0.0,0.0,0.2,-0.04,-0.08,-1.44,-2.94,-2.25,-0.33,0.27,-0.41,-0.75,3.38,19.62,1188.15,70.0,0.0,0.0,0.0,0.0
1776358785736062055,30114,0.012,0.5,0.0,0.7,-0.2,-0.06,0.44,-3.44,-2.13,0.04,0.05,0.13,-1.44,6.0,16.56,222.09,70.0,0.0,0.0,0.0,0.0
1776358785846471294,30214,0.0,0.4,0.004,0.4,-0.06,-0.04,1.44,-3.69,-2.38,-0.21,0.09,0.07,-5.13,2.0,7.56,11935.54,70.0,0.0,0.0,0.0,0.0
1776358785936751282,30314,0.0,1.0,0.0,0.1,-0.02,-0.18,2.5,-4.19,-2.88,-0.03,-0.17,-0.11,-6.38,5.5,12.88,200.66,70.0,0.0,0.0,0.0,0.0
1776358786051225247,30413,0.0,0.9,0.0,0.4,-0.12,-0.2,3.63,-4.63,-3.25,0.16,-0.26,-0.43,-2.13,0.19,10.13,1200.5,70.0,0.0,0.0,0.0,0.0
1776358786145468830,30514,0.0,0.7,0.0,0.1,0.08,0.0,4.38,-4.88,-3.25,0.26,-0.27,-0.64,4.13,-0.37,7.06,11934.51,70.0,0.0,0.0,0.0,0.0
1776358786235734292,30614,0.052,-0.1,0.0,0.2,-0.02,-0.25,5.06,-5.31,-2.81,0.26,-0.15,-0.66,8.81,2.31,7.06,1177.35,70.0,0.0,0.0,0.0,0.0
1776358786338135831,30713,0.048,0.1,0.0,0.9,-0.04,-0.12,5.44,-5.88,-2.06,-0.19,-0.05,-0.66,8.0,7.75,0.63,1243.55,70.0,0.0,0.0,0.0,0.0
1776358786436378903,30814,0.0,0.6,0.0,1.1,-0.06,-0.14,5.19,-6.69,-1.37,-0.34,-0.18,-0.72,3.44,4.44,-5.25,1126.41,70.0,0.0,0.0,0.0,0.0
1776358786546791976,30914,0.016,0.2,0.0,1.1,-0.02,-0.04,4.44,-7.0,-1.06,-0.48,-0.04,-0.68,-3.06,-3.06,-10.31,11935.71,70.0,0.0,0.0,0.0,0.0
1776358786637117659,31014,0.0,0.5,0.0,0.6,-0.02,-0.2,3.44,-6.56,-1.25,-0.34,-0.15,-0.31,-5.75,-7.81,-12.0,1179.75,70.0,0.0,0.0,0.0,0.0
1776358786847219334,31115,0.004,0.1,0.008,1.1,-0.12,-0.06,2.06,-5.88,-1.63,-0.36,-0.18,-0.37,-2.94,-10.25,-16.0,11938.29,70.0,0.0,0.0,0.0,0.0
1776358786859883117,31215,0.008,0.1,0.004,0.5,0.04,-0.14,0.37,-4.69,-1.69,0.19,-0.25,-0.13,3.13,-14.19,-19.19,1180.78,70.0,0.0,0.0,0.0,0.0
1776358786936145041,31314,0.0,0.4,0.0,0.7,-0.08,-0.1,-1.12,-3.69,-1.69,0.2,0.09,-0.07,2.06,-4.81,-10.88,1168.77,70.0,0.0,0.0,0.0,0.0
1776358787040523918,31414,0.0,0.7,0.004,0.6,-0.02,-0.18,-2.25,-3.63,-1.75,0.32,0.16,-0.35,0.69,5.25,-13.69,11937.43,70.0,0.0,0.0,0.0,0.0
1776358787138835783,31514,0.008,0.0,0.0,1.2,0.04,-0.2,-3.94,-4.0,-2.25,0.44,0.17,-0.46,0.75,6.13,-18.31,11936.91,70.0,0.0,0.0,0.0,0.0
1776358787241279121,31614,0.06,0.1,0.0,0.8,-0.12,-0.06,-5.69,-4.13,-2.56,0.33,0.31,-0.51,3.0,4.19,-14.81,11936.91,70.0,0.0,0.0,0.0,0.0
1776358787337459048,31714,0.048,-0.2,0.0,0.6,-0.02,-0.16,-6.75,-4.06,-2.56,0.24,0.35,-0.39,5.13,1.37,-6.38,1163.46,70.0,0.0,0.0,0.0,0.0
1776358787435833652,31814,0.036,0.2,0.0,0.8,-0.02,0.0,-7.06,-3.75,-2.38,0.09,0.41,-0.33,2.0,0.69,-0.63,11938.63,70.0,0.0,0.0,0.0,0.0
1776358787546155539,31915,0.028,0.2,0.0,0.8,0.04,-0.23,-6.94,-3.56,-2.25,-0.43,0.3,-0.63,-2.44,3.38,2.56,11940.52,70.0,0.0,0.0,0.0,0.0
1776358787648611210,32015,0.016,0.4,0.0,1.0,-0.02,-0.18,-6.56,-3.81,-2.31,-0.22,-0.02,-0.67,-4.06,3.94,5.38,11940.52,70.0,0.0,0.0,0.0,0.0
1776358787738893290,32115,0.016,0.1,0.0,0.5,0.04,-0.18,-5.56,-4.25,-2.5,-0.5,-0.05,-0.54,-4.75,2.31,12.81,209.06,70.0,0.0,0.0,0.0,0.0
1776358787863218232,32215,0.0,0.7,0.0,0.6,-0.02,-0.12,-4.13,-4.5,-2.25,-0.64,0.07,-0.22,-3.38,2.25,16.25,208.37,70.0,0.0,0.0,0.0,0.0
1776358787939570347,32315,0.0,0.3,0.0,0.3,-0.02,-0.1,-2.31,-4.56,-1.37,-0.44,0.24,-0.08,-1.25,3.56,20.44,1186.61,70.0,0.0,0.0,0.0,0.0
1776358788039875884,32415,0.004,0.2,0.0,0.3,-0.16,-0.16,-0.37,-5.19,-1.19,0.54,-0.05,0.13,0.31,6.19,15.56,11935.89,70.0,0.0,0.0,0.0,0.0
1776358788148311129,32516,0.008,0.3,0.004,0.2,-0.08,-0.2,0.19,-5.56,-1.31,0.48,-0.11,-0.33,1.37,1.0,2.06,11937.43,70.0,0.0,0.0,0.0,0.0
1776358788240596268,32616,0.0,0.9,0.052,1.0,-0.02,0.0,0.69,-5.75,-1.5,0.44,-0.11,-0.5,1.06,0.75,9.06,11936.06,70.0,0.0,0.0,0.0,0.0
1776358788340995051,32716,0.04,0.1,0.0,0.9,0.0,-0.06,1.94,-6.06,-1.75,0.38,-0.19,-0.52,-1.37,3.0,15.25,11937.77,70.0,0.0,0.0,0.0,0.0
1776358788439204858,32816,0.0,1.0,0.0,1.1,-0.08,-0.18,3.13,-6.88,-2.13,0.07,-0.36,-0.53,-0.94,4.0,10.19,11937.09,70.0,0.0,0.0,0.0,0.0
1776358788549568587,32916,0.0,0.3,0.0,1.2,0.02,-0.16,3.31,-7.56,-2.25,0.16,-0.22,-0.39,1.56,1.0,-4.81,11934.86,70.0,0.0,0.0,0.0,0.0
1776358788639927909,33016,0.008,0.4,0.0,0.8,0.02,-0.25,2.75,-7.5,-2.19,-0.17,0.03,-0.78,2.88,-1.5,-3.38,1118.35,70.0,0.0,0.0,0.0,0.0
1776358788740247861,33116,0.0,0.2,0.008,0.2,0.06,-0.08,2.69,-7.31,-1.75,-0.21,-0.08,-0.82,4.25,-1.56,2.19,11937.77,70.0,0.0,0.0,0.0,0.0
1776358788840630293,33216,0.0,0.5,0.0,1.0,-0.02,-0.08,2.75,-7.25,-1.0,-0.41,-0.28,-0.71,5.19,-5.5,-3.0,1156.08,70.0,0.0,0.0,0.0,0.0
1776358788938937116,33315,0.004,0.2,0.0,0.7,-0.04,-0.04,2.19,-6.88,-0.12,-0.57,-0.25,-0.7,6.31,-7.63,-9.81,1197.24,70.0,0.0,0.0,0.0,0.0
1776358789041379831,33415,0.0,0.4,0.004,0.3,0.02,-0.08,1.19,-6.38,0.94,-0.54,-0.15,-0.31,6.13,-9.06,-12.19,1166.89,70.0,0.0,0.0,0.0,0.0
1776358789139624628,33515,0.0,0.3,0.0,1.0,-0.16,-0.14,-0.37,-5.69,1.37,0.28,-0.22,-0.02,3.13,-5.13,-13.56,1293.11,70.0,0.0,0.0,0.0,0.0
1776358789239917649,33614,0.0,0.3,0.0,0.3,-0.14,-0.12,-1.37,-5.5,1.31,0.01,0.31,-0.44,-1.5,-0.75,-9.81,11938.29,70.0,0.0,0.0,0.0,0.0
1776358789336175499,33714,0.048,0.6,0.0,0.8,0.1,-0.2,-2.56,-5.44,0.94,0.6,0.24,-0.17,-3.31,2.38,-13.88,1111.49,70.0,0.0,0.0,0.0,0.0
1776358789444602766,33813,0.032,0.1,0.0,1.0,-0.04,-0.1,-3.75,-5.63,0.0,0.66,0.04,-0.21,-4.56,1.37,-12.0,11936.4,70.0,0.0,0.0,0.0,0.0
1776358789536870648,33913,0.0,0.3,0.0,1.1,0.06,-0.16,-5.13,-5.25,-1.19,0.51,0.32,-0.15,-2.88,-3.44,-15.0,1282.48,70.0,0.0,0.0,0.0,0.0
1776358789639311204,34014,0.016,0.2,0.0,0.9,0.0,-0.12,-6.25,-4.69,-1.75,0.05,0.41,-0.43,-0.69,-1.0,-6.0,167.21,70.0,0.0,0.0,0.0,0.0
1776358789749685253,34114,0.0,0.8,0.0,0.5,0.1,-0.08,-6.25,-4.56,-1.75,0.03,0.31,-0.42,-0.06,3.0,4.25,11937.77,70.0,0.0,0.0,0.0,0.0
1776358789848190265,34214,0.0,0.5,0.0,0.2,-0.2,-0.21,-5.63,-5.0,-1.75,-0.14,-0.06,-0.77,-0.88,4.0,6.69,11937.6,70.0,0.0,0.0,0.0,0.0
1776358789938278149,34314,0.0,0.2,0.0,0.4,-0.04,-0.14,-5.19,-4.94,-1.75,-0.32,0.14,-0.78,-0.88,-5.38,1.94,175.62,70.0,0.0,0.0,0.0,0.0
1776358790048915255,34414,0.0,0.3,0.004,0.3,0.02,-0.14,-4.94,-4.06,-1.5,-0.3,0.45,-0.21,-2.25,-5.06,5.69,11937.6,70.0,0.0,0.0,0.0,0.0
1776358790138986709,34514,0.008,0.3,0.0,0.8,-0.02,-0.12,-3.75,-4.13,-1.44,-0.7,0.57,0.2,-6.13,14.81,15.75,167.38,70.0,0.0,0.0,0.0,0.0
1776358790241375870,34615,0.052,0.0,0.0,1.0,-0.06,-0.08,-2.63,-5.81,-1.63,-0.46,0.02,-0.37,-2.94,18.81,6.25,205.46,70.0,0.0,0.0,0.0,0.0
1776358790339679375,34715,0.044,0.0,0.0,0.9,0.0,-0.14,-2.31,-7.25,-1.5,0.27,0.05,-0.29,4.13,10.06,1.25,11937.94,70.0,0.0,0.0,0.0,0.0
1776358790442020314,34816,0.04,0.2,0.028,1.0,-0.08,-0.16,-2.5,-7.56,-0.88,0.2,0.1,-0.51,10.25,-0.19,-2.25,1165.34,70.0,0.0,0.0,0.0,0.0
1776358790540318264,34916,0.0,0.2,0.0,0.7,-0.06,-0.2,-2.63,-7.31,0.0,0.1,-0.18,-0.38,8.63,-5.63,-0.37,1136.36,70.0,0.0,0.0,0.0,0.0
1776358790650800033,35017,0.016,0.4,0.0,1.0,-0.02,-0.12,-2.19,-6.81,0.5,0.02,-0.2,-0.49,2.38,-6.69,9.88,11937.77,70.0,0.0,0.0,0.0,0.0
1776358790753079789,35118,0.0,0.3,0.0,1.2,0.08,-0.16,-0.94,-6.44,0.56,0.27,-0.13,-0.35,-2.31,-2.94,12.31,11937.26,70.0,0.0,0.0,0.0,0.0
1776358790851496902,35218,0.008,0.3,0.0,1.3,-0.08,0.04,-0.19,-6.5,0.0,0.55,-0.07,-0.5,-4.25,1.12,3.94,11937.09,70.0,0.0,0.0,0.0,0.0
1776358790945843063,35318,0.0,0.7,0.0,0.2,-0.02,-0.02,-0.25,-6.69,-0.37,0.1,-0.08,-0.8,-2.31,1.69,-3.5,11938.29,70.0,0.0,0.0,0.0,0.0
1776358791044158138,35419,0.0,0.0,0.0,1.0,-0.02,-0.33,-0.44,-7.13,-0.5,0.0,-0.34,-0.73,-0.37,2.63,-0.88,1144.93,70.0,0.0,0.0,0.0,0.0
1776358791367207866,35519,0.0,0.7,0.0,0.9,-0.08,-0.14,-0.94,-7.5,-0.44,-0.21,-0.34,-0.54,1.12,-3.88,-10.13,1094.68,70.0,0.0,0.0,0.0,0.0
1776358791433233340,35619,0.0,0.5,0.052,0.3,-0.02,-0.21,-2.0,-7.06,-0.31,-0.12,-0.0,-0.5,2.19,-9.06,-9.5,1135.67,86.0,0.0,0.0,0.0,0.0
1776358791441430030,35719,0.0,0.5,0.036,0.1,0.0,-0.23,-2.69,-6.44,-0.06,-0.25,0.04,-0.57,1.75,-3.81,-4.06,1131.04,86.0,0.0,0.0,0.0,0.0
1776358791454234961,35819,0.0,0.1,0.0,0.3,0.0,-0.12,-2.88,-6.44,0.06,-0.21,-0.25,-0.17,0.25,0.88,-2.0,11938.12,71.0,0.0,0.0,0.0,0.0
1776358791545826742,35919,0.0,1.2,0.0,1.0,-0.04,-0.12,-3.44,-6.31,0.12,-0.23,0.04,-0.35,-0.31,-3.44,-10.13,11940.0,70.0,0.0,0.0,0.0,0.0
1776358791646236197,36019,0.0,0.4,0.008,0.3,-0.14,-0.1,-4.69,-6.0,0.0,0.46,0.13,0.1,-1.0,-3.0,-15.19,1106.69,70.0,0.0,0.0,0.0,0.0
1776358791851221138,36120,0.012,0.2,0.0,1.3,-0.18,-0.12,-6.0,-5.69,-0.44,0.37,0.55,-0.2,-1.12,0.94,-10.75,11937.94,97.0,0.0,0.0,0.0,0.0
1776358791863846313,36220,0.008,0.0,0.0,1.2,-0.14,-0.23,-7.0,-5.63,-0.69,0.34,0.38,-0.62,3.44,5.69,-9.56,188.31,97.0,0.0,0.0,0.0,0.0
1776358791945222342,36320,0.004,0.2,0.0,0.8,0.04,-0.14,-7.88,-5.69,-0.56,0.08,0.35,-0.59,6.38,0.94,-7.06,1069.82,1797.0,0.0,0.0,0.0,0.0
1776358792047597916,36420,0.0,0.4,0.0,1.0,0.02,-0.1,-8.31,-5.31,0.0,-0.06,0.43,-0.83,5.31,-4.13,-1.25,1020.25,1090.0,0.0,0.0,0.0,0.0
1776358792147969873,36520,0.004,0.4,0.0,1.1,-0.02,-0.12,-8.31,-4.5,0.31,0.07,0.37,-0.77,2.69,-7.13,2.75,11935.89,2036.0,0.0,0.0,0.0,0.0
1776358792248386774,36620,0.056,0.2,0.0,1.0,0.08,-0.14,-7.94,-3.94,0.5,0.12,-0.04,-0.95,0.94,-4.56,5.06,979.61,2036.0,0.0,0.0,0.0,0.0
1776358792346618003,36721,0.048,0.3,0.0,1.2,-0.1,-0.1,-7.63,-3.56,0.44,0.34,-0.2,-0.59,-0.19,-4.31,1.88,871.05,618.0,0.0,0.0,0.0,0.0
1776358792449014729,36822,0.0,0.2,0.0,1.2,0.1,-0.08,-7.81,-3.44,0.19,0.48,-0.31,-0.55,0.5,-3.88,-6.75,799.53,618.0,0.0,0.0,0.0,0.0
1776358792547254643,36922,0.028,0.4,0.02,0.5,0.02,-0.2,-8.44,-3.44,-0.19,0.25,-0.23,0.04,0.69,3.88,-5.06,676.74,2972.0,0.0,0.0,0.0,0.0
1776358792649700367,37022,0.0,0.5,0.0,1.1,-0.02,-0.16,-8.94,-3.94,-0.12,0.0,-0.36,0.42,1.5,4.19,-4.69,682.57,1297.0,0.0,0.0,0.0,0.0
1776358792750066362,37123,0.0,0.7,0.0,0.3,0.02,-0.2,-9.56,-4.0,0.06,-0.24,-0.23,0.19,4.56,-7.0,-8.63,11937.77,832.0,0.0,0.0,0.0,0.0
1776358792850396006,37223,0.0,0.6,0.0,1.1,-0.12,-0.04,-10.5,-3.56,0.63,0.17,-0.05,0.83,8.5,3.38,-7.44,484.14,832.0,0.0,0.0,0.0,0.0
1776358792979212324,37322,0.0,-0.2,0.0,1.1,-0.02,-0.16,-10.94,-4.31,1.56,-0.24,-0.73,0.68,11.06,9.19,-0.19,436.3,832.0,0.0,0.0,0.0,0.0
1776358793058981129,37422,0.004,0.3,0.0,0.8,0.12,-0.14,-10.75,-4.81,2.75,-0.29,-0.42,0.78,12.0,-2.31,4.5,11938.12,511.0,0.0,0.0,0.0,0.0
1776358793149363637,37522,0.004,0.7,0.0,0.3,0.27,-0.14,-10.13,-4.25,3.88,-0.27,-0.52,1.53,8.88,-2.69,9.69,345.06,395.0,0.0,0.0,0.0,0.0
1776358793247740191,37621,0.0,0.1,0.0,1.2,0.08,-0.21,-9.13,-4.56,4.69,-0.38,-0.2,0.86,6.88,7.63,9.06,11938.12,283.0,0.0,0.0,0.0,0.0
1776358793350053252,37721,0.048,0.2,0.0,0.3,-0.1,-0.18,-8.63,-5.31,5.25,-0.34,-0.02,0.46,2.06,8.94,2.81,225.35,283.0,0.0,0.0,0.0,0.0
1776358793454374804,37821,0.0,0.9,0.024,1.0,0.08,-0.14,-8.25,-5.44,5.38,-0.37,0.33,0.43,-1.06,-7.44,7.44,11939.83,222.0,0.0,0.0,0.0,0.0
1776358793546646567,37921,0.0,0.2,0.012,0.0,0.14,-0.21,-6.94,-4.25,5.5,-0.39,0.75,0.86,-0.94,-8.69,17.81,191.91,222.0,0.0,0.0,0.0,0.0
1776358793649043385,38021,0.016,0.4,0.012,0.6,-0.02,-0.21,-5.31,-3.56,5.06,-0.35,0.04,0.4,-14.63,-0.63,14.5,175.79,195.0,0.0,0.0,0.0,0.0
1776358793747350570,38121,0.016,0.1,0.0,0.4,0.12,-0.16,-4.44,-3.25,2.81,0.0,0.1,0.13,-27.62,-3.5,2.0,192.42,195.0,0.0,0.0,0.0,0.0
1776358793963221350,38220,0.012,0.3,0.0,1.0,-0.08,-0.2,-4.69,-3.06,0.63,-0.34,-0.23,1.23,-15.75,-2.88,-5.5,184.71,194.0,0.0,0.0,0.0,0.0
1776358793975132866,38321,0.0,0.1,0.0,0.6,0.0,-0.21,-4.75,-2.88,-0.31,0.39,-0.13,-0.16,-6.0,-2.19,0.0,187.62,203.0,0.0,0.0,0.0,0.0
1776358794046315489,38421,0.004,1.1,0.0,0.8,-0.1,-0.06,-4.75,-2.88,-0.37,-0.09,0.43,0.34,1.94,1.69,-0.94,206.66,203.0,0.0,0.0,0.0,0.0
1776358794148721543,38520,0.0,0.6,0.0,1.2,0.06,-0.16,-4.75,-3.13,-0.31,-0.28,-0.3,0.21,-1.44,1.5,-0.56,188.82,205.0,0.0,0.0,0.0,0.0
1776358794247039183,38620,0.0,0.1,0.0,0.8,-0.02,-0.2,-4.75,-3.25,-0.37,-0.01,-0.0,0.11,0.37,-0.5,0.12,188.82,197.0,0.0,0.0,0.0,0.0
1776358794345310528,38720,0.048,0.2,0.036,1.1,0.0,-0.08,-4.75,-3.25,-0.31,-0.09,-0.14,0.12,-0.31,0.06,-0.12,188.82,197.0,0.0,0.0,0.0,0.0
1776358794447695490,38819,0.036,0.2,0.0,0.9,-0.12,-0.08,-4.75,-3.25,-0.31,-0.11,-0.06,0.12,0.12,0.06,-0.06,192.94,203.0,0.0,0.0,0.0,0.0
1776358794550103562,38920,0.024,0.4,0.0,1.0,-0.1,-0.12,-4.75,-3.31,-0.31,-0.09,-0.05,0.12,0.06,-0.0,0.06,183.68,202.0,0.0,0.0,0.0,0.0
1776358794648422665,39020,0.008,0.2,0.0,1.1,0.04,-0.12,-4.75,-3.31,-0.25,-0.07,-0.06,0.11,-0.06,-0.12,-0.06,188.82,202.0,0.0,0.0,0.0,0.0
1776358794746719861,39120,0.008,0.5,0.004,0.5,0.04,-0.12,-4.75,-3.31,-0.25,-0.08,-0.08,0.13,-0.0,0.12,0.0,188.82,204.0,0.0,0.0,0.0,0.0
1776358794849109953,39220,0.012,0.3,0.0,0.1,-0.04,-0.14,-4.75,-3.31,-0.25,-0.09,-0.08,0.09,0.12,-0.06,0.0,188.82,204.0,0.0,0.0,0.0,0.0
1776358794999272467,39320,0.004,0.3,0.0,1.5,0.0,-0.2,-4.75,-3.31,-0.19,-0.07,-0.06,0.14,-0.12,0.06,0.0,179.9,196.0,0.0,0.0,0.0,0.0
1776358795045690363,39419,0.0,0.4,0.0,1.0,-0.08,-0.18,-4.75,-3.38,-0.19,-0.06,-0.07,0.1,-0.06,-0.0,-0.06,184.71,207.0,0.0,0.0,0.0,0.0
1776358795148112372,39519,0.012,0.1,0.0,1.0,-0.14,-0.04,-4.75,-3.38,-0.19,-0.07,-0.06,0.1,0.06,-0.06,0.0,184.71,207.0,0.0,0.0,0.0,0.0
1776358795246407186,39620,0.0,0.5,0.056,0.6,-0.08,-0.18,-4.75,-3.38,-0.19,-0.07,-0.07,0.11,0.12,0.06,0.0,184.71,190.0,0.0,0.0,0.0,0.0
1776358795348786641,39719,0.0,0.7,0.04,0.5,-0.1,-0.18,-4.75,-3.38,-0.19,-0.07,-0.07,0.1,-0.06,-0.06,0.12,188.82,200.0,0.0,0.0,0.0,0.0
1776358795447164305,39819,0.032,0.3,0.028,0.4,0.06,-0.14,-4.75,-3.38,-0.19,-0.07,-0.06,0.1,-0.12,0.19,0.06,187.79,200.0,0.0,0.0,0.0,0.0
1776358795549483724,39920,0.02,0.0,0.0,0.8,-0.04,-0.12,-4.75,-3.38,-0.19,-0.06,-0.08,0.14,0.06,0.19,-0.06,188.82,198.0,0.0,0.0,0.0,0.0
1776358795647797352,40019,0.02,0.2,0.0,0.5,0.04,-0.02,-4.75,-3.38,-0.19,-0.06,-0.08,0.14,-0.06,-0.06,0.0,184.71,214.0,0.0,0.0,0.0,0.0
1776358795750199344,40120,0.0,0.3,0.004,0.2,-0.02,-0.04,-4.75,-3.38,-0.19,-0.06,-0.03,0.12,-0.12,0.12,0.06,193.62,214.0,0.0,0.0,0.0,0.0
1776358795848479621,40220,0.012,0.0,0.0,0.2,-0.08,-0.14,-4.75,-3.38,-0.19,-0.07,-0.06,0.12,-0.06,0.06,-0.06,183.68,206.0,0.0,0.0,0.0,0.0
1776358795967215231,40321,0.004,0.2,0.004,0.7,0.0,-0.18,-4.75,-3.38,-0.19,-0.07,-0.05,0.12,0.06,0.06,-0.12,179.9,206.0,0.0,0.0,0.0,0.0
1776358796049235852,40421,0.0,-0.1,0.0,0.8,0.0,-0.06,-4.75,-3.38,-0.19,-0.08,-0.05,0.12,-0.0,-0.06,-0.06,187.62,211.0,0.0,0.0,0.0,0.0
1776358796151557389,40521,0.008,0.0,0.004,0.2,-0.16,-0.02,-4.75,-3.38,-0.19,-0.08,-0.06,0.08,-0.06,0.12,-0.06,179.9,207.0,0.0,0.0,0.0,0.0
1776358796249879559,40621,0.0,0.6,0.0,0.2,0.08,-0.1,-4.75,-3.38,-0.19,-0.05,-0.04,0.11,-0.06,0.12,-0.06,188.82,207.0,0.0,0.0,0.0,0.0
1776358796348152711,40721,0.0,0.1,0.0,1.0,0.02,-0.27,-4.75,-3.38,-0.19,-0.07,-0.03,0.11,0.12,-0.12,0.06,184.71,193.0,0.0,0.0,0.0,0.0
1776358796450538155,40820,0.0,0.3,0.0,0.4,-0.06,-0.08,-4.75,-3.38,-0.19,-0.06,-0.06,0.14,0.06,-0.0,0.0,184.71,201.0,0.0,0.0,0.0,0.0
1776358796548847269,40921,0.0,0.8,0.0,1.0,-0.04,-0.14,-4.75,-3.38,-0.19,-0.08,-0.07,0.12,-0.0,-0.06,-0.06,188.82,201.0,0.0,0.0,0.0,0.0
1776358796651320303,41021,0.02,0.1,0.0,0.2,0.06,-0.23,-4.75,-3.38,-0.19,-0.05,-0.07,0.1,-0.0,-0.12,-0.12,184.71,192.0,0.0,0.0,0.0,0.0
1776358796749560715,41120,0.0,0.5,0.0,0.5,0.0,-0.06,-4.75,-3.38,-0.19,-0.08,-0.05,0.11,0.06,0.19,0.0,192.94,203.0,0.0,0.0,0.0,0.0
1776358796847848070,41220,0.004,0.4,0.0,1.0,-0.06,-0.25,-4.75,-3.38,-0.19,-0.05,-0.05,0.11,0.06,-0.19,-0.12,184.53,203.0,0.0,0.0,0.0,0.0
1776358796950257384,41320,0.0,0.2,0.0,0.8,0.1,-0.14,-4.75,-3.38,-0.19,-0.07,-0.07,0.11,-0.06,-0.06,0.0,188.82,202.0,0.0,0.0,0.0,0.0
1776358797048547478,41420,0.004,0.4,0.0,0.9,0.0,-0.23,-4.75,-3.38,-0.19,-0.05,-0.06,0.12,0.06,-0.06,0.0,179.9,202.0,0.0,0.0,0.0,0.0
1776358797150934742,41521,0.004,0.3,0.004,0.5,0.04,-0.16,-4.75,-3.38,-0.19,-0.05,-0.07,0.1,0.06,-0.12,0.0,183.68,210.0,0.0,0.0,0.0,0.0
1776358797253397800,41622,0.0,0.9,0.0,1.1,0.16,-0.23,-4.75,-3.38,-0.19,-0.09,-0.06,0.13,0.06,-0.0,0.0,188.65,200.0,0.0,0.0,0.0,0.0
1776358797351613250,41722,0.048,0.3,0.0,0.2,-0.04,0.08,-4.75,-3.38,-0.19,-0.06,-0.03,0.11,-0.0,0.12,0.12,188.82,200.0,0.0,0.0,0.0,0.0
1776358797454004643,41822,0.02,0.1,0.0,1.2,0.08,-0.2,-4.75,-3.38,-0.19,-0.07,-0.03,0.12,-0.0,0.06,0.0,188.82,201.0,0.0,0.0,0.0,0.0
1776358797552312443,41922,0.024,0.5,0.0,0.6,0.1,-0.25,-4.75,-3.38,-0.19,-0.08,-0.05,0.12,0.06,0.06,0.06,197.05,205.0,0.0,0.0,0.0,0.0
1776358797650630391,42021,0.016,0.0,0.0,1.2,0.0,-0.18,-4.75,-3.38,-0.19,-0.08,-0.07,0.13,-0.12,-0.0,-0.06,192.94,205.0,0.0,0.0,0.0,0.0
1776358797753015581,42121,0.008,0.4,0.0,0.8,-0.08,-0.08,-4.75,-3.38,-0.19,-0.08,-0.06,0.12,0.06,0.06,0.0,192.94,206.0,0.0,0.0,0.0,0.0
1776358797991227838,42221,0.0,0.3,0.0,1.0,0.02,-0.06,-4.75,-3.38,-0.19,-0.06,-0.07,0.12,0.12,-0.06,0.0,179.9,205.0,0.0,0.0,0.0,0.0
1776358798052024636,42321,0.008,0.1,0.0,1.2,-0.04,-0.08,-4.75,-3.38,-0.19,-0.08,-0.05,0.12,0.06,0.12,-0.06,184.53,205.0,0.0,0.0,0.0,0.0
1776358798065686421,42421,0.008,0.2,0.0,0.8,-0.08,-0.08,-4.75,-3.38,-0.19,-0.06,-0.05,0.11,-0.12,-0.0,0.06,184.53,197.0,0.0,0.0,0.0,0.0
1776358798150295787,42522,0.012,0.6,0.0,1.3,-0.06,-0.06,-4.75,-3.38,-0.19,-0.07,-0.05,0.12,-0.06,0.06,-0.06,180.42,197.0,0.0,0.0,0.0,0.0
1776358798252709755,42621,0.056,0.5,0.056,0.2,0.08,-0.14,-4.75,-3.38,-0.19,-0.09,-0.07,0.11,0.06,-0.12,0.0,192.59,201.0,0.0,0.0,0.0,0.0
1776358798350982721,42722,0.0,0.2,0.0,0.6,0.04,-0.18,-4.75,-3.38,-0.19,-0.07,-0.03,0.12,-0.0,-0.0,0.06,184.71,202.0,0.0,0.0,0.0,0.0
1776358798453373708,42822,0.0,0.4,0.036,0.6,-0.14,-0.21,-4.75,-3.38,-0.19,-0.07,-0.06,0.12,-0.12,-0.06,0.06,184.71,202.0,0.0,0.0,0.0,0.0
1776358798551687451,42921,0.024,0.1,0.0,0.6,-0.04,-0.06,-4.75,-3.38,-0.19,-0.09,-0.06,0.12,-0.06,0.06,0.0,180.42,185.0,0.0,0.0,0.0,0.0
1776358798654091030,43022,0.016,0.2,0.0,0.9,-0.04,-0.02,-4.75,-3.38,-0.19,-0.05,-0.06,0.11,-0.0,0.06,0.12,193.62,199.0,0.0,0.0,0.0,0.0
1776358798752392180,43122,0.012,0.0,0.0,0.6,0.0,0.1,-4.75,-3.38,-0.19,-0.07,-0.08,0.11,0.12,-0.06,0.06,193.62,199.0,0.0,0.0,0.0,0.0
1776358798903218320,43222,0.0,0.6,0.0,1.0,-0.04,-0.18,-4.75,-3.38,-0.19,-0.06,-0.06,0.12,-0.0,-0.12,0.06,180.59,199.0,0.0,0.0,0.0,0.0
1776358798953090448,43323,0.0,0.7,0.0,1.0,-0.04,-0.23,-4.75,-3.38,-0.19,-0.08,-0.06,0.1,-0.0,0.12,0.0,184.71,200.0,0.0,0.0,0.0,0.0
1776358799051354193,43422,0.004,0.4,0.0,0.9,-0.08,-0.14,-4.75,-3.38,-0.19,-0.06,-0.07,0.11,-0.0,0.06,0.06,180.08,200.0,0.0,0.0,0.0,0.0
1776358799153781031,43523,0.012,0.1,0.0,1.0,-0.1,-0.21,-4.75,-3.38,-0.19,-0.07,-0.06,0.13,-0.0,-0.06,0.0,180.59,215.0,0.0,0.0,0.0,0.0
1776358799256181776,43623,0.052,0.2,0.0,1.0,0.1,-0.29,-4.75,-3.38,-0.19,-0.08,-0.05,0.12,-0.0,-0.06,0.12,189.51,215.0,0.0,0.0,0.0,0.0
1776358799354436663,43723,0.048,0.3,0.0,1.0,0.14,-0.14,-4.75,-3.38,-0.19,-0.05,-0.05,0.12,0.06,0.06,0.0,184.71,199.0,0.0,0.0,0.0,0.0
1776358799452713475,43823,0.0,0.3,0.0,0.5,-0.06,-0.02,-4.75,-3.38,-0.19,-0.08,-0.06,0.14,-0.06,-0.0,0.06,193.62,203.0,0.0,0.0,0.0,0.0
1776358799555172053,43923,0.028,0.3,0.0,0.8,-0.06,-0.08,-4.75,-3.38,-0.19,-0.07,-0.08,0.12,-0.06,0.12,0.12,193.62,203.0,0.0,0.0,0.0,0.0
1776358799653472254,44022,0.0,0.6,0.0,0.6,0.04,-0.27,-4.75,-3.38,-0.19,-0.07,-0.06,0.14,-0.06,-0.06,-0.12,184.53,204.0,0.0,0.0,0.0,0.0
1776358799761895475,44122,0.0,1.4,0.016,0.2,0.0,-0.14,-4.75,-3.38,-0.19,-0.06,-0.07,0.11,0.12,0.06,0.06,193.62,207.0,0.0,0.0,0.0,0.0
1776358799854148237,44223,0.012,0.0,0.004,0.4,-0.06,-0.21,-4.75,-3.38,-0.19,-0.07,-0.03,0.11,0.19,0.06,0.0,184.53,207.0,0.0,0.0,0.0,0.0
1776358799952473771,44322,0.0,0.3,0.004,0.5,-0.1,-0.2,-4.75,-3.38,-0.19,-0.05,-0.04,0.11,0.12,-0.12,0.0,184.71,196.0,0.0,0.0,0.0,0.0
1776358800071216161,44423,0.0,1.0,0.0,0.7,-0.18,-0.1,-4.75,-3.38,-0.19,-0.08,-0.07,0.12,0.12,-0.0,0.0,184.53,199.0,0.0,0.0,0.0,0.0
1776358800153130439,44524,0.0,0.4,0.0,0.9,-0.06,-0.12,-4.75,-3.38,-0.19,-0.06,-0.06,0.1,0.06,-0.12,0.0,184.53,199.0,0.0,0.0,0.0,0.0
1776358800255548532,44623,0.06,0.2,0.0,1.3,-0.14,-0.08,-4.75,-3.38,-0.19,-0.07,-0.06,0.09,-0.12,0.06,0.0,180.42,191.0,0.0,0.0,0.0,0.0
1776358800353778782,44724,0.048,0.3,0.0,1.3,-0.02,-0.18,-4.75,-3.38,-0.19,-0.07,-0.07,0.12,-0.0,-0.0,0.12,184.53,202.0,0.0,0.0,0.0,0.0
1776358800456227671,44824,0.028,0.2,0.0,1.3,-0.06,-0.06,-4.75,-3.38,-0.19,-0.05,-0.05,0.11,-0.0,-0.12,-0.06,184.71,202.0,0.0,0.0,0.0,0.0
1776358800554546660,44923,0.0,0.5,0.0,0.7,0.12,-0.14,-4.75,-3.38,-0.19,-0.05,-0.05,0.12,-0.0,-0.0,0.0,184.53,200.0,0.0,0.0,0.0,0.0
1776358800663033233,45023,0.02,0.0,0.0,0.1,-0.06,-0.12,-4.75,-3.38,-0.19,-0.06,-0.05,0.09,-0.0,0.06,0.0,184.53,200.0,0.0,0.0,0.0,0.0
1776358800755244502,45123,0.0,0.6,0.012,0.5,-0.08,0.02,-4.75,-3.38,-0.19,-0.04,-0.06,0.11,-0.0,-0.19,-0.06,188.82,194.0,0.0,0.0,0.0,0.0
1776358800853536177,45222,0.004,0.6,0.004,0.5,0.04,-0.1,-4.75,-3.38,-0.19,-0.08,-0.06,0.1,-0.0,-0.0,0.06,188.82,206.0,0.0,0.0,0.0,0.0
1776358800955932659,45323,0.0,1.0,0.0,0.6,0.06,-0.21,-4.75,-3.38,-0.19,-0.05,-0.08,0.11,-0.0,0.12,-0.06,184.71,206.0,0.0,0.0,0.0,0.0
1776358801054231188,45423,0.0,0.6,0.0,0.2,-0.1,-0.1,-4.75,-3.38,-0.19,-0.06,-0.04,0.12,-0.0,-0.12,-0.06,188.82,198.0,0.0,0.0,0.0,0.0
1776358801156635663,45523,0.008,0.0,0.0,1.0,0.06,-0.14,-4.75,-3.38,-0.19,-0.07,-0.07,0.12,-0.06,-0.12,-0.06,184.71,201.0,0.0,0.0,0.0,0.0
1776358801254933290,45623,0.052,0.1,0.0,1.0,0.1,-0.14,-4.75,-3.38,-0.19,-0.06,-0.06,0.12,-0.06,-0.0,-0.06,184.71,201.0,0.0,0.0,0.0,0.0
1776358801353156974,45723,0.0,0.1,0.04,0.3,0.16,-0.27,-4.75,-3.38,-0.19,-0.07,-0.05,0.1,0.19,-0.19,0.06,184.71,209.0,0.0,0.0,0.0,0.0
1776358801455571560,45822,0.0,0.4,0.02,1.2,0.08,-0.02,-4.75,-3.38,-0.19,-0.08,-0.06,0.12,0.06,-0.0,-0.06,184.53,209.0,0.0,0.0,0.0,0.0
1776358801553909002,45922,0.024,0.3,0.0,1.2,0.02,-0.12,-4.75,-3.38,-0.19,-0.05,-0.06,0.09,-0.0,0.12,0.0,184.71,188.0,0.0,0.0,0.0,0.0
1776358801656318940,46022,0.0,0.5,0.02,0.2,0.06,-0.2,-4.75,-3.38,-0.19,-0.06,-0.06,0.11,-0.06,-0.0,0.0,184.53,216.0,0.0,0.0,0.0,0.0
1776358801754618030,46121,0.0,0.4,0.0,0.3,0.12,-0.16,-4.75,-3.38,-0.19,-0.07,-0.05,0.1,0.06,-0.0,0.0,184.53,216.0,0.0,0.0,0.0,0.0
1776358801852889584,46221,0.0,0.6,0.0,0.2,-0.12,-0.08,-4.75,-3.38,-0.19,-0.06,-0.06,0.11,-0.06,0.06,0.06,188.82,206.0,0.0,0.0,0.0,0.0
1776358801955304726,46321,0.0,0.2,0.004,0.6,-0.12,-0.2,-4.75,-3.38,-0.19,-0.07,-0.05,0.12,0.06,-0.06,0.0,184.71,204.0,0.0,0.0,0.0,0.0
1776358802053600391,46420,0.0,0.4,0.0,0.7,-0.04,-0.16,-4.75,-3.38,-0.19,-0.08,-0.07,0.09,-0.12,0.25,0.19,180.42,204.0,0.0,0.0,0.0,0.0
1776358802156025523,46521,0.0,0.7,0.0,0.3,0.0,0.0,-4.75,-3.38,-0.19,-0.09,-0.03,0.1,0.06,0.06,-0.06,180.42,192.0,0.0,0.0,0.0,0.0
1776358802254296915,46622,0.0,0.2,0.048,1.0,0.04,-0.16,-4.75,-3.38,-0.19,-0.04,-0.06,0.07,-0.06,-0.0,0.12,184.53,197.0,0.0,0.0,0.0,0.0
1776358802356704881,46722,0.0,0.3,0.0,0.8,-0.08,-0.14,-4.75,-3.38,-0.19,-0.09,-0.06,0.11,-0.06,-0.0,0.06,184.71,197.0,0.0,0.0,0.0,0.0
1776358802455014310,46823,0.032,0.1,0.0,0.9,-0.02,-0.02,-4.75,-3.38,-0.19,-0.05,-0.07,0.11,-0.06,-0.06,-0.06,179.73,208.0,0.0,0.0,0.0,0.0
1776358802557375295,46923,0.024,0.3,0.0,0.8,-0.12,-0.14,-4.75,-3.38,-0.19,-0.05,-0.04,0.09,0.06,-0.0,0.0,179.9,197.0,0.0,0.0,0.0,0.0
1776358802655689039,47023,0.0,0.6,0.004,0.1,-0.12,0.0,-4.75,-3.38,-0.19,-0.05,-0.04,0.11,-0.12,0.06,0.0,184.53,197.0,0.0,0.0,0.0,0.0
1776358802753941247,47123,0.012,0.3,0.008,0.7,0.04,-0.18,-4.75,-3.38,-0.19,-0.06,-0.05,0.12,-0.06,0.12,0.0,180.59,205.0,0.0,0.0,0.0,0.0
1776358802856383175,47222,0.012,0.2,0.0,1.1,0.0,0.0,-4.75,-3.38,-0.19,-0.06,-0.06,0.09,-0.06,-0.12,-0.06,184.71,205.0,0.0,0.0,0.0,0.0
1776358802954654716,47323,0.0,0.7,0.0,1.1,0.0,-0.16,-4.75,-3.38,-0.19,-0.08,-0.06,0.1,-0.0,-0.0,0.0,180.42,194.0,0.0,0.0,0.0,0.0
1776358803057150198,47423,0.0,0.2,0.0,0.8,-0.06,-0.16,-4.75,-3.38,-0.19,-0.07,-0.07,0.08,0.06,0.06,0.06,180.59,212.0,0.0,0.0,0.0,0.0
1776358803155375224,47523,0.008,0.3,0.0,1.0,0.02,-0.2,-4.75,-3.38,-0.19,-0.07,-0.05,0.12,0.06,0.06,0.06,180.42,212.0,0.0,0.0,0.0,0.0
1776358803391194416,47623,0.0,0.0,0.0,1.2,-0.16,-0.1,-4.75,-3.38,-0.19,-0.07,-0.05,0.1,0.12,-0.06,0.0,184.71,193.0,0.0,0.0,0.0,0.0
1776358803454320377,47724,0.04,0.1,0.0,0.6,-0.08,0.0,-4.75,-3.38,-0.19,-0.06,-0.05,0.09,-0.0,-0.19,-0.12,184.53,201.0,0.0,0.0,0.0,0.0
1776358803458407880,47823,0.0,0.7,0.0,0.8,-0.02,-0.12,-4.75,-3.38,-0.19,-0.06,-0.06,0.11,-0.0,0.06,0.0,175.79,201.0,0.0,0.0,0.0,0.0
1776358803556762349,47923,0.02,0.2,0.0,0.8,-0.18,-0.16,-4.75,-3.38,-0.19,-0.06,-0.06,0.1,-0.19,0.06,0.06,179.9,195.0,0.0,0.0,0.0,0.0
1776358803655040170,48023,0.02,0.0,0.0,1.0,-0.1,-0.08,-4.75,-3.38,-0.19,-0.06,-0.05,0.1,0.06,-0.0,0.0,188.82,195.0,0.0,0.0,0.0,0.0
1776358803757468790,48122,0.016,0.5,0.0,0.3,0.1,-0.16,-4.75,-3.38,-0.19,-0.05,-0.06,0.11,0.06,-0.0,-0.06,184.71,204.0,0.0,0.0,0.0,0.0
1776358803855758482,48222,0.0,0.6,0.0,0.2,-0.04,-0.12,-4.75,-3.38,-0.19,-0.05,-0.06,0.11,0.19,-0.06,0.06,180.42,208.0,0.0,0.0,0.0,0.0
1776358803958162510,48323,0.004,0.3,0.004,0.8,0.06,-0.12,-4.75,-3.38,-0.19,-0.07,-0.05,0.14,-0.06,-0.06,0.0,180.42,208.0,0.0,0.0,0.0,0.0
1776358804056461703,48422,0.004,0.5,0.012,0.4,-0.14,-0.2,-4.75,-3.38,-0.19,-0.05,-0.08,0.12,0.12,-0.12,0.12,180.42,196.0,0.0,0.0,0.0,0.0
1776358804154719822,48522,0.0,0.1,0.0,0.5,0.0,-0.04,-4.75,-3.38,-0.19,-0.08,-0.06,0.1,-0.06,-0.19,-0.06,180.42,199.0,0.0,0.0,0.0,0.0
1776358804257157761,48622,0.0,1.2,0.0,0.2,0.06,-0.21,-4.75,-3.38,-0.19,-0.08,-0.07,0.12,0.19,0.06,0.0,184.71,199.0,0.0,0.0,0.0,0.0
1776358804355418083,48721,0.044,0.1,0.04,0.5,-0.23,-0.16,-4.75,-3.38,-0.19,-0.08,-0.04,0.12,0.12,0.12,0.0,180.42,204.0,0.0,0.0,0.0,0.0
1776358804583212589,48821,0.0,0.1,0.0,0.6,0.06,-0.08,-4.75,-3.38,-0.19,-0.08,-0.05,0.1,-0.19,0.12,-0.06,180.42,197.0,0.0,0.0,0.0,0.0
1776358804585563190,48921,0.0,0.0,0.0,1.1,0.0,-0.14,-4.75,-3.38,-0.19,-0.07,-0.07,0.12,0.06,-0.19,0.0,184.71,197.0,0.0,0.0,0.0,0.0
1776358804654440019,49020,0.0,0.9,0.0,1.0,-0.04,-0.06,-4.75,-3.38,-0.19,-0.07,-0.04,0.12,-0.0,-0.06,-0.06,184.71,198.0,0.0,0.0,0.0,0.0
1776358804756854161,49121,0.012,0.3,0.0,0.9,-0.08,-0.21,-4.75,-3.38,-0.19,-0.03,-0.06,0.13,-0.0,-0.06,0.0,184.71,194.0,0.0,0.0,0.0,0.0
1776358804855130095,49221,0.0,0.7,0.004,0.7,-0.06,-0.14,-4.75,-3.38,-0.19,-0.1,-0.06,0.12,-0.0,-0.19,-0.06,180.42,194.0,0.0,0.0,0.0,0.0
1776358804953426287,49320,0.0,0.9,0.0,1.1,-0.08,-0.29,-4.75,-3.38,-0.19,-0.08,-0.07,0.12,-0.06,-0.06,0.0,180.42,204.0,0.0,0.0,0.0,0.0
1776358805055839423,49420,0.0,0.8,0.0,0.8,-0.06,0.02,-4.75,-3.38,-0.19,-0.09,-0.06,0.11,-0.0,0.06,0.06,180.42,204.0,0.0,0.0,0.0,0.0
1776358805154136781,49520,0.008,-0.2,0.0,1.1,0.12,-0.14,-4.75,-3.38,-0.19,-0.09,-0.05,0.08,-0.06,0.06,0.0,180.42,198.0,0.0,0.0,0.0,0.0
1776358805256538073,49620,0.06,0.2,0.0,1.2,0.06,-0.1,-4.75,-3.38,-0.19,-0.07,-0.07,0.1,-0.0,0.06,0.12,180.42,201.0,0.0,0.0,0.0,0.0
1776358805354795005,49720,0.048,0.2,0.0,0.3,-0.14,-0.12,-4.75,-3.38,-0.19,-0.07,-0.07,0.11,0.06,-0.12,0.0,184.53,201.0,0.0,0.0,0.0,0.0
1776358805457204445,49820,0.0,0.6,0.024,0.3,0.02,-0.04,-4.75,-3.38,-0.19,-0.06,-0.08,0.12,-0.06,0.12,0.0,184.53,196.0,0.0,0.0,0.0,0.0
1776358805555491062,49921,0.0,1.2,0.0,0.3,-0.06,-0.2,-4.75,-3.38,-0.19,-0.09,-0.06,0.12,-0.0,0.06,0.06,188.82,200.0,0.0,0.0,0.0,0.0
1776358805657924891,50021,0.0,0.3,0.004,1.1,0.16,-0.08,-4.75,-3.38,-0.19,-0.07,-0.06,0.11,0.19,-0.12,0.0,175.62,200.0,0.0,0.0,0.0,0.0
1776358805756216360,50121,0.0,0.1,0.0,1.1,-0.12,-0.14,-4.75,-3.38,-0.19,-0.08,-0.06,0.12,-0.0,-0.0,-0.12,175.79,196.0,0.0,0.0,0.0,0.0
1776358805858630560,50221,0.008,0.4,0.0,1.0,-0.06,-0.08,-4.75,-3.38,-0.19,-0.07,-0.08,0.12,-0.0,-0.06,0.0,179.9,196.0,0.0,0.0,0.0,0.0
1776358805956917807,50322,0.008,0.3,0.0,1.2,-0.06,-0.23,-4.75,-3.38,-0.19,-0.07,-0.07,0.12,-0.0,-0.06,0.06,184.53,191.0,0.0,0.0,0.0,0.0
1776358806055222177,50421,0.004,0.3,0.0,0.2,-0.04,-0.16,-4.75,-3.38,-0.19,-0.06,-0.06,0.1,-0.06,-0.06,0.0,180.42,199.0,0.0,0.0,0.0,0.0
1776358806295219679,50521,0.0,0.3,0.0,0.3,0.02,-0.08,-4.75,-3.38,-0.19,-0.08,-0.06,0.12,0.06,-0.0,0.0,180.59,199.0,0.0,0.0,0.0,0.0
1776358806354221010,50621,0.0,0.4,0.052,1.0,0.04,-0.14,-4.75,-3.38,-0.19,-0.08,-0.08,0.13,-0.12,-0.06,-0.06,180.42,188.0,0.0,0.0,0.0,0.0
1776358806362542439,50720,0.04,0.2,0.0,0.8,0.0,-0.2,-4.75,-3.38,-0.19,-0.06,-0.06,0.12,-0.0,0.06,0.0,180.42,204.0,0.0,0.0,0.0,0.0
1776358806456561820,50820,0.0,0.5,0.0,0.4,-0.06,-0.08,-4.75,-3.38,-0.19,-0.06,-0.07,0.12,-0.19,0.06,0.06,180.42,204.0,0.0,0.0,0.0,0.0
1776358806554887322,50920,0.0,0.5,0.0,1.1,-0.04,-0.14,-4.75,-3.38,-0.19,-0.09,-0.05,0.12,-0.06,-0.0,0.0,180.42,191.0,0.0,0.0,0.0,0.0
1776358806653202620,51019,0.02,0.2,0.0,1.1,-0.06,-0.21,-4.75,-3.38,-0.19,-0.07,-0.05,0.12,0.06,0.06,-0.06,180.42,194.0,0.0,0.0,0.0,0.0
1776358806755637319,51119,0.0,0.3,0.0,0.9,-0.08,0.0,-4.75,-3.38,-0.19,-0.06,-0.06,0.12,0.06,0.12,0.0,180.42,194.0,0.0,0.0,0.0,0.0
1776358806853901673,51220,0.0,0.5,0.004,0.5,-0.14,-0.16,-4.75,-3.38,-0.19,-0.07,-0.06,0.15,-0.06,-0.19,-0.06,184.71,195.0,0.0,0.0,0.0,0.0
1776358806956290390,51319,0.004,0.3,0.0,0.2,-0.21,-0.12,-4.75,-3.38,-0.19,-0.06,-0.06,0.14,-0.0,-0.0,0.06,184.71,193.0,0.0,0.0,0.0,0.0
1776358807054548362,51420,0.0,0.0,0.0,0.5,-0.12,-0.18,-4.75,-3.38,-0.19,-0.07,-0.07,0.11,-0.12,0.06,-0.06,184.71,193.0,0.0,0.0,0.0,0.0
1776358807156982075,51520,0.0,0.2,0.0,1.3,-0.12,-0.04,-4.75,-3.38,-0.19,-0.09,-0.07,0.13,-0.06,-0.0,-0.12,184.71,199.0,0.0,0.0,0.0,0.0
1776358807255311164,51619,0.0,0.6,0.06,0.3,0.04,-0.08,-4.75,-3.38,-0.19,-0.06,-0.07,0.13,-0.12,-0.0,0.12,184.71,199.0,0.0,0.0,0.0,0.0
1776358807353537994,51719,0.044,0.2,0.0,1.0,0.06,-0.06,-4.75,-3.38,-0.19,-0.07,-0.07,0.12,-0.0,-0.0,-0.06,184.53,190.0,0.0,0.0,0.0,0.0
1776358807455945930,51819,0.036,0.1,0.0,0.5,0.08,-0.06,-4.75,-3.38,-0.19,-0.05,-0.04,0.14,-0.12,0.06,0.06,184.53,202.0,0.0,0.0,0.0,0.0
1776358807554278815,51918,0.024,0.2,0.0,0.5,0.0,-0.08,-4.75,-3.38,-0.19,-0.07,-0.05,0.11,-0.0,-0.0,-0.06,184.53,202.0,0.0,0.0,0.0,0.0
1776358807652554922,52018,0.008,0.1,0.012,0.9,0.08,-0.16,-4.75,-3.38,-0.19,-0.06,-0.08,0.11,0.06,-0.0,0.0,179.9,197.0,0.0,0.0,0.0,0.0
1776358807754974636,52118,0.016,0.4,0.0,0.8,0.06,-0.31,-4.75,-3.38,-0.19,-0.06,-0.04,0.12,-0.0,0.06,0.12,179.9,207.0,0.0,0.0,0.0,0.0
1776358807853285872,52218,0.0,0.6,0.0,1.2,0.04,-0.12,-4.75,-3.38,-0.19,-0.08,-0.05,0.12,-0.0,0.06,0.06,179.9,207.0,0.0,0.0,0.0,0.0
1776358807955672735,52318,0.008,0.2,0.0,1.2,0.0,-0.21,-4.75,-3.38,-0.19,-0.07,-0.07,0.12,-0.06,-0.12,-0.12,175.79,195.0,0.0,0.0,0.0,0.0
1776358808053980124,52418,0.0,0.2,0.0,1.0,0.0,-0.08,-4.75,-3.38,-0.19,-0.08,-0.05,0.12,-0.0,0.12,-0.06,175.79,195.0,0.0,0.0,0.0,0.0
1776358808275223388,52517,0.012,0.3,0.0,0.4,-0.1,-0.12,-4.75,-3.38,-0.19,-0.07,-0.06,0.12,-0.12,-0.06,-0.06,175.62,198.0,0.0,0.0,0.0,0.0
1776358808352984494,52617,0.056,0.3,0.0,0.5,-0.02,-0.21,-4.75,-3.38,-0.19,-0.05,-0.06,0.11,-0.12,-0.06,0.06,175.62,209.0,0.0,0.0,0.0,0.0
1776358808361301342,52717,0.044,0.3,0.0,0.9,-0.2,-0.12,-4.75,-3.38,-0.19,-0.05,-0.08,0.11,-0.0,-0.0,0.0,175.79,209.0,0.0,0.0,0.0,0.0
1776358808451308833,52816,0.032,0.2,0.0,0.7,-0.14,-0.14,-4.75,-3.38,-0.19,-0.09,-0.04,0.12,-0.0,-0.0,-0.06,175.62,208.0,0.0,0.0,0.0,0.0
1776358808553700709,52916,0.0,0.4,0.0,1.1,-0.02,-0.12,-4.75,-3.38,-0.19,-0.08,-0.04,0.12,0.06,-0.12,0.06,175.62,201.0,0.0,0.0,0.0,0.0
1776358808651965308,53016,0.0,0.9,0.016,0.1,-0.04,-0.02,-4.75,-3.38,-0.19,-0.07,-0.05,0.12,-0.0,0.12,0.06,179.9,201.0,0.0,0.0,0.0,0.0
1776358808754393998,53116,0.012,0.4,0.0,0.9,-0.02,-0.08,-4.75,-3.38,-0.19,-0.07,-0.06,0.12,-0.06,-0.06,0.0,175.1,201.0,0.0,0.0,0.0,0.0
1776358808852653486,53216,0.0,1.0,0.0,0.8,0.08,-0.21,-4.75,-3.38,-0.19,-0.07,-0.05,0.12,0.06,0.06,0.0,175.1,194.0,0.0,0.0,0.0,0.0
1776358808955096806,53317,0.0,0.2,0.0,1.1,0.0,-0.08,-4.75,-3.38,-0.19,-0.07,-0.08,0.12,-0.06,-0.0,0.06,175.1,194.0,0.0,0.0,0.0,0.0
1776358809053354912,53416,0.0,0.1,0.0,1.3,-0.12,-0.27,-4.75,-3.38,-0.19,-0.07,-0.07,0.11,0.06,-0.0,0.0,175.1,192.0,0.0,0.0,0.0,0.0
1776358809155785279,53516,0.0,0.9,0.0,0.8,-0.06,-0.21,-4.75,-3.38,-0.19,-0.07,-0.06,0.11,0.06,-0.0,0.06,170.81,202.0,0.0,0.0,0.0,0.0
1776358809254052016,53617,0.0,0.3,0.0,0.7,0.06,-0.08,-4.75,-3.38,-0.19,-0.05,-0.05,0.12,0.12,-0.06,0.12,175.1,202.0,0.0,0.0,0.0,0.0
1776358809371217033,53716,0.044,0.2,0.0,0.9,-0.04,-0.16,-4.75,-3.38,-0.19,-0.05,-0.07,0.12,0.12,-0.12,0.0,179.22,202.0,0.0,0.0,0.0,0.0
1776358809454734288,53817,0.0,0.2,0.0,0.9,-0.1,-0.18,-4.75,-3.38,-0.19,-0.09,-0.05,0.1,-0.06,-0.12,0.19,175.1,202.0,0.0,0.0,0.0,0.0
1776358809553029025,53917,0.024,0.2,0.0,0.7,0.0,-0.08,-4.75,-3.38,-0.19,-0.07,-0.07,0.12,-0.06,-0.12,0.0,179.22,210.0,0.0,0.0,0.0,0.0
1776358809655445930,54017,0.016,-0.2,0.0,0.9,-0.08,-0.2,-4.75,-3.38,-0.19,-0.08,-0.07,0.12,0.12,0.06,0.0,184.02,201.0,0.0,0.0,0.0,0.0
1776358809753701648,54117,0.012,0.0,0.0,0.5,-0.04,0.02,-4.75,-3.38,-0.19,-0.07,-0.05,0.09,0.06,-0.06,0.0,179.73,201.0,0.0,0.0,0.0,0.0
1776358809856132571,54217,0.012,0.2,0.0,1.0,-0.08,-0.1,-4.75,-3.38,-0.19,-0.04,-0.07,0.11,-0.0,-0.12,0.0,175.62,197.0,0.0,0.0,0.0,0.0
1776358809954431142,54318,0.0,0.4,0.0,0.4,0.08,-0.23,-4.75,-3.38,-0.19,-0.07,-0.06,0.12,-0.06,-0.0,0.12,179.73,194.0,0.0,0.0,0.0,0.0
1776358810071217535,54418,0.004,0.2,0.0,1.2,-0.02,-0.12,-4.75,-3.38,-0.19,-0.04,-0.07,0.11,-0.0,-0.0,-0.06,175.62,194.0,0.0,0.0,0.0,0.0
1776358810155130099,54518,0.012,0.1,0.0,0.8,0.08,-0.08,-4.75,-3.38,-0.19,-0.07,-0.05,0.12,-0.0,-0.0,0.12,175.62,197.0,0.0,0.0,0.0,0.0
1776358810257515161,54619,0.06,0.2,0.0,0.8,-0.04,-0.1,-4.75,-3.38,-0.19,-0.06,-0.07,0.11,-0.0,-0.06,0.06,179.73,197.0,0.0,0.0,0.0,0.0
1776358810355828811,54719,0.048,0.5,0.036,0.6,0.0,-0.1,-4.75,-3.38,-0.19,-0.07,-0.06,0.13,0.06,0.12,0.0,175.62,203.0,0.0,0.0,0.0,0.0
1776358810458181281,54819,0.0,0.5,0.024,0.5,0.02,-0.18,-4.75,-3.38,-0.19,-0.05,-0.05,0.12,0.19,-0.25,0.0,179.9,200.0,0.0,0.0,0.0,0.0
1776358810556481376,54920,0.0,0.4,0.02,0.3,0.04,-0.02,-4.75,-3.38,-0.19,-0.06,-0.06,0.11,-0.06,-0.0,-0.06,179.73,200.0,0.0,0.0,0.0,0.0
1776358810658916660,55020,0.0,0.8,0.0,0.8,0.06,-0.1,-4.75,-3.38,-0.19,-0.08,-0.06,0.12,0.06,-0.0,0.0,179.56,201.0,0.0,0.0,0.0,0.0
1776358810757218755,55120,0.016,0.2,0.0,0.3,0.0,-0.25,-4.75,-3.38,-0.19,-0.07,-0.04,0.13,0.06,-0.19,0.0,175.1,197.0,0.0,0.0,0.0,0.0
1776358810859618020,55220,0.0,0.9,0.0,0.8,0.02,-0.14,-4.75,-3.38,-0.19,-0.08,-0.04,0.11,-0.0,-0.0,0.06,179.9,197.0,0.0,0.0,0.0,0.0
1776358810957914116,55320,0.0,0.4,0.0,0.8,0.02,-0.14,-4.75,-3.38,-0.19,-0.05,-0.07,0.12,0.06,0.06,0.0,180.42,207.0,0.0,0.0,0.0,0.0
1776358811060313728,55420,0.0,0.7,0.0,0.5,-0.04,-0.12,-4.75,-3.38,-0.19,-0.08,-0.07,0.12,0.12,0.06,0.0,180.42,197.0,0.0,0.0,0.0,0.0
1776358811158616309,55520,0.012,0.6,0.012,0.4,-0.1,-0.23,-4.75,-3.38,-0.19,-0.08,-0.06,0.13,-0.0,-0.06,-0.06,180.42,197.0,0.0,0.0,0.0,0.0
1776358811260996526,55620,0.06,0.4,0.0,1.3,-0.1,-0.14,-4.75,-3.38,-0.19,-0.06,-0.08,0.11,-0.06,0.06,0.0,180.42,195.0,0.0,0.0,0.0,0.0
1776358811359294218,55720,0.0,0.7,0.032,0.9,-0.02,-0.08,-4.75,-3.38,-0.19,-0.07,-0.06,0.13,-0.0,-0.0,0.06,175.79,217.0,0.0,0.0,0.0,0.0
1776358811461650510,55820,0.0,-0.1,0.0,1.0,-0.02,0.04,-4.75,-3.38,-0.19,-0.07,-0.04,0.12,0.06,-0.12,0.12,179.22,217.0,0.0,0.0,0.0,0.0
1776358811560005498,55921,0.024,0.3,0.0,1.1,0.0,-0.2,-4.75,-3.38,-0.19,-0.07,-0.07,0.11,-0.06,-0.0,0.0,175.62,192.0,0.0,0.0,0.0,0.0
1776358811658306505,56020,0.024,0.2,0.0,0.5,0.0,-0.31,-4.75,-3.38,-0.19,-0.07,-0.05,0.13,-0.19,0.06,0.06,175.79,192.0,0.0,0.0,0.0,0.0
1776358811760694796,56121,0.012,0.2,0.004,0.1,0.0,-0.18,-4.75,-3.38,-0.19,-0.09,-0.07,0.13,-0.06,0.25,0.0,179.9,191.0,0.0,0.0,0.0,0.0
1776358811858992951,56221,0.008,0.2,0.0,0.8,-0.02,-0.06,-4.75,-3.38,-0.19,-0.06,-0.07,0.09,0.06,-0.06,0.12,171.33,194.0,0.0,0.0,0.0,0.0
1776358812075234879,56321,0.004,0.2,0.0,0.5,0.04,-0.1,-4.75,-3.38,-0.19,-0.06,-0.07,0.11,-0.06,0.06,0.06,175.62,194.0,0.0,0.0,0.0,0.0
1776358812089571095,56421,0.008,0.9,0.0,0.4,0.0,-0.16,-4.75,-3.38,-0.19,-0.06,-0.06,0.12,-0.0,0.06,0.0,184.53,203.0,0.0,0.0,0.0,0.0
1776358812168151388,56521,0.012,0.1,0.0,1.4,0.08,-0.2,-4.75,-3.38,-0.19,-0.07,-0.07,0.11,0.06,-0.25,0.0,175.62,199.0,0.0,0.0,0.0,0.0
1776358812260382865,56621,0.06,0.1,0.0,1.1,0.0,-0.08,-4.75,-3.38,-0.19,-0.09,-0.06,0.1,0.06,0.06,0.0,175.62,199.0,0.0,0.0,0.0,0.0
1776358812358676374,56721,0.048,0.2,0.04,0.7,-0.14,-0.16,-4.75,-3.38,-0.19,-0.07,-0.06,0.1,0.06,-0.06,0.0,175.62,206.0,0.0,0.0,0.0,0.0
1776358812461064763,56820,0.036,0.0,0.02,0.2,0.06,-0.18,-4.75,-3.38,-0.19,-0.08,-0.05,0.11,-0.12,0.06,0.0,188.82,200.0,0.0,0.0,0.0,0.0
1776358812559417180,56921,0.0,1.0,0.028,0.3,-0.2,-0.1,-4.75,-3.38,-0.19,-0.06,-0.05,0.09,0.06,0.12,0.06,175.62,200.0,0.0,0.0,0.0,0.0
1776358812661765568,57021,0.016,0.1,0.0,0.3,0.0,-0.12,-4.75,-3.38,-0.19,-0.08,-0.06,0.1,-0.06,0.12,0.19,175.62,197.0,0.0,0.0,0.0,0.0
1776358812760078689,57121,0.0,0.3,0.012,1.0,0.06,-0.06,-4.75,-3.38,-0.19,-0.06,-0.06,0.13,-0.06,-0.06,-0.06,175.62,197.0,0.0,0.0,0.0,0.0
1776358812919217706,57222,0.016,0.2,0.0,0.7,-0.02,-0.16,-4.75,-3.38,-0.19,-0.05,-0.06,0.12,0.06,0.12,0.0,175.62,203.0,0.0,0.0,0.0,0.0
1776358812960781735,57322,0.008,0.5,0.0,0.3,-0.04,-0.2,-4.75,-3.38,-0.19,-0.06,-0.06,0.08,-0.12,0.06,0.12,175.62,193.0,0.0,0.0,0.0,0.0
1776358813069267119,57421,0.0,0.5,0.0,0.6,-0.04,-0.08,-4.75,-3.38,-0.19,-0.08,-0.04,0.08,-0.06,-0.25,-0.06,175.62,193.0,0.0,0.0,0.0,0.0
1776358813161501315,57521,0.0,0.4,0.0,1.1,-0.08,0.02,-4.75,-3.38,-0.19,-0.07,-0.05,0.1,-0.0,-0.0,-0.06,175.62,189.0,0.0,0.0,0.0,0.0
1776358813263845429,57622,0.0,0.9,0.052,0.7,-0.1,-0.08,-4.75,-3.38,-0.19,-0.06,-0.07,0.12,-0.06,-0.0,0.0,175.62,196.0,0.0,0.0,0.0,0.0
1776358813362158550,57721,0.044,0.3,0.0,0.8,-0.02,-0.12,-4.75,-3.38,-0.19,-0.05,-0.05,0.1,-0.06,-0.06,0.0,175.62,196.0,0.0,0.0,0.0,0.0
1776358813464525331,57822,0.0,0.7,0.02,0.3,-0.08,-0.1,-4.75,-3.38,-0.19,-0.08,-0.08,0.1,0.06,0.06,-0.06,175.79,198.0,0.0,0.0,0.0,0.0
1776358813562845434,57923,0.028,0.1,0.0,1.3,-0.12,-0.27,-4.75,-3.38,-0.19,-0.06,-0.05,0.12,0.12,-0.12,-0.06,175.62,201.0,0.0,0.0,0.0,0.0
1776358813661135740,58022,0.02,1.0,0.008,0.2,-0.08,-0.16,-4.75,-3.38,-0.19,-0.06,-0.05,0.1,-0.0,-0.06,0.06,179.9,201.0,0.0,0.0,0.0,0.0
1776358813763597539,58123,0.0,0.5,0.0,0.6,-0.12,-0.1,-4.75,-3.38,-0.19,-0.08,-0.05,0.11,0.06,-0.12,0.06,171.5,206.0,0.0,0.0,0.0,0.0
1776358813865956523,58224,0.0,0.4,0.0,1.3,-0.12,-0.16,-4.75,-3.38,-0.19,-0.05,-0.06,0.1,-0.0,-0.31,0.0,175.62,205.0,0.0,0.0,0.0,0.0
1776358813964259496,58323,0.0,0.4,0.0,0.8,0.0,-0.14,-4.75,-3.38,-0.19,-0.06,-0.05,0.1,-0.0,0.06,-0.06,175.62,205.0,0.0,0.0,0.0,0.0
1776358814066653124,58424,0.004,0.2,0.008,0.5,-0.12,-0.06,-4.75,-3.38,-0.19,-0.05,-0.07,0.1,0.06,0.12,0.12,179.9,201.0,0.0,0.0,0.0,0.0
1776358814164952559,58524,0.016,0.2,0.008,0.2,0.0,-0.1,-4.75,-3.38,-0.19,-0.06,-0.04,0.1,-0.0,0.12,0.0,179.73,201.0,0.0,0.0,0.0,0.0
1776358814268506927,58624,0.06,0.1,0.0,0.6,0.02,-0.2,-4.75,-3.38,-0.19,-0.07,-0.06,0.1,-0.0,-0.12,0.06,179.73,199.0,0.0,0.0,0.0,0.0
1776358814365690165,58725,0.048,0.2,0.0,1.1,0.0,-0.04,-4.75,-3.38,-0.19,-0.06,-0.05,0.12,0.06,-0.0,0.0,179.9,200.0,0.0,0.0,0.0,0.0
1776358814463896711,58824,0.0,1.0,0.0,0.9,0.06,-0.14,-4.75,-3.38,-0.19,-0.06,-0.07,0.08,-0.12,-0.0,0.12,179.9,200.0,0.0,0.0,0.0,0.0
1776358814566329122,58925,0.0,0.4,0.0,0.9,0.12,-0.23,-4.75,-3.38,-0.19,-0.06,-0.06,0.08,-0.06,-0.06,0.0,179.9,214.0,0.0,0.0,0.0,0.0
1776358814664628668,59025,0.0,0.4,0.008,0.4,-0.04,-0.1,-4.75,-3.38,-0.19,-0.09,-0.06,0.1,-0.0,0.06,0.06,179.9,202.0,0.0,0.0,0.0,0.0
1776358814762909196,59124,0.012,-0.2,0.0,0.4,-0.14,-0.12,-4.75,-3.38,-0.19,-0.08,-0.05,0.11,0.06,0.06,0.0,175.1,202.0,0.0,0.0,0.0,0.0
1776358814865339903,59224,0.008,0.2,0.0,0.7,-0.1,-0.08,-4.75,-3.38,-0.19,-0.08,-0.06,0.11,0.06,-0.06,0.0,179.9,188.0,0.0,0.0,0.0,0.0
1776358814967770648,59324,0.008,0.2,0.0,1.3,0.04,-0.31,-4.75,-3.38,-0.19,-0.07,-0.05,0.11,-0.0,-0.06,-0.06,175.62,188.0,0.0,0.0,0.0,0.0
1776358815066026039,59424,0.0,1.0,0.0,1.1,0.02,-0.06,-4.75,-3.38,-0.19,-0.06,-0.06,0.09,-0.0,0.06,0.0,179.73,199.0,0.0,0.0,0.0,0.0
1776358815287228941,59525,0.012,0.4,0.0,0.6,0.06,-0.14,-4.75,-3.38,-0.19,-0.06,-0.07,0.1,-0.06,-0.06,0.0,179.9,208.0,0.0,0.0,0.0,0.0
1776358815295444491,59625,0.0,0.4,0.0,0.8,-0.14,-0.16,-4.75,-3.38,-0.19,-0.08,-0.06,0.1,-0.0,-0.0,-0.06,179.73,208.0,0.0,0.0,0.0,0.0
1776358815369139848,59726,0.04,0.2,0.0,0.8,0.04,-0.16,-4.75,-3.38,-0.19,-0.07,-0.06,0.12,-0.0,-0.06,0.0,175.1,192.0,0.0,0.0,0.0,0.0
1776358815467379206,59827,0.0,0.4,0.0,1.1,-0.04,-0.2,-4.75,-3.38,-0.19,-0.08,-0.04,0.12,0.06,-0.12,0.06,174.93,202.0,0.0,0.0,0.0,0.0
1776358815569845616,59927,0.02,0.0,0.0,0.7,0.0,-0.23,-4.75,-3.38,-0.19,-0.07,-0.06,0.11,-0.0,0.12,0.12,170.99,202.0,0.0,0.0,0.0,0.0
1776358815707220808,60026,0.016,0.2,0.0,0.6,-0.1,-0.1,-4.75,-3.38,-0.19,-0.08,-0.06,0.08,0.06,-0.0,0.12,178.7,202.0,0.0,0.0,0.0,0.0
1776358815770524534,60127,0.0,0.1,0.0,1.0,-0.16,-0.04,-4.75,-3.38,-0.19,-0.07,-0.05,0.12,-0.12,-0.0,0.06,179.9,201.0,0.0,0.0,0.0,0.0
1776358815868876095,60228,0.0,0.1,0.012,0.7,0.14,-0.02,-4.75,-3.38,-0.19,-0.08,-0.07,0.1,-0.0,0.06,-0.06,179.9,201.0,0.0,0.0,0.0,0.0
1776358815971217154,60327,0.008,0.3,0.0,0.5,0.12,-0.14,-4.75,-3.38,-0.19,-0.07,-0.05,0.09,-0.0,0.06,0.06,175.62,205.0,0.0,0.0,0.0,0.0
1776358816069524342,60428,0.0,0.8,0.0,0.0,-0.06,-0.08,-4.75,-3.38,-0.19,-0.07,-0.05,0.09,0.06,-0.06,0.0,175.62,201.0,0.0,0.0,0.0,0.0
1776358816171927473,60529,0.0,0.3,0.0,0.8,0.08,-0.08,-4.75,-3.38,-0.19,-0.07,-0.04,0.11,-0.0,0.06,0.06,175.62,201.0,0.0,0.0,0.0,0.0
1776358816270202678,60628,0.0,0.3,0.056,0.5,-0.04,-0.25,-4.75,-3.38,-0.19,-0.08,-0.04,0.1,-0.0,0.06,0.06,179.73,202.0,0.0,0.0,0.0,0.0
1776358816372575532,60728,0.0,0.5,0.0,1.2,-0.06,-0.06,-4.75,-3.38,-0.19,-0.07,-0.06,0.11,-0.06,-0.06,0.0,184.02,202.0,0.0,0.0,0.0,0.0
1776358816470932848,60829,0.0,0.1,0.0,0.5,-0.08,-0.1,-4.75,-3.38,-0.19,-0.06,-0.07,0.13,-0.0,-0.0,0.12,179.73,198.0,0.0,0.0,0.0,0.0
1776358816573289442,60930,0.0,0.5,0.0,1.2,0.02,-0.18,-4.75,-3.38,-0.19,-0.06,-0.06,0.14,0.06,0.06,0.0,175.1,191.0,0.0,0.0,0.0,0.0
1776358816671611536,61030,0.02,0.4,0.0,1.1,-0.1,-0.2,-4.75,-3.38,-0.19,-0.07,-0.07,0.11,0.06,0.06,0.0,170.99,191.0,0.0,0.0,0.0,0.0
1776358816774008815,61130,0.016,0.2,0.0,1.1,0.02,-0.18,-4.75,-3.38,-0.19,-0.06,-0.06,0.11,-0.06,-0.0,0.12,179.73,204.0,0.0,0.0,0.0,0.0
1776358816872299706,61230,0.012,0.1,0.0,1.0,0.04,-0.12,-4.75,-3.38,-0.19,-0.05,-0.05,0.12,0.06,-0.0,0.0,179.9,199.0,0.0,0.0,0.0,0.0
1776358816987247926,61330,0.004,0.3,0.0,1.2,0.0,-0.21,-4.75,-3.38,-0.19,-0.08,-0.04,0.12,0.19,0.06,0.12,175.62,199.0,0.0,0.0,0.0,0.0
1776358817073053075,61431,0.004,1.1,0.0,0.3,0.12,-0.04,-4.75,-3.38,-0.19,-0.08,-0.06,0.12,-0.06,-0.0,0.06,184.71,201.0,0.0,0.0,0.0,0.0
1776358817175400498,61531,0.0,0.1,0.0,0.2,-0.04,-0.18,-4.75,-3.38,-0.19,-0.05,-0.08,0.09,-0.0,0.06,-0.06,175.62,200.0,0.0,0.0,0.0,0.0
1776358817273665179,61632,0.0,0.3,0.0,0.2,-0.04,-0.06,-4.75,-3.38,-0.19,-0.07,-0.06,0.13,0.12,-0.06,-0.06,175.62,200.0,0.0,0.0,0.0,0.0
1776358817371960490,61731,0.0,0.2,0.0,0.5,-0.02,-0.06,-4.75,-3.38,-0.19,-0.07,-0.05,0.11,0.06,-0.12,0.12,179.9,186.0,0.0,0.0,0.0,0.0
1776358817474376598,61831,0.032,0.1,0.0,0.9,-0.04,-0.1,-4.75,-3.38,-0.19,-0.05,-0.06,0.1,-0.0,-0.0,0.12,179.73,186.0,0.0,0.0,0.0,0.0
1776358817576781725,61932,0.0,0.5,0.0,0.8,0.08,-0.18,-4.75,-3.38,-0.19,-0.06,-0.07,0.11,-0.0,0.06,0.12,175.79,210.0,0.0,0.0,0.0,0.0
1776358817675166109,62032,0.0,0.3,0.004,0.7,0.1,-0.31,-4.75,-3.38,-0.19,-0.07,-0.06,0.13,0.12,-0.12,-0.12,179.9,194.0,0.0,0.0,0.0,0.0
1776358817777460699,62132,0.012,0.2,0.0,0.8,0.02,-0.1,-4.75,-3.38,-0.19,-0.07,-0.07,0.11,0.06,0.12,-0.06,178.7,194.0,0.0,0.0,0.0,0.0
1776358817875804676,62233,0.008,0.0,0.0,0.9,0.1,-0.14,-4.75,-3.38,-0.19,-0.05,-0.06,0.15,-0.0,0.19,-0.06,184.02,207.0,0.0,0.0,0.0,0.0
1776358817974064580,62332,0.008,0.6,0.0,0.3,0.04,-0.14,-4.75,-3.38,-0.19,-0.05,-0.06,0.11,-0.0,0.12,-0.06,179.9,195.0,0.0,0.0,0.0,0.0
1776358818091222797,62433,0.0,0.2,0.0,0.5,-0.1,-0.1,-4.75,-3.38,-0.19,-0.06,-0.04,0.11,0.06,0.06,-0.06,175.1,195.0,0.0,0.0,0.0,0.0
1776358818174781858,62533,0.032,0.2,0.0,1.1,0.0,-0.18,-4.75,-3.38,-0.19,-0.08,-0.05,0.08,-0.06,0.06,0.0,175.1,198.0,0.0,0.0,0.0,0.0
1776358818273028494,62632,0.0,0.0,0.0,1.0,-0.02,0.06,-4.75,-3.38,-0.19,-0.06,-0.05,0.12,0.12,-0.0,0.0,175.1,199.0,0.0,0.0,0.0,0.0
1776358818375439245,62732,0.044,-0.1,0.0,0.7,-0.12,-0.04,-4.75,-3.38,-0.19,-0.06,-0.05,0.12,0.06,-0.0,0.0,170.81,199.0,0.0,0.0,0.0,0.0
1776358818473698845,62832,0.028,0.4,0.0,0.7,-0.12,-0.08,-4.75,-3.38,-0.19,-0.07,-0.06,0.1,-0.0,-0.0,0.12,170.81,195.0,0.0,0.0,0.0,0.0
1776358818576175336,62932,0.028,0.6,0.0,0.2,-0.2,-0.14,-4.75,-3.38,-0.19,-0.06,-0.05,0.12,-0.06,-0.0,0.0,170.81,195.0,0.0,0.0,0.0,0.0
1776358818684521046,63032,0.0,0.4,0.0,1.1,0.0,-0.23,-4.75,-3.38,-0.19,-0.06,-0.08,0.13,0.19,-0.06,0.12,170.81,210.0,0.0,0.0,0.0,0.0
1776358818776864742,63133,0.0,0.3,0.0,0.8,-0.02,0.0,-4.75,-3.38,-0.19,-0.1,-0.06,0.11,0.12,-0.0,-0.06,170.81,201.0,0.0,0.0,0.0,0.0
1776358818885350248,63233,0.008,0.3,0.0,0.8,-0.06,-0.23,-4.75,-3.38,-0.19,-0.08,-0.08,0.1,-0.0,0.12,0.0,170.81,201.0,0.0,0.0,0.0,0.0
1776358818977561610,63334,0.008,0.3,0.0,1.0,0.02,-0.14,-4.75,-3.38,-0.19,-0.06,-0.07,0.13,-0.0,0.06,0.0,170.81,194.0,0.0,0.0,0.0,0.0
1776358819075859261,63433,0.004,0.3,0.0,0.3,0.0,-0.21,-4.75,-3.38,-0.19,-0.07,-0.06,0.11,0.06,-0.0,0.0,172.01,208.0,0.0,0.0,0.0,0.0
1776358819195223524,63534,0.024,0.2,0.0,0.3,0.14,-0.08,-4.75,-3.38,-0.19,-0.06,-0.09,0.1,0.06,-0.12,0.0,170.81,208.0,0.0,0.0,0.0,0.0
1776358819276543114,63635,0.0,0.3,0.0,1.1,0.06,-0.08,-4.75,-3.38,-0.19,-0.06,-0.06,0.12,-0.0,-0.0,0.0,170.81,207.0,0.0,0.0,0.0,0.0
1776358819378945339,63734,0.04,0.1,0.032,0.1,0.08,-0.06,-4.75,-3.38,-0.19,-0.08,-0.06,0.12,-0.0,-0.06,0.0,175.1,196.0,0.0,0.0,0.0,0.0
1776358819477193411,63835,0.0,0.6,0.0,1.2,-0.08,-0.2,-4.75,-3.38,-0.19,-0.08,-0.05,0.11,-0.06,0.12,-0.06,170.81,196.0,0.0,0.0,0.0,0.0
1776358819579661247,63935,0.02,0.5,0.0,1.0,0.06,-0.21,-4.75,-3.38,-0.19,-0.06,-0.07,0.1,0.06,-0.12,-0.06,174.93,192.0,0.0,0.0,0.0,0.0
1776358819719217334,64034,0.012,0.2,0.0,0.8,0.0,-0.18,-4.75,-3.38,-0.19,-0.05,-0.06,0.14,0.06,-0.0,0.0,175.1,192.0,0.0,0.0,0.0,0.0
1776358819780347173,64134,0.008,0.4,0.0,0.6,-0.12,-0.08,-4.75,-3.38,-0.19,-0.05,-0.08,0.12,-0.06,-0.12,0.06,175.1,207.0,0.0,0.0,0.0,0.0
1776358819878647782,64234,0.0,0.2,0.0,1.2,0.0,-0.14,-4.75,-3.38,-0.19,-0.06,-0.06,0.12,0.12,-0.06,0.06,179.73,207.0,0.0,0.0,0.0,0.0
1776358819976950002,64333,0.004,0.3,0.0,1.1,-0.02,-0.23,-4.75,-3.38,-0.19,-0.07,-0.08,0.11,-0.19,-0.06,0.06,175.1,207.0,0.0,0.0,0.0,0.0
1776358820079341557,64433,0.0,1.0,0.0,0.8,0.04,-0.1,-4.75,-3.38,-0.19,-0.07,-0.05,0.12,-0.06,-0.06,-0.06,175.1,199.0,0.0,0.0,0.0,0.0
1776358820177644619,64533,0.024,0.2,0.0,1.1,-0.14,-0.16,-4.75,-3.38,-0.19,-0.05,-0.07,0.14,0.06,-0.06,0.0,175.1,205.0,0.0,0.0,0.0,0.0
1776358820275919198,64632,0.052,0.0,0.0,0.6,-0.04,-0.04,-4.75,-3.38,-0.19,-0.09,-0.05,0.13,-0.0,0.06,0.0,183.85,205.0,0.0,0.0,0.0,0.0
1776358820378341711,64732,0.0,0.1,0.044,0.4,-0.12,-0.16,-4.75,-3.38,-0.19,-0.07,-0.06,0.13,0.06,-0.0,-0.06,179.73,208.0,0.0,0.0,0.0,0.0
1776358820476609050,64832,0.0,0.2,0.0,0.5,-0.12,-0.08,-4.75,-3.38,-0.19,-0.06,-0.06,0.11,-0.06,0.06,0.06,179.73,202.0,0.0,0.0,0.0,0.0
1776358820574927315,64932,0.024,0.4,0.0,0.9,-0.12,-0.2,-4.75,-3.38,-0.19,-0.04,-0.05,0.11,-0.0,-0.0,0.06,183.85,202.0,0.0,0.0,0.0,0.0
1776358820677334921,65032,0.02,0.3,0.0,0.2,0.0,-0.29,-4.75,-3.38,-0.19,-0.06,-0.04,0.11,-0.12,0.12,0.0,175.1,197.0,0.0,0.0,0.0,0.0
1776358820775638019,65132,0.0,-0.1,0.008,0.8,-0.1,-0.12,-4.75,-3.38,-0.19,-0.08,-0.06,0.1,0.06,-0.0,0.0,179.73,197.0,0.0,0.0,0.0,0.0
1776358820878032550,65231,0.0,0.7,0.0,0.5,-0.02,-0.08,-4.75,-3.38,-0.19,-0.07,-0.06,0.11,0.12,-0.0,-0.19,179.73,196.0,0.0,0.0,0.0,0.0
1776358820976359852,65332,0.0,0.3,0.0,0.3,-0.04,-0.16,-4.75,-3.38,-0.19,-0.07,-0.06,0.11,-0.0,-0.0,0.0,179.9,206.0,0.0,0.0,0.0,0.0
1776358821074622481,65432,0.0,0.7,0.0,0.3,0.04,-0.31,-4.75,-3.38,-0.19,-0.07,-0.08,0.11,0.06,-0.0,0.06,179.73,206.0,0.0,0.0,0.0,0.0
1776358821177037188,65531,0.0,0.2,0.0,1.0,-0.2,0.0,-4.75,-3.38,-0.19,-0.05,-0.09,0.11,0.06,0.12,0.0,174.93,208.0,0.0,0.0,0.0,0.0
1776358821275312959,65631,0.0,0.5,0.056,0.5,-0.1,-0.18,-4.75,-3.38,-0.19,-0.08,-0.06,0.12,-0.06,-0.06,0.06,170.81,195.0,0.0,0.0,0.0,0.0
1776358821377697999,65732,0.036,0.2,0.0,1.0,0.0,-0.14,-4.75,-3.38,-0.19,-0.09,-0.06,0.12,-0.0,-0.0,0.0,175.1,195.0,0.0,0.0,0.0,0.0
1776358821476028122,65831,0.0,0.9,0.028,0.6,-0.16,-0.21,-4.75,-3.38,-0.19,-0.06,-0.05,0.14,-0.06,0.06,-0.06,174.93,196.0,0.0,0.0,0.0,0.0
1776358821578434477,65932,0.0,0.4,0.008,0.6,0.02,-0.08,-4.75,-3.38,-0.19,-0.07,-0.07,0.13,-0.0,0.06,0.0,175.1,209.0,0.0,0.0,0.0,0.0
1776358821676734952,66033,0.0,0.0,0.0,1.1,0.08,0.1,-4.75,-3.38,-0.19,-0.06,-0.06,0.12,0.19,-0.06,0.0,170.99,209.0,0.0,0.0,0.0,0.0
1776358821779119973,66132,0.012,0.0,0.0,0.0,-0.1,-0.12,-4.75,-3.38,-0.19,-0.06,-0.06,0.12,0.06,-0.0,0.06,175.1,186.0,0.0,0.0,0.0,0.0
1776358821877421189,66233,0.0,0.4,0.008,0.5,0.02,-0.12,-4.75,-3.38,-0.19,-0.07,-0.08,0.13,0.12,-0.12,0.0,175.1,186.0,0.0,0.0,0.0,0.0
1776358821979832766,66333,0.0,0.9,0.0,1.1,-0.06,-0.25,-4.75,-3.38,-0.19,-0.08,-0.04,0.14,-0.0,0.19,0.0,170.99,198.0,0.0,0.0,0.0,0.0
1776358822195218718,66433,0.0,0.5,0.0,1.3,-0.04,-0.18,-4.75,-3.38,-0.19,-0.05,-0.07,0.12,0.12,-0.0,0.0,171.84,198.0,0.0,0.0,0.0,0.0
1776358822208898711,66534,0.028,0.3,0.02,1.2,-0.08,-0.06,-4.75,-3.38,-0.19,-0.08,-0.04,0.13,0.06,-0.06,-0.12,172.01,198.0,0.0,0.0,0.0,0.0
1776358822282908830,66635,0.0,1.0,0.032,0.9,-0.12,-0.12,-4.75,-3.38,-0.19,-0.08,-0.07,0.12,-0.0,-0.06,0.0,170.81,188.0,0.0,0.0,0.0,0.0
1776358822381187625,66735,0.044,0.3,0.0,0.6,-0.08,-0.12,-4.75,-3.38,-0.19,-0.06,-0.07,0.14,0.06,-0.12,0.06,174.93,194.0,0.0,0.0,0.0,0.0
1776358822489613901,66835,0.0,0.0,0.0,0.3,-0.04,-0.16,-4.75,-3.38,-0.19,-0.07,-0.05,0.13,-0.0,-0.12,-0.06,170.99,194.0,0.0,0.0,0.0,0.0
1776358822581904652,66935,0.0,0.6,0.0,1.2,0.02,-0.08,-4.75,-3.38,-0.19,-0.08,-0.05,0.12,0.12,-0.0,0.06,170.81,204.0,0.0,0.0,0.0,0.0
1776358822680213799,67035,0.0,1.0,0.004,0.6,-0.06,-0.18,-4.75,-3.38,-0.19,-0.09,-0.06,0.14,-0.06,-0.06,0.06,175.1,201.0,0.0,0.0,0.0,0.0
1776358822782618568,67135,0.0,0.7,0.0,0.7,0.04,-0.04,-4.75,-3.38,-0.19,-0.09,-0.05,0.12,-0.12,-0.0,0.06,174.93,201.0,0.0,0.0,0.0,0.0
1776358822880898715,67235,0.012,0.1,0.0,0.6,0.06,-0.08,-4.75,-3.38,-0.19,-0.08,-0.06,0.12,-0.0,-0.12,0.0,175.1,200.0,0.0,0.0,0.0,0.0
1776358822983325614,67335,0.0,0.1,0.0,0.2,-0.06,-0.12,-4.75,-3.38,-0.19,-0.07,-0.06,0.13,-0.06,0.06,0.06,175.1,196.0,0.0,0.0,0.0,0.0
1776358823081607738,67435,0.0,0.1,0.0,0.4,-0.02,-0.1,-4.75,-3.38,-0.19,-0.07,-0.08,0.09,-0.0,-0.12,0.0,170.81,196.0,0.0,0.0,0.0,0.0
1776358823179976852,67535,0.0,0.4,0.0,1.0,-0.1,-0.08,-4.75,-3.38,-0.19,-0.06,-0.05,0.12,-0.0,-0.0,0.0,170.81,197.0,0.0,0.0,0.0,0.0
1776358823282291053,67635,0.0,0.2,0.0,1.1,-0.12,-0.12,-4.75,-3.38,-0.19,-0.07,-0.06,0.12,-0.12,0.12,0.0,179.73,197.0,0.0,0.0,0.0,0.0
1776358823380563926,67735,0.048,1.0,0.04,0.3,-0.08,-0.23,-4.75,-3.38,-0.19,-0.07,-0.05,0.11,-0.06,0.06,0.06,179.73,193.0,0.0,0.0,0.0,0.0
1776358823488991099,67834,0.032,0.0,0.0,0.6,-0.04,-0.25,-4.75,-3.38,-0.19,-0.08,-0.04,0.11,-0.0,-0.0,0.0,179.22,198.0,0.0,0.0,0.0,0.0
1776358823581299481,67934,0.0,0.3,0.0,1.0,-0.23,-0.18,-4.75,-3.38,-0.19,-0.07,-0.06,0.13,-0.06,0.19,0.12,175.1,198.0,0.0,0.0,0.0,0.0
1776358823679604447,68034,0.0,1.0,0.004,0.2,0.1,-0.1,-4.75,-3.38,-0.19,-0.08,-0.05,0.11,-0.06,0.19,0.06,174.93,190.0,0.0,0.0,0.0,0.0
1776358823777868542,68133,0.012,0.2,0.0,1.1,0.06,-0.16,-4.75,-3.38,-0.19,-0.08,-0.07,0.11,-0.06,-0.12,0.0,174.93,209.0,0.0,0.0,0.0,0.0
1776358823880296669,68233,0.008,0.2,0.016,1.1,0.0,-0.1,-4.75,-3.38,-0.19,-0.08,-0.07,0.13,-0.12,0.12,-0.06,175.1,209.0,0.0,0.0,0.0,0.0
1776358823978588264,68333,0.0,0.4,0.0,1.3,-0.04,-0.21,-4.75,-3.38,-0.19,-0.09,-0.04,0.12,0.12,-0.0,0.0,170.81,199.0,0.0,0.0,0.0,0.0
1776358824081055882,68433,0.008,0.5,0.0,1.4,-0.1,-0.08,-4.75,-3.38,-0.19,-0.06,-0.07,0.1,-0.0,-0.0,0.12,175.1,199.0,0.0,0.0,0.0,0.0
1776358824179292739,68533,0.036,0.1,0.0,1.1,-0.18,-0.25,-4.75,-3.38,-0.19,-0.06,-0.05,0.11,-0.06,0.12,0.12,170.81,203.0,0.0,0.0,0.0,0.0
1776358824281691148,68633,0.06,0.0,0.0,0.9,-0.04,-0.14,-4.75,-3.38,-0.19,-0.04,-0.07,0.12,0.06,-0.12,-0.12,174.93,204.0,0.0,0.0,0.0,0.0
1776358824379988857,68732,0.04,0.3,0.0,0.9,0.0,-0.16,-4.75,-3.38,-0.19,-0.08,-0.07,0.14,0.06,0.12,0.06,175.1,204.0,0.0,0.0,0.0,0.0
1776358824482344525,68833,0.032,0.3,0.0,0.7,-0.31,-0.25,-4.75,-3.38,-0.19,-0.06,-0.06,0.11,-0.0,-0.06,0.06,170.81,193.0,0.0,0.0,0.0,0.0
1776358824580688956,68933,0.02,0.4,0.0,0.9,-0.1,-0.14,-4.75,-3.38,-0.19,-0.08,-0.05,0.12,0.06,0.06,0.0,175.1,190.0,0.0,0.0,0.0,0.0
1776358824689110229,69033,0.02,0.2,0.0,0.1,-0.12,-0.12,-4.75,-3.38,-0.19,-0.09,-0.02,0.11,-0.0,0.06,0.0,171.84,190.0,0.0,0.0,0.0,0.0
1776358824781386741,69134,0.0,1.0,0.0,1.1,-0.2,-0.27,-4.75,-3.38,-0.19,-0.07,-0.06,0.11,-0.0,0.12,0.0,170.99,195.0,0.0,0.0,0.0,0.0
1776358824889832180,69234,0.0,0.1,0.0,0.6,0.0,-0.2,-4.75,-3.38,-0.19,-0.1,-0.05,0.1,-0.06,-0.0,0.06,170.81,195.0,0.0,0.0,0.0,0.0
1776358824982082507,69334,0.0,0.5,0.0,0.7,-0.14,-0.12,-4.75,-3.38,-0.19,-0.07,-0.05,0.13,-0.06,0.12,0.06,174.93,195.0,0.0,0.0,0.0,0.0
1776358825084485094,69435,0.004,0.4,0.0,0.9,0.2,-0.2,-4.75,-3.38,-0.19,-0.07,-0.06,0.12,0.19,-0.19,0.0,175.1,199.0,0.0,0.0,0.0,0.0
1776358825182782046,69535,0.028,0.0,0.0,0.8,-0.1,-0.02,-4.75,-3.38,-0.19,-0.07,-0.05,0.12,0.06,-0.12,0.06,175.1,193.0,0.0,0.0,0.0,0.0
1776358825285235846,69636,0.052,0.3,0.0,0.5,-0.04,-0.1,-4.75,-3.38,-0.19,-0.09,-0.05,0.12,-0.0,-0.0,0.12,178.7,193.0,0.0,0.0,0.0,0.0
1776358825383442705,69737,0.0,0.4,0.0,0.4,-0.08,0.06,-4.75,-3.38,-0.19,-0.05,-0.06,0.1,0.06,-0.19,-0.06,179.73,196.0,0.0,0.0,0.0,0.0
1776358825485832728,69836,0.0,0.4,0.0,1.1,-0.06,-0.14,-4.75,-3.38,-0.19,-0.09,-0.07,0.08,-0.0,0.19,0.06,179.73,196.0,0.0,0.0,0.0,0.0
1776358825584167364,69936,0.012,0.0,0.0,0.6,-0.06,-0.08,-4.75,-3.38,-0.19,-0.06,-0.04,0.13,-0.12,0.06,0.06,179.73,210.0,0.0,0.0,0.0,0.0
1776358825692540160,70037,0.02,0.2,0.02,0.3,0.0,-0.08,-4.75,-3.38,-0.19,-0.08,-0.07,0.14,0.06,0.19,-0.06,174.93,198.0,0.0,0.0,0.0,0.0
1776358825784870412,70136,0.0,0.1,0.0,0.8,-0.06,-0.14,-4.75,-3.38,-0.19,-0.05,-0.06,0.11,-0.06,-0.0,0.06,175.1,198.0,0.0,0.0,0.0,0.0
1776358825887324101,70237,0.004,0.2,0.0,0.9,-0.02,-0.04,-4.75,-3.38,-0.19,-0.09,-0.06,0.12,0.12,-0.06,0.06,170.99,204.0,0.0,0.0,0.0,0.0
1776358825985576886,70337,0.0,0.2,0.0,0.9,0.0,-0.23,-4.75,-3.38,-0.19,-0.08,-0.07,0.1,-0.0,-0.0,0.12,170.81,192.0,0.0,0.0,0.0,0.0
1776358826083875644,70437,0.0,0.3,0.0,1.1,-0.04,-0.16,-4.75,-3.38,-0.19,-0.05,-0.06,0.12,-0.06,-0.06,0.0,170.81,192.0,0.0,0.0,0.0,0.0
1776358826186263872,70537,0.0,0.9,0.0,0.4,-0.04,-0.04,-4.75,-3.38,-0.19,-0.06,-0.07,0.11,-0.12,-0.06,0.0,175.1,200.0,0.0,0.0,0.0,0.0
1776358826284528046,70637,0.0,0.1,0.052,0.4,0.04,-0.08,-4.75,-3.38,-0.19,-0.08,-0.05,0.12,-0.06,-0.0,0.0,170.81,188.0,0.0,0.0,0.0,0.0
1776358826382834275,70736,0.0,0.6,0.0,1.0,-0.04,-0.12,-4.75,-3.38,-0.19,-0.07,-0.06,0.11,-0.0,-0.06,0.06,170.81,188.0,0.0,0.0,0.0,0.0
1776358826485226596,70836,0.032,0.3,0.0,0.2,-0.04,-0.1,-4.75,-3.38,-0.19,-0.06,-0.06,0.08,-0.06,0.12,0.06,170.81,209.0,0.0,0.0,0.0,0.0
1776358826583561232,70936,0.0,0.7,0.016,0.7,-0.06,-0.1,-4.75,-3.38,-0.19,-0.08,-0.05,0.12,0.12,-0.12,-0.12,170.81,209.0,0.0,0.0,0.0,0.0
1776358826685952034,71035,0.0,0.5,0.0,1.0,0.08,-0.16,-4.75,-3.38,-0.19,-0.07,-0.05,0.12,-0.0,0.06,0.12,175.1,206.0,0.0,0.0,0.0,0.0
1776358826784242856,71136,0.008,0.1,0.0,1.3,0.02,-0.1,-4.75,-3.38,-0.19,-0.06,-0.06,0.12,-0.0,0.12,0.0,170.81,197.0,0.0,0.0,0.0,0.0
1776358826886649621,71237,0.0,1.1,0.0,0.7,0.02,-0.1,-4.75,-3.38,-0.19,-0.07,-0.07,0.11,-0.0,0.06,0.06,175.1,197.0,0.0,0.0,0.0,0.0
1776358826984957406,71336,0.0,0.0,0.0,0.6,-0.1,-0.1,-4.75,-3.38,-0.19,-0.09,-0.06,0.11,0.06,-0.12,0.06,170.81,195.0,0.0,0.0,0.0,0.0
1776358827087347535,71436,0.0,0.9,0.0,0.5,-0.08,-0.14,-4.75,-3.38,-0.19,-0.06,-0.06,0.13,0.12,-0.06,0.06,175.1,195.0,0.0,0.0,0.0,0.0
1776358827185656411,71537,0.0,0.5,0.0,0.9,0.14,-0.1,-4.75,-3.38,-0.19,-0.07,-0.04,0.13,-0.0,0.06,0.06,170.81,195.0,0.0,0.0,0.0,0.0
1776358827283948158,71636,0.06,0.2,0.0,1.3,0.08,-0.04,-4.75,-3.38,-0.19,-0.08,-0.07,0.1,-0.06,0.12,0.0,170.81,198.0,0.0,0.0,0.0,0.0
1776358827386314220,71736,0.04,0.9,0.0,0.8,-0.04,-0.1,-4.75,-3.38,-0.19,-0.05,-0.06,0.11,0.06,0.06,0.06,170.81,191.0,0.0,0.0,0.0,0.0
1776358827484613986,71836,0.0,0.6,0.0,1.3,-0.08,-0.2,-4.75,-3.38,-0.19,-0.06,-0.07,0.14,-0.0,0.06,0.0,175.1,191.0,0.0,0.0,0.0,0.0
1776358827587044622,71936,0.02,0.0,0.0,1.1,0.04,-0.16,-4.75,-3.38,-0.19,-0.08,-0.05,0.09,-0.0,0.19,0.06,175.1,198.0,0.0,0.0,0.0,0.0
1776358827685379054,72036,0.008,0.5,0.0,1.0,0.0,-0.31,-4.75,-3.38,-0.19,-0.08,-0.04,0.09,0.12,-0.0,0.0,175.1,198.0,0.0,0.0,0.0,0.0
1776358827787751671,72136,0.0,1.3,0.0,0.3,0.02,-0.2,-4.75,-3.38,-0.19,-0.06,-0.07,0.12,-0.0,0.06,0.06,175.1,212.0,0.0,0.0,0.0,0.0
1776358827886039677,72237,0.0,0.7,0.0,1.2,0.04,-0.06,-4.75,-3.38,-0.19,-0.08,-0.04,0.12,-0.06,0.06,0.06,170.81,205.0,0.0,0.0,0.0,0.0
1776358827988438702,72338,0.0,0.7,0.0,0.5,-0.14,-0.12,-4.75,-3.38,-0.19,-0.07,-0.06,0.09,0.06,0.06,0.06,170.99,205.0,0.0,0.0,0.0,0.0
1776358828086750404,72438,0.0,0.6,0.0,1.1,-0.08,-0.08,-4.75,-3.38,-0.19,-0.08,-0.06,0.09,0.06,-0.12,0.0,170.99,207.0,0.0,0.0,0.0,0.0
1776358828189150169,72539,0.036,0.9,0.0,1.0,0.02,-0.14,-4.75,-3.38,-0.19,-0.08,-0.06,0.11,-0.0,-0.0,0.12,170.81,190.0,0.0,0.0,0.0,0.0
1776358828287444377,72639,0.052,0.2,0.04,0.5,0.04,-0.08,-4.75,-3.38,-0.19,-0.06,-0.06,0.11,-0.0,-0.0,0.12,170.99,190.0,0.0,0.0,0.0,0.0
1776358828389791179,72739,0.036,0.2,0.04,0.2,-0.06,0.02,-4.75,-3.38,-0.19,-0.03,-0.05,0.09,0.12,-0.12,0.0,170.81,212.0,0.0,0.0,0.0,0.0
1776358828488104646,72839,0.0,0.9,0.0,0.2,-0.1,-0.1,-4.75,-3.38,-0.19,-0.07,-0.06,0.11,-0.0,-0.06,0.0,170.81,198.0,0.0,0.0,0.0,0.0
1776358828590539059,72939,0.0,0.3,0.0,0.5,-0.06,-0.04,-4.75,-3.38,-0.19,-0.07,-0.05,0.09,-0.0,-0.12,0.0,170.81,198.0,0.0,0.0,0.0,0.0
1776358828688861656,73038,0.0,0.8,0.0,1.0,-0.06,-0.16,-4.75,-3.38,-0.19,-0.09,-0.07,0.11,-0.0,-0.0,0.06,170.81,204.0,0.0,0.0,0.0,0.0
1776358828787090660,73139,0.0,0.3,0.0,0.1,0.02,-0.14,-4.75,-3.38,-0.19,-0.06,-0.06,0.07,-0.0,0.12,-0.06,170.81,204.0,0.0,0.0,0.0,0.0
1776358828889530128,73239,0.0,0.1,0.0,1.2,0.1,-0.33,-4.75,-3.38,-0.19,-0.05,-0.05,0.1,0.06,-0.0,-0.12,175.1,202.0,0.0,0.0,0.0,0.0
1776358828987808225,73339,0.008,0.5,0.0,1.1,0.06,-0.1,-4.75,-3.38,-0.19,-0.08,-0.07,0.1,0.06,0.06,0.0,174.93,183.0,0.0,0.0,0.0,0.0
1776358829090236075,73439,0.004,0.7,0.0,0.4,0.0,0.0,-4.75,-3.38,-0.19,-0.08,-0.06,0.11,0.06,-0.06,-0.06,175.1,183.0,0.0,0.0,0.0,0.0
1776358829188576335,73539,0.036,0.3,0.0,1.0,0.04,-0.14,-4.75,-3.38,-0.19,-0.07,-0.05,0.09,-0.19,-0.0,-0.06,174.93,209.0,0.0,0.0,0.0,0.0
1776358829286771743,73638,0.052,0.5,0.0,0.7,0.0,-0.2,-4.75,-3.38,-0.19,-0.07,-0.05,0.11,-0.0,-0.06,0.06,170.81,206.0,0.0,0.0,0.0,0.0
1776358829389237333,73738,0.04,0.4,0.0,0.6,-0.04,-0.12,-4.75,-3.38,-0.19,-0.09,-0.07,0.11,0.06,0.06,0.0,175.1,206.0,0.0,0.0,0.0,0.0
1776358829487511927,73838,0.024,0.2,0.0,0.9,-0.04,0.12,-4.75,-3.38,-0.19,-0.07,-0.06,0.12,-0.06,-0.19,0.0,175.1,210.0,0.0,0.0,0.0,0.0
1776358829595922292,73937,0.0,0.4,0.016,0.5,0.04,-0.25,-4.75,-3.38,-0.19,-0.09,-0.05,0.13,-0.12,-0.0,0.0,170.81,185.0,0.0,0.0,0.0,0.0
1776358829688222445,74037,0.0,1.0,0.0,0.7,0.14,-0.18,-4.75,-3.38,-0.19,-0.08,-0.08,0.07,-0.0,-0.12,0.0,170.81,185.0,0.0,0.0,0.0,0.0
1776358829786517742,74137,0.012,0.3,0.0,1.2,-0.04,-0.18,-4.75,-3.38,-0.19,-0.08,-0.03,0.09,0.06,-0.0,0.06,170.81,207.0,0.0,0.0,0.0,0.0
1776358829888919203,74237,0.0,0.9,0.0,0.7,-0.14,-0.16,-4.75,-3.38,-0.19,-0.06,-0.05,0.11,-0.0,-0.12,0.06,170.81,207.0,0.0,0.0,0.0,0.0
1776358829991314997,74338,0.0,0.4,0.0,0.3,-0.02,-0.14,-4.75,-3.38,-0.19,-0.07,-0.05,0.13,-0.06,-0.0,0.06,170.99,198.0,0.0,0.0,0.0,0.0
1776358830089602823,74439,0.0,0.4,0.0,1.2,0.02,-0.12,-4.75,-3.38,-0.19,-0.09,-0.04,0.1,-0.0,-0.06,0.12,170.81,202.0,0.0,0.0,0.0,0.0
1776358830191988866,74539,0.0,1.1,0.0,1.1,0.12,-0.1,-4.75,-3.38,-0.19,-0.09,-0.06,0.12,0.06,0.06,0.06,179.22,202.0,0.0,0.0,0.0,0.0
1776358830290290325,74639,0.052,0.2,0.0,1.2,-0.14,-0.27,-4.75,-3.38,-0.19,-0.07,-0.06,0.11,-0.0,-0.0,0.12,170.81,203.0,0.0,0.0,0.0,0.0
1776358830388573137,74738,0.032,0.0,0.0,0.9,0.06,-0.02,-4.75,-3.38,-0.19,-0.08,-0.05,0.12,0.12,-0.12,0.06,184.02,201.0,0.0,0.0,0.0,0.0
1776358830490929924,74839,0.032,0.1,0.0,0.8,0.08,-0.04,-4.75,-3.38,-0.19,-0.07,-0.05,0.12,0.19,-0.0,0.12,179.9,201.0,0.0,0.0,0.0,0.0
1776358830589241938,74939,0.02,-0.1,0.0,1.2,-0.14,-0.18,-4.75,-3.38,-0.19,-0.06,-0.07,0.12,0.06,0.12,-0.06,179.9,203.0,0.0,0.0,0.0,0.0
1776358830691652887,75039,0.0,0.8,0.0,0.5,-0.08,0.02,-4.75,-3.38,-0.19,-0.07,-0.05,0.09,0.06,-0.19,0.0,175.62,200.0,0.0,0.0,0.0,0.0
1776358830789952568,75139,0.0,0.6,0.0,1.2,0.08,-0.08,-4.75,-3.38,-0.19,-0.07,-0.04,0.12,-0.12,-0.12,-0.06,175.62,200.0,0.0,0.0,0.0,0.0
1776358830898407142,75239,0.008,0.2,0.0,0.7,0.06,-0.12,-4.75,-3.38,-0.19,-0.07,-0.04,0.1,-0.06,-0.0,-0.06,175.62,203.0,0.0,0.0,0.0,0.0
1776358830990622738,75338,0.012,0.9,0.0,1.1,-0.08,-0.06,-4.75,-3.38,-0.19,-0.08,-0.04,0.1,-0.0,-0.06,-0.06,175.62,203.0,0.0,0.0,0.0,0.0
1776358831088976806,75438,0.004,0.5,0.0,0.3,0.08,-0.16,-4.75,-3.38,-0.19,-0.08,-0.05,0.13,-0.0,-0.06,0.0,179.22,199.0,0.0,0.0,0.0,0.0
1776358831191301101,75538,0.036,0.2,0.04,0.3,0.06,-0.12,-4.75,-3.38,-0.19,-0.07,-0.07,0.16,0.06,-0.06,0.0,175.1,187.0,0.0,0.0,0.0,0.0
1776358831289590708,75638,0.0,0.8,0.0,0.7,0.0,-0.16,-4.75,-3.38,-0.19,-0.08,-0.05,0.12,0.06,-0.12,0.06,175.1,187.0,0.0,0.0,0.0,0.0
1776358831391955093,75738,0.036,0.3,0.044,0.3,-0.12,-0.16,-4.75,-3.38,-0.19,-0.07,-0.06,0.12,0.12,-0.06,0.06,170.81,193.0,0.0,0.0,0.0,0.0
1776358831490227313,75839,0.0,0.5,0.016,0.6,-0.08,-0.2,-4.75,-3.38,-0.19,-0.08,-0.05,0.08,0.06,0.06,0.06,174.93,195.0,0.0,0.0,0.0,0.0
1776358831588568176,75938,0.0,-0.1,0.0,0.8,-0.02,-0.2,-4.75,-3.38,-0.19,-0.1,-0.04,0.12,0.06,-0.0,0.06,170.81,195.0,0.0,0.0,0.0,0.0
1776358831691012868,76038,0.012,0.2,0.0,0.9,-0.1,-0.1,-4.75,-3.38,-0.19,-0.07,-0.06,0.09,0.06,-0.12,0.06,174.93,194.0,0.0,0.0,0.0,0.0
1776358831789253017,76138,0.012,0.4,0.0,0.3,-0.02,-0.21,-4.75,-3.38,-0.19,-0.07,-0.06,0.13,0.06,0.06,0.06,170.81,201.0,0.0,0.0,0.0,0.0
1776358831891635826,76238,0.008,0.1,0.0,0.4,-0.16,-0.16,-4.75,-3.38,-0.19,-0.08,-0.06,0.14,-0.06,0.12,0.0,170.81,201.0,0.0,0.0,0.0,0.0
1776358831989923193,76338,0.0,0.9,0.0,0.5,-0.08,-0.02,-4.75,-3.38,-0.19,-0.06,-0.06,0.12,0.06,0.06,-0.06,170.81,193.0,0.0,0.0,0.0,0.0
1776358832088169652,76438,0.0,0.6,0.0,1.2,0.02,0.1,-4.75,-3.38,-0.19,-0.08,-0.06,0.11,0.06,-0.19,-0.06,170.81,199.0,0.0,0.0,0.0,0.0
1776358832190606959,76537,0.036,0.4,0.0,1.0,-0.02,-0.14,-4.75,-3.38,-0.19,-0.06,-0.04,0.12,-0.06,-0.0,0.0,170.81,199.0,0.0,0.0,0.0,0.0
1776358832288911064,76637,0.0,0.9,0.0,0.8,-0.12,-0.02,-4.75,-3.38,-0.19,-0.06,-0.08,0.13,0.06,-0.0,0.06,170.81,189.0,0.0,0.0,0.0,0.0
1776358832391268137,76737,0.0,0.5,0.0,1.1,-0.02,-0.08,-4.75,-3.38,-0.19,-0.07,-0.06,0.14,0.12,0.19,0.0,170.81,189.0,0.0,0.0,0.0,0.0
1776358832489574038,76837,0.0,0.9,0.024,0.3,-0.04,-0.12,-4.75,-3.38,-0.19,-0.07,-0.06,0.13,-0.0,-0.0,-0.12,170.81,194.0,0.0,0.0,0.0,0.0
1776358832587858311,76937,0.0,1.1,0.016,0.2,0.1,-0.06,-4.75,-3.38,-0.19,-0.07,-0.05,0.11,0.12,-0.06,-0.06,170.81,203.0,0.0,0.0,0.0,0.0
1776358832690271324,77037,0.0,0.2,0.008,0.5,0.02,-0.18,-4.75,-3.38,-0.19,-0.07,-0.07,0.14,0.19,0.06,-0.06,170.81,203.0,0.0,0.0,0.0,0.0
1776358832788555764,77136,0.008,0.3,0.004,0.4,0.0,-0.2,-4.75,-3.38,-0.19,-0.09,-0.05,0.1,0.06,-0.0,0.06,174.93,197.0,0.0,0.0,0.0,0.0
1776358832890952685,77237,0.0,0.2,0.0,0.8,-0.1,-0.16,-4.75,-3.38,-0.19,-0.07,-0.07,0.11,0.06,-0.0,0.06,175.1,201.0,0.0,0.0,0.0,0.0
1776358832989239940,77338,0.008,0.5,0.0,0.5,0.06,-0.04,-4.75,-3.38,-0.19,-0.06,-0.04,0.12,-0.06,0.06,0.0,170.81,201.0,0.0,0.0,0.0,0.0
1776358833091619195,77437,0.0,0.7,0.0,0.8,-0.02,-0.29,-4.75,-3.38,-0.19,-0.06,-0.07,0.12,-0.12,-0.06,0.12,170.81,207.0,0.0,0.0,0.0,0.0
1776358833189919611,77537,0.036,0.3,0.032,0.3,0.06,-0.14,-4.75,-3.38,-0.19,-0.08,-0.05,0.12,-0.06,-0.06,-0.06,175.1,207.0,0.0,0.0,0.0,0.0
1776358833292268038,77637,0.0,1.1,0.044,0.8,0.08,-0.1,-4.75,-3.38,-0.19,-0.08,-0.05,0.09,-0.06,0.19,-0.06,170.81,190.0,0.0,0.0,0.0,0.0
1776358833390558028,77737,0.0,0.3,0.036,0.5,0.02,-0.12,-4.75,-3.38,-0.19,-0.08,-0.06,0.12,-0.06,-0.06,0.06,171.84,208.0,0.0,0.0,0.0,0.0
1776358833492991763,77838,0.028,0.9,0.0,0.8,-0.02,0.02,-4.75,-3.38,-0.19,-0.06,-0.08,0.12,0.06,-0.0,-0.06,175.1,208.0,0.0,0.0,0.0,0.0
1776358833591279291,77938,0.016,0.1,0.0,0.9,-0.06,-0.14,-4.75,-3.38,-0.19,-0.08,-0.06,0.13,-0.12,0.06,-0.06,174.93,205.0,0.0,0.0,0.0,0.0
1776358833693679251,78039,0.012,0.3,0.004,0.5,-0.08,-0.1,-4.75,-3.38,-0.19,-0.08,-0.05,0.13,0.06,-0.0,0.0,174.93,200.0,0.0,0.0,0.0,0.0
1776358833791968908,78139,0.016,0.3,0.0,0.3,-0.06,-0.21,-4.75,-3.38,-0.19,-0.07,-0.07,0.12,-0.12,0.19,0.06,174.93,200.0,0.0,0.0,0.0,0.0
1776358833894355573,78239,0.0,0.6,0.0,0.3,-0.06,-0.14,-4.75,-3.38,-0.19,-0.07,-0.08,0.12,0.12,-0.0,0.06,170.81,197.0,0.0,0.0,0.0,0.0
1776358833992662784,78340,0.0,0.3,0.0,0.8,-0.14,-0.25,-4.75,-3.38,-0.19,-0.06,-0.06,0.1,-0.0,0.06,-0.12,170.81,201.0,0.0,0.0,0.0,0.0
1776358834095051229,78440,0.0,0.0,0.0,0.9,-0.08,-0.12,-4.75,-3.38,-0.19,-0.08,-0.07,0.14,-0.0,0.12,-0.12,174.93,201.0,0.0,0.0,0.0,0.0
1776358834193332177,78540,0.0,0.5,0.0,1.1,-0.06,-0.37,-4.75,-3.38,-0.19,-0.09,-0.06,0.11,0.12,-0.06,0.0,179.73,198.0,0.0,0.0,0.0,0.0
1776358834295680492,78640,0.0,0.0,0.0,0.9,-0.18,-0.18,-4.75,-3.38,-0.19,-0.07,-0.06,0.1,0.06,-0.12,-0.06,174.93,195.0,0.0,0.0,0.0,0.0
1776358834393973643,78740,0.0,0.1,0.0,1.1,0.04,-0.06,-4.75,-3.38,-0.19,-0.08,-0.07,0.12,-0.0,-0.0,0.06,174.93,195.0,0.0,0.0,0.0,0.0
1776358834492260610,78840,0.028,-0.2,0.02,0.5,-0.08,-0.06,-4.75,-3.38,-0.19,-0.07,-0.06,0.13,0.19,0.12,0.12,170.81,201.0,0.0,0.0,0.0,0.0
1776358834594702899,78940,0.02,0.2,0.0,1.3,0.08,-0.21,-4.75,-3.38,-0.19,-0.08,-0.08,0.12,-0.0,-0.06,-0.06,179.22,201.0,0.0,0.0,0.0,0.0
1776358834692976088,79040,0.016,0.3,0.008,0.0,0.0,-0.12,-4.75,-3.38,-0.19,-0.08,-0.06,0.11,-0.0,-0.06,0.0,175.1,200.0,0.0,0.0,0.0,0.0
1776358834795372918,79140,0.0,0.3,0.0,0.9,-0.02,-0.16,-4.75,-3.38,-0.19,-0.08,-0.07,0.13,0.06,-0.0,0.0,175.1,197.0,0.0,0.0,0.0,0.0
1776358834903833495,79241,0.004,0.2,0.0,0.7,-0.04,-0.14,-4.75,-3.38,-0.19,-0.1,-0.07,0.14,0.06,-0.19,-0.06,170.81,197.0,0.0,0.0,0.0,0.0
1776358834996046011,79342,0.008,0.3,0.0,0.2,-0.08,-0.2,-4.75,-3.38,-0.19,-0.08,-0.07,0.12,-0.06,0.06,0.06,174.93,196.0,0.0,0.0,0.0,0.0
1776358835094341070,79441,0.0,1.0,0.0,0.5,0.08,-0.12,-4.75,-3.38,-0.19,-0.07,-0.07,0.12,-0.0,-0.0,0.0,174.93,204.0,0.0,0.0,0.0,0.0
1776358835196761821,79541,0.0,0.6,0.0,0.1,-0.06,-0.25,-4.75,-3.38,-0.19,-0.07,-0.05,0.12,0.12,-0.0,-0.06,170.81,204.0,0.0,0.0,0.0,0.0
1776358835295025355,79642,0.0,0.2,0.0,0.7,0.06,-0.1,-4.75,-3.38,-0.19,-0.06,-0.06,0.11,0.06,-0.12,0.0,170.81,198.0,0.0,0.0,0.0,0.0
1776358835397369482,79742,0.0,0.6,0.0,1.0,-0.14,-0.02,-4.75,-3.38,-0.19,-0.07,-0.04,0.1,-0.0,0.25,0.0,170.81,194.0,0.0,0.0,0.0,0.0
1776358835495641405,79843,0.0,0.3,0.02,1.3,-0.06,-0.16,-4.75,-3.38,-0.19,-0.08,-0.06,0.12,0.06,-0.0,-0.06,175.1,194.0,0.0,0.0,0.0,0.0
1776358835598097134,79943,0.02,0.4,0.0,1.2,-0.04,-0.1,-4.75,-3.38,-0.19,-0.07,-0.05,0.12,-0.0,0.06,-0.12,174.93,195.0,0.0,0.0,0.0,0.0
1776358835696383889,80043,0.016,0.2,0.0,1.1,-0.04,-0.18,-4.75,-3.38,-0.19,-0.05,-0.03,0.12,0.06,-0.19,0.0,170.81,195.0,0.0,0.0,0.0,0.0
1776358835798782123,80144,0.012,0.2,0.0,0.7,-0.1,-0.04,-4.75,-3.38,-0.19,-0.08,-0.06,0.13,-0.0,-0.0,0.12,174.93,190.0,0.0,0.0,0.0,0.0
1776358835897066082,80243,0.004,0.0,0.0,0.1,0.04,-0.14,-4.75,-3.38,-0.19,-0.09,-0.05,0.12,-0.0,-0.12,0.06,171.84,201.0,0.0,0.0,0.0,0.0
1776358835999447632,80344,0.0,0.2,0.0,0.9,0.04,-0.25,-4.75,-3.38,-0.19,-0.07,-0.05,0.13,-0.12,-0.12,0.0,170.81,201.0,0.0,0.0,0.0,0.0
1776358836097749593,80445,0.004,0.3,0.0,1.2,-0.02,-0.27,-4.75,-3.38,-0.19,-0.08,-0.05,0.16,-0.0,0.06,0.0,170.81,199.0,0.0,0.0,0.0,0.0
1776358836200137009,80544,0.044,0.1,0.0,0.9,-0.1,-0.18,-4.75,-3.38,-0.19,-0.08,-0.07,0.14,-0.06,0.12,0.12,174.93,200.0,0.0,0.0,0.0,0.0
1776358836298446919,80644,0.0,0.0,0.0,0.9,-0.04,-0.08,-4.75,-3.38,-0.19,-0.1,-0.04,0.11,-0.06,-0.12,0.0,174.93,200.0,0.0,0.0,0.0,0.0
1776358836396722146,80744,0.04,0.0,0.0,0.9,-0.21,-0.04,-4.75,-3.38,-0.19,-0.07,-0.07,0.12,0.06,-0.12,0.06,174.93,191.0,0.0,0.0,0.0,0.0
1776358836499081767,80843,0.0,0.5,0.0,0.5,-0.1,-0.2,-4.75,-3.38,-0.19,-0.07,-0.04,0.1,-0.06,-0.0,0.06,175.1,202.0,0.0,0.0,0.0,0.0
1776358836597414749,80943,0.0,0.4,0.0,0.9,0.02,0.0,-4.75,-3.38,-0.19,-0.05,-0.06,0.12,-0.0,0.06,0.06,170.81,202.0,0.0,0.0,0.0,0.0
1776358836699797072,81043,0.012,0.4,0.0,0.2,-0.04,-0.14,-4.75,-3.38,-0.19,-0.07,-0.06,0.11,0.12,0.12,0.06,170.81,203.0,0.0,0.0,0.0,0.0
1776358836798103871,81143,0.0,0.6,0.0,1.0,-0.08,-0.04,-4.75,-3.38,-0.19,-0.08,-0.05,0.12,-0.06,0.06,-0.12,175.1,203.0,0.0,0.0,0.0,0.0
1776358836900482231,81243,0.004,0.1,0.004,0.1,-0.04,0.0,-4.75,-3.38,-0.19,-0.08,-0.06,0.11,-0.0,0.06,0.0,174.93,206.0,0.0,0.0,0.0,0.0
1776358836998768773,81344,0.004,0.1,0.0,0.9,0.04,0.0,-4.75,-3.38,-0.19,-0.08,-0.05,0.11,-0.06,-0.06,0.0,170.81,202.0,0.0,0.0,0.0,0.0
1776358837097067143,81443,0.0,0.4,0.0,0.3,0.12,0.0,-4.75,-3.38,-0.19,-0.07,-0.06,0.1,-0.0,-0.06,0.0,175.1,202.0,0.0,0.0,0.0,0.0
1776358837199458088,81544,0.048,0.2,0.0,0.6,-0.02,-0.18,-4.75,-3.38,-0.19,-0.08,-0.07,0.1,0.06,-0.12,-0.06,175.1,204.0,0.0,0.0,0.0,0.0
1776358837297754191,81644,0.056,0.2,0.0,0.7,-0.12,-0.21,-4.75,-3.38,-0.19,-0.07,-0.06,0.12,-0.12,0.06,0.0,170.81,197.0,0.0,0.0,0.0,0.0
1776358837400103029,81743,0.032,0.2,0.036,0.6,-0.16,-0.21,-4.75,-3.38,-0.19,-0.07,-0.05,0.12,0.06,0.12,-0.06,175.1,197.0,0.0,0.0,0.0,0.0
1776358837498423852,81843,0.0,0.4,0.0,1.0,-0.06,-0.1,-4.75,-3.38,-0.19,-0.08,-0.04,0.12,-0.19,-0.06,0.0,174.93,203.0,0.0,0.0,0.0,0.0
1776358837596726436,81943,0.0,0.2,0.0,0.5,0.1,-0.08,-4.75,-3.38,-0.19,-0.06,-0.05,0.12,-0.06,-0.12,0.0,174.93,207.0,0.0,0.0,0.0,0.0
1776358837699108937,82042,0.012,0.2,0.004,0.7,0.0,-0.14,-4.75,-3.38,-0.19,-0.07,-0.06,0.12,-0.06,0.06,0.06,179.22,207.0,0.0,0.0,0.0,0.0
1776358837797422835,82142,0.004,0.4,0.0,0.4,0.04,-0.21,-4.75,-3.38,-0.19,-0.06,-0.06,0.12,-0.0,0.06,0.0,174.93,201.0,0.0,0.0,0.0,0.0
1776358837905829905,82242,0.004,-0.1,0.0,1.1,-0.06,-0.18,-4.75,-3.38,-0.19,-0.09,-0.07,0.12,0.12,0.12,0.06,174.93,201.0,0.0,0.0,0.0,0.0
1776358837998091681,82342,0.008,0.3,0.0,1.2,-0.08,-0.12,-4.75,-3.38,-0.19,-0.09,-0.07,0.13,-0.0,-0.0,0.06,174.93,203.0,0.0,0.0,0.0,0.0
1776358838100484144,82443,0.004,0.2,0.0,0.3,0.12,-0.18,-4.75,-3.38,-0.19,-0.08,-0.05,0.12,-0.0,-0.12,0.0,174.93,204.0,0.0,0.0,0.0,0.0
1776358838198758309,82544,0.0,0.7,0.0,0.8,-0.12,-0.16,-4.75,-3.38,-0.19,-0.06,-0.06,0.11,-0.06,0.06,0.0,174.93,204.0,0.0,0.0,0.0,0.0
1776358838297046603,82643,0.0,0.3,0.0,1.2,-0.04,-0.12,-4.75,-3.38,-0.19,-0.08,-0.06,0.09,-0.0,0.06,0.06,179.22,191.0,0.0,0.0,0.0,0.0
1776358838399423818,82743,0.0,0.2,0.0,1.1,0.06,0.04,-4.75,-3.38,-0.19,-0.07,-0.06,0.13,-0.06,-0.06,-0.06,174.93,201.0,0.0,0.0,0.0,0.0
1776358838497707520,82844,0.0,0.6,0.016,0.2,0.0,-0.16,-4.75,-3.38,-0.19,-0.08,-0.05,0.1,-0.0,0.12,0.0,174.93,201.0,0.0,0.0,0.0,0.0
1776358838600136990,82944,0.0,0.1,0.0,0.7,-0.04,-0.12,-4.75,-3.38,-0.19,-0.08,-0.06,0.11,-0.0,-0.06,0.0,175.1,204.0,0.0,0.0,0.0,0.0
1776358838698483428,83044,0.02,0.0,0.0,1.0,-0.04,-0.18,-4.75,-3.38,-0.19,-0.07,-0.07,0.13,0.06,0.12,-0.06,175.1,209.0,0.0,0.0,0.0,0.0
1776358838806785522,83143,0.012,0.8,0.0,0.5,0.0,-0.2,-4.75,-3.38,-0.19,-0.06,-0.06,0.1,0.06,-0.19,-0.06,174.93,209.0,0.0,0.0,0.0,0.0
1776358838899125957,83243,0.0,0.7,0.0,0.7,0.0,-0.04,-4.75,-3.38,-0.19,-0.06,-0.06,0.11,-0.0,-0.12,-0.12,174.76,190.0,0.0,0.0,0.0,0.0
1776358839001507042,83344,0.004,0.2,0.0,0.9,0.02,-0.02,-4.75,-3.38,-0.19,-0.08,-0.07,0.1,-0.06,0.06,0.06,175.1,208.0,0.0,0.0,0.0,0.0
1776358839099793893,83443,0.0,0.3,0.004,0.5,0.04,-0.18,-4.75,-3.38,-0.19,-0.05,-0.06,0.12,-0.06,-0.06,0.12,174.93,208.0,0.0,0.0,0.0,0.0
1776358839198100559,83543,0.0,0.4,0.0,0.8,0.06,-0.1,-4.75,-3.38,-0.19,-0.08,-0.06,0.14,-0.0,-0.06,0.0,174.93,195.0,0.0,0.0,0.0,0.0
1776358839300531870,83643,0.0,0.2,0.0,0.7,0.0,-0.16,-4.75,-3.38,-0.19,-0.08,-0.04,0.11,-0.0,-0.0,0.0,174.93,195.0,0.0,0.0,0.0,0.0
1776358839398759320,83743,0.0,0.2,0.036,0.5,0.02,-0.16,-4.75,-3.38,-0.19,-0.06,-0.05,0.13,-0.06,-0.0,0.06,170.81,196.0,0.0,0.0,0.0,0.0
1776358839501158041,83844,0.0,0.4,0.0,0.2,-0.12,-0.14,-4.75,-3.38,-0.19,-0.07,-0.03,0.1,-0.06,0.06,-0.06,171.84,200.0,0.0,0.0,0.0,0.0
1776358839599423192,83945,0.016,0.2,0.0,1.2,0.0,-0.08,-4.75,-3.38,-0.19,-0.09,-0.06,0.12,0.06,-0.12,0.06,170.81,200.0,0.0,0.0,0.0,0.0
1776358839701847393,84044,0.008,0.3,0.0,0.9,-0.02,-0.12,-4.75,-3.38,-0.19,-0.06,-0.04,0.11,-0.0,-0.0,0.06,170.81,197.0,0.0,0.0,0.0,0.0
1776358839800102840,84145,0.012,0.2,0.0,0.9,0.04,-0.14,-4.75,-3.38,-0.19,-0.08,-0.05,0.12,-0.12,0.06,0.06,174.93,194.0,0.0,0.0,0.0,0.0
1776358839902568576,84245,0.012,0.1,0.0,0.9,0.02,-0.04,-4.75,-3.38,-0.19,-0.07,-0.06,0.12,-0.0,-0.06,0.06,170.81,194.0,0.0,0.0,0.0,0.0
1776358840000831282,84344,0.0,0.4,0.0,0.2,0.02,-0.16,-4.75,-3.38,-0.19,-0.07,-0.06,0.12,-0.06,0.12,0.0,174.93,204.0,0.0,0.0,0.0,0.0
1776358840099085728,84444,0.0,0.1,0.0,1.2,-0.04,-0.1,-4.75,-3.38,-0.19,-0.06,-0.07,0.1,-0.12,-0.19,-0.06,170.81,204.0,0.0,0.0,0.0,0.0
1776358840201500843,84544,0.0,1.0,0.032,0.7,0.06,-0.12,-4.75,-3.38,-0.19,-0.09,-0.05,0.12,-0.0,-0.06,0.06,170.81,204.0,0.0,0.0,0.0,0.0
1776358840299792956,84643,0.0,0.3,0.052,1.1,0.1,-0.1,-4.75,-3.38,-0.19,-0.1,-0.07,0.12,-0.12,-0.12,0.06,170.81,192.0,0.0,0.0,0.0,0.0
1776358840398040053,84743,0.032,0.0,0.0,1.0,-0.04,-0.06,-4.75,-3.38,-0.19,-0.08,-0.06,0.11,0.06,-0.0,0.06,174.93,192.0,0.0,0.0,0.0,0.0
1776358840500442058,84843,0.0,0.4,0.0,1.2,0.06,-0.2,-4.75,-3.38,-0.19,-0.09,-0.05,0.12,-0.06,-0.0,-0.06,174.93,207.0,0.0,0.0,0.0,0.0
1776358840598747559,84943,0.0,0.3,0.0,0.8,0.0,-0.23,-4.75,-3.38,-0.19,-0.09,-0.06,0.1,0.12,-0.0,0.06,175.1,205.0,0.0,0.0,0.0,0.0
1776358840701158897,85044,0.0,0.6,0.004,0.5,0.12,-0.04,-4.75,-3.38,-0.19,-0.07,-0.07,0.12,-0.0,-0.06,0.06,170.81,205.0,0.0,0.0,0.0,0.0
1776358840803542663,85145,0.0,0.6,0.0,1.2,-0.02,-0.08,-4.75,-3.38,-0.19,-0.06,-0.07,0.12,-0.0,-0.06,-0.12,175.1,198.0,0.0,0.0,0.0,0.0
1776358840901837534,85244,0.0,1.2,0.0,0.6,-0.14,-0.14,-4.75,-3.38,-0.19,-0.04,-0.07,0.11,0.19,-0.19,0.06,174.93,199.0,0.0,0.0,0.0,0.0
1776358841000094205,85344,0.0,0.9,0.0,1.0,-0.02,-0.14,-4.75,-3.38,-0.19,-0.06,-0.07,0.09,-0.0,-0.12,-0.06,174.93,199.0,0.0,0.0,0.0,0.0
1776358841102522209,85444,0.0,0.4,0.0,1.2,0.0,-0.14,-4.75,-3.38,-0.19,-0.09,-0.04,0.13,0.12,-0.0,0.0,175.1,194.0,0.0,0.0,0.0,0.0
1776358841200830524,85544,0.04,0.1,0.036,0.5,0.04,-0.04,-4.75,-3.38,-0.19,-0.06,-0.08,0.12,-0.12,-0.12,0.0,174.93,194.0,0.0,0.0,0.0,0.0
1776358841303259643,85644,0.0,0.3,0.0,1.0,-0.04,-0.16,-4.75,-3.38,-0.19,-0.08,-0.05,0.11,0.06,0.06,0.0,174.93,194.0,0.0,0.0,0.0,0.0
1776358841401465632,85744,0.0,0.6,0.024,0.3,0.0,-0.08,-4.75,-3.38,-0.19,-0.06,-0.06,0.09,0.12,-0.19,0.0,175.1,207.0,0.0,0.0,0.0,0.0
1776358841499766540,85843,0.0,0.4,0.0,1.0,-0.1,-0.18,-4.75,-3.38,-0.19,-0.08,-0.05,0.09,-0.0,-0.06,0.0,175.1,207.0,0.0,0.0,0.0,0.0
1776358841602198491,85944,0.024,0.3,0.0,0.2,-0.06,-0.14,-4.75,-3.38,-0.19,-0.08,-0.04,0.1,-0.0,-0.19,0.0,174.93,198.0,0.0,0.0,0.0,0.0
1776358841710641115,86045,0.0,0.1,0.0,0.7,-0.06,0.02,-4.75,-3.38,-0.19,-0.07,-0.05,0.1,0.06,-0.06,-0.06,175.1,194.0,0.0,0.0,0.0,0.0
1776358841802873318,86145,0.016,0.1,0.0,1.0,-0.1,-0.12,-4.75,-3.38,-0.19,-0.09,-0.08,0.08,0.12,-0.12,-0.06,174.93,194.0,0.0,0.0,0.0,0.0
1776358841905250626,86246,0.0,0.1,0.0,1.0,-0.06,-0.02,-4.75,-3.38,-0.19,-0.05,-0.08,0.11,0.06,0.12,0.06,174.93,188.0,0.0,0.0,0.0,0.0
1776358842003540498,86345,0.0,0.2,0.0,0.3,-0.08,-0.18,-4.75,-3.38,-0.19,-0.07,-0.07,0.12,0.06,-0.06,-0.06,183.16,213.0,0.0,0.0,0.0,0.0
1776358842105939602,86446,0.0,0.3,0.0,0.1,0.02,-0.25,-4.75,-3.38,-0.19,-0.08,-0.03,0.11,-0.0,-0.0,-0.06,175.1,213.0,0.0,0.0,0.0,0.0
1776358842204244082,86546,0.044,0.3,0.0,0.8,-0.02,-0.1,-4.75,-3.38,-0.19,-0.08,-0.06,0.11,-0.06,-0.0,0.0,179.73,202.0,0.0,0.0,0.0,0.0
1776358842302501139,86645,0.044,0.5,0.0,0.8,-0.14,-0.04,-4.75,-3.38,-0.19,-0.09,-0.06,0.12,0.12,-0.12,0.0,173.9,195.0,0.0,0.0,0.0,0.0
1776358842404875134,86746,0.036,0.1,0.0,0.9,0.0,-0.16,-4.75,-3.38,-0.19,-0.05,-0.06,0.1,-0.0,0.19,0.0,175.1,195.0,0.0,0.0,0.0,0.0
1776358842503214149,86846,0.028,0.2,0.0,1.0,0.02,-0.16,-4.75,-3.38,-0.19,-0.07,-0.04,0.13,-0.06,-0.0,0.0,170.81,203.0,0.0,0.0,0.0,0.0
1776358842605596643,86946,0.0,0.4,0.0,1.1,-0.12,-0.18,-4.75,-3.38,-0.19,-0.05,-0.05,0.11,-0.0,-0.0,0.0,175.1,203.0,0.0,0.0,0.0,0.0
1776358842707994267,87047,0.012,0.3,0.0,1.2,-0.02,-0.18,-4.75,-3.38,-0.19,-0.08,-0.08,0.1,0.06,0.19,0.06,175.1,199.0,0.0,0.0,0.0,0.0
1776358842806287710,87148,0.0,0.0,0.0,0.8,-0.08,-0.08,-4.75,-3.38,-0.19,-0.09,-0.07,0.11,-0.06,-0.06,0.0,179.73,197.0,0.0,0.0,0.0,0.0
1776358842904570506,87248,0.0,0.9,0.012,0.7,-0.02,-0.2,-4.75,-3.38,-0.19,-0.07,-0.05,0.12,0.12,0.06,0.0,179.73,197.0,0.0,0.0,0.0,0.0
1776358843006962704,87348,0.0,1.0,0.0,0.7,0.02,-0.23,-4.75,-3.38,-0.19,-0.08,-0.05,0.1,-0.06,-0.0,0.06,175.44,194.0,0.0,0.0,0.0,0.0
1776358843115292851,87449,0.004,0.9,0.008,0.9,0.1,-0.16,-4.75,-3.38,-0.19,-0.07,-0.04,0.11,0.12,0.06,0.06,175.62,199.0,0.0,0.0,0.0,0.0
1776358843207653175,87548,0.052,0.3,0.0,1.4,-0.02,-0.1,-4.75,-3.38,-0.19,-0.09,-0.05,0.1,-0.06,-0.0,-0.06,175.62,199.0,0.0,0.0,0.0,0.0
1776358843305948003,87648,0.056,0.5,0.04,0.4,-0.12,-0.1,-4.75,-3.38,-0.19,-0.07,-0.06,0.1,-0.12,-0.12,-0.06,184.02,193.0,0.0,0.0,0.0,0.0
1776358843408298297,87748,0.04,0.2,0.024,0.1,-0.18,-0.12,-4.75,-3.38,-0.19,-0.06,-0.06,0.1,0.12,-0.06,-0.12,183.85,200.0,0.0,0.0,0.0,0.0
1776358843506612124,87848,0.0,0.4,0.0,0.3,0.0,-0.14,-4.75,-3.38,-0.19,-0.08,-0.07,0.1,0.12,-0.06,0.0,174.93,200.0,0.0,0.0,0.0,0.0
1776358843609014970,87948,0.0,0.1,0.0,1.0,-0.04,-0.06,-4.75,-3.38,-0.19,-0.07,-0.02,0.11,0.06,-0.0,0.06,174.93,192.0,0.0,0.0,0.0,0.0
1776358843707313872,88048,0.012,0.4,0.004,0.3,-0.02,-0.08,-4.75,-3.38,-0.19,-0.07,-0.06,0.07,-0.12,-0.19,0.0,170.81,192.0,0.0,0.0,0.0,0.0
1776358843805659679,88147,0.012,0.6,0.0,0.5,-0.02,-0.14,-4.75,-3.38,-0.19,-0.07,-0.06,0.12,0.12,-0.0,0.0,170.81,196.0,0.0,0.0,0.0,0.0
1776358843908004251,88248,0.008,0.2,0.0,0.8,-0.04,-0.18,-4.75,-3.38,-0.19,-0.08,-0.06,0.11,-0.0,-0.0,0.06,170.81,206.0,0.0,0.0,0.0,0.0
1776358844006282803,88348,0.008,0.1,0.0,1.2,-0.08,-0.23,-4.75,-3.38,-0.19,-0.08,-0.09,0.1,0.06,-0.06,-0.06,170.81,206.0,0.0,0.0,0.0,0.0
1776358844108689240,88448,0.0,0.5,0.0,0.9,0.1,-0.31,-4.75,-3.38,-0.19,-0.05,-0.05,0.12,-0.06,-0.0,0.0,184.02,194.0,0.0,0.0,0.0,0.0
1776358844206964990,88548,0.044,0.4,0.0,0.9,0.08,-0.16,-4.75,-3.38,-0.19,-0.08,-0.05,0.12,-0.0,-0.0,0.06,174.93,194.0,0.0,0.0,0.0,0.0
1776358844305284385,88647,0.048,0.2,0.0,1.0,-0.04,-0.06,-4.75,-3.38,-0.19,-0.06,-0.06,0.14,-0.06,-0.12,0.0,184.02,194.0,0.0,0.0,0.0,0.0
1776358844407629160,88747,0.0,0.2,0.0,1.0,0.02,-0.06,-4.75,-3.38,-0.19,-0.08,-0.07,0.11,-0.06,-0.0,0.0,174.93,203.0,0.0,0.0,0.0,0.0
1776358844505919520,88847,0.0,0.3,0.0,0.8,-0.04,-0.14,-4.75,-3.38,-0.19,-0.05,-0.09,0.11,-0.06,-0.06,-0.06,183.85,199.0,0.0,0.0,0.0,0.0
1776358844614373053,88947,0.0,0.0,0.0,0.2,0.12,-0.14,-4.75,-3.38,-0.19,-0.06,-0.05,0.12,-0.0,-0.0,-0.06,179.73,199.0,0.0,0.0,0.0,0.0
1776358844706641445,89047,0.0,0.5,0.0,1.0,-0.04,-0.14,-4.75,-3.38,-0.19,-0.07,-0.05,0.13,-0.06,0.06,0.06,174.93,204.0,0.0,0.0,0.0,0.0
1776358844808992405,89147,0.0,0.9,0.0,0.5,-0.04,-0.02,-4.75,-3.38,-0.19,-0.08,-0.06,0.12,0.06,-0.0,0.06,174.93,204.0,0.0,0.0,0.0,0.0
1776358844907325595,89248,0.012,0.1,0.0,0.7,0.04,0.0,-4.75,-3.38,-0.19,-0.07,-0.05,0.12,-0.12,-0.0,-0.06,175.1,210.0,0.0,0.0,0.0,0.0
1776358845009709782,89349,0.008,0.1,0.0,0.9,-0.12,-0.06,-4.75,-3.38,-0.19,-0.06,-0.06,0.12,0.06,-0.06,0.0,174.93,195.0,0.0,0.0,0.0,0.0
1776358845108008023,89450,0.0,0.9,0.0,0.5,-0.08,-0.1,-4.75,-3.38,-0.19,-0.08,-0.05,0.12,0.06,0.19,0.0,174.93,195.0,0.0,0.0,0.0,0.0
1776358847575246319,89549,0.052,0.0,0.056,0.3,-0.04,-0.1,-4.75,-3.38,-0.19,-0.1,-0.05,0.11,-0.0,-0.0,0.06,174.93,190.0,0.0,0.0,0.0,0.0
1776358847579957408,89649,0.0,0.5,0.04,1.0,0.02,-0.18,-4.75,-3.38,-0.19,-0.08,-0.07,0.13,0.06,-0.0,0.0,174.93,196.0,0.0,0.0,0.0,0.0
1776358847587103324,89749,0.0,0.7,0.024,0.6,-0.04,-0.12,-4.75,-3.38,-0.19,-0.07,-0.07,0.12,0.19,-0.06,-0.06,179.22,196.0,0.0,0.0,0.0,0.0
1776358847610439838,89848,0.0,0.3,0.0,0.8,-0.2,-0.12,-4.75,-3.38,-0.19,-0.09,-0.04,0.14,-0.0,-0.0,0.06,183.85,196.0,0.0,0.0,0.0,0.0
1776358847618790399,89948,0.0,0.3,0.0,1.1,0.06,-0.04,-4.75,-3.38,-0.19,-0.08,-0.06,0.12,0.06,-0.0,0.12,183.85,192.0,0.0,0.0,0.0,0.0
1776358847627010023,90048,0.0,0.7,0.0,0.3,0.12,0.0,-4.75,-3.38,-0.19,-0.07,-0.06,0.13,-0.0,-0.0,0.06,174.93,192.0,0.0,0.0,0.0,0.0
1776358847639283075,90147,0.0,0.5,0.004,1.0,-0.12,-0.14,-4.75,-3.38,-0.19,-0.08,-0.05,0.12,0.06,0.06,0.06,174.93,198.0,0.0,0.0,0.0,0.0
1776358847755215527,90247,0.012,0.2,0.0,0.6,-0.08,-0.1,-4.75,-3.38,-0.19,-0.09,-0.06,0.09,-0.12,-0.0,0.0,174.93,198.0,0.0,0.0,0.0,0.0
1776358847811104857,90348,0.0,0.1,0.0,0.6,-0.12,-0.16,-4.75,-3.38,-0.19,-0.09,-0.06,0.14,0.06,-0.0,0.0,174.93,203.0,0.0,0.0,0.0,0.0
1776358847824216855,90447,0.0,0.3,0.0,1.0,0.04,-0.29,-4.75,-3.38,-0.19,-0.07,-0.05,0.17,0.06,-0.0,0.0,175.1,198.0,0.0,0.0,0.0,0.0
1776358847836013363,90548,0.056,0.2,0.044,0.3,0.08,-0.18,-4.75,-3.38,-0.19,-0.08,-0.07,0.13,0.06,-0.0,-0.06,179.22,198.0,0.0,0.0,0.0,0.0
1776358847909384654,90649,0.052,1.0,0.048,1.0,0.08,-0.2,-4.75,-3.38,-0.19,-0.08,-0.06,0.12,-0.0,0.06,-0.12,174.93,196.0,0.0,0.0,0.0,0.0
1776358847921852508,90748,0.04,0.3,0.0,1.0,0.06,-0.14,-4.75,-3.38,-0.19,-0.07,-0.06,0.1,-0.0,-0.06,0.0,175.1,202.0,0.0,0.0,0.0,0.0
1776358847934394117,90849,0.028,0.4,0.0,0.8,0.04,-0.21,-4.75,-3.38,-0.19,-0.11,-0.05,0.12,-0.19,0.06,0.0,174.93,202.0,0.0,0.0,0.0,0.0
1776358847946350078,90950,0.02,0.2,0.0,0.8,0.08,-0.16,-4.75,-3.38,-0.19,-0.08,-0.08,0.1,-0.0,-0.0,0.06,170.81,197.0,0.0,0.0,0.0,0.0
1776358848011774043,91049,0.0,0.2,0.012,0.3,0.02,-0.06,-4.75,-3.38,-0.19,-0.07,-0.05,0.13,-0.0,0.06,0.0,170.81,199.0,0.0,0.0,0.0,0.0
1776358848024015590,91149,0.008,1.0,0.0,1.0,0.14,-0.1,-4.75,-3.38,-0.19,-0.07,-0.06,0.11,-0.0,-0.06,0.06,174.93,199.0,0.0,0.0,0.0,0.0
1776358848036103185,91249,0.0,0.2,0.0,0.2,0.04,-0.18,-4.75,-3.38,-0.19,-0.08,-0.06,0.14,0.06,-0.19,-0.06,174.59,195.0,0.0,0.0,0.0,0.0
1776358848047932295,91350,0.0,0.1,0.0,0.5,0.06,-0.12,-4.75,-3.38,-0.19,-0.09,-0.04,0.1,-0.0,0.12,-0.06,170.81,195.0,0.0,0.0,0.0,0.0
1776358848110081215,91450,0.008,0.6,0.0,1.2,0.0,-0.23,-4.75,-3.38,-0.19,-0.07,-0.05,0.12,0.12,-0.06,0.06,170.81,201.0,0.0,0.0,0.0,0.0
