timestamp_ns,time_ms,voltage_left,current_left_ma,voltage_right,current_right_ma,motor_current_left,motor_current_right,euler_x,euler_y,euler_z,acc_lin_x,acc_lin_y,acc_lin_z,gyro_x,gyro_y,gyro_z,sonar_mm,tof_mm,rpm_left,rpm_right,rotations_left,rotations_right
1775764365330136660,207672,0.0,0.7,0.008,0.2,-0.04,-0.04,-94.19,-4.38,-0.81,-0.22,0.02,-1.15,-7.06,-1.25,-9.69,0.0,-9.5,1030.71,1067.0,0.0,0.0
1775764365620030559,207672,0.0,0.7,0.008,0.2,-0.04,-0.04,-94.19,-4.38,-0.81,-0.22,0.02,-1.15,-7.06,-1.25,-9.69,0.0,-9.5,1030.71,1067.0,0.0,0.0
1775764367550879198,207672,0.0,0.7,0.008,0.2,-0.04,-0.04,-94.19,-4.38,-0.81,-0.22,0.02,-1.15,-7.06,-1.25,-9.69,,,,,,
1775764367635107829,1913,0.0,0.9,0.0,0.2,0.02,-0.14,4.31,-0.25,-4.5,0.25,0.42,-0.92,-1.5,0.56,-2.56,1184.04,1732.0,0.0,0.0,0.0,0.0
1775764367737576244,2014,0.0,1.1,0.0,0.2,-0.02,-0.02,4.31,0.06,-5.06,0.82,0.44,-0.52,-0.5,3.94,2.25,1185.75,1985.0,0.0,0.0,0.0,0.0
1775764367839976510,2115,0.0,1.1,0.0,0.5,-0.14,-0.02,4.31,-0.31,-5.63,0.53,0.19,-0.28,-1.75,8.25,-0.75,1148.02,1985.0,0.0,0.0,0.0,0.0
1775764367938275641,2214,0.0,0.9,0.0,0.2,0.02,-0.12,4.0,-0.81,-6.94,0.59,0.17,-0.03,-8.0,8.75,-4.56,1160.54,2024.0,0.0,0.0,0.0,0.0
1775764368036564284,2315,0.0,0.7,0.0,0.2,0.04,-0.12,3.38,-1.19,-7.38,-0.3,0.22,0.19,2.75,1.69,-6.75,1213.19,1504.0,0.0,0.0,0.0,0.0
1775764368138946168,2414,0.0,0.7,0.0,0.7,0.04,-0.06,2.56,-0.88,-6.56,0.19,0.03,-0.13,8.88,-2.5,-10.38,1136.87,1504.0,0.0,0.0,0.0,0.0
1775764368237254143,2513,0.0,1.0,0.016,0.5,-0.04,-0.12,1.0,-0.63,-6.44,-1.93,-0.7,0.0,-6.25,-3.63,-20.19,157.61,1600.0,0.0,0.0,0.0,0.0
1775764368335530636,2613,0.0,0.7,0.032,0.2,0.06,-0.27,-0.81,0.19,-7.31,-1.43,-0.92,-0.44,-14.81,-6.25,-16.5,1182.84,2217.0,0.0,0.0,0.0,0.0
1775764368437943835,2713,0.0,1.1,0.0,0.3,0.04,-0.02,-1.63,0.75,-7.94,0.05,-0.61,-0.47,5.19,-0.25,-3.44,1204.44,2217.0,0.0,0.0,0.0,0.0
1775764368538590551,2812,0.0,1.2,0.004,0.4,-0.16,-0.04,-1.81,0.69,-7.25,-0.99,-0.57,-0.88,2.06,1.19,-1.69,1166.37,1911.0,0.0,0.0,0.0,0.0
1775764368644696215,2913,0.0,0.7,0.0,0.5,-0.02,-0.14,-1.69,0.5,-7.25,-0.16,-0.64,-0.67,-3.13,-0.63,3.06,1204.1,1817.0,0.0,0.0,0.0,0.0
1775764368736950280,3012,0.0,1.1,0.0,0.3,-0.06,-0.21,-1.31,0.5,-7.44,0.35,-0.23,-0.81,-0.19,-3.19,4.44,1197.24,1817.0,0.0,0.0,0.0,0.0
1775764368835255921,3111,0.0,0.7,0.0,0.6,0.04,-0.1,-0.69,0.63,-7.63,0.43,-0.35,-0.07,4.19,-6.0,9.0,1212.16,2063.0,0.0,0.0,0.0,0.0
1775764369167600246,3212,0.0,0.9,0.0,0.6,-0.06,-0.1,0.19,1.19,-7.25,-0.02,-0.22,0.35,3.25,-7.25,7.75,1165.51,2063.0,0.0,0.0,0.0,0.0
1775764369236669537,3312,0.0,0.9,0.0,0.3,0.04,-0.12,1.37,1.19,-6.81,-0.51,-0.3,0.29,7.38,4.31,15.0,1189.35,2333.0,0.0,0.0,0.0,0.0
1775764369243045980,3412,0.0,1.0,0.0,0.4,-0.1,-0.14,2.5,0.5,-6.13,-0.2,-0.31,-0.34,-3.81,1.25,10.56,154.35,1577.0,0.0,0.0,0.0,0.0
1775764369245819219,3513,0.0,1.0,0.024,0.3,0.06,-0.2,3.94,0.25,-6.94,-1.14,0.22,0.0,-10.06,1.5,18.06,153.32,1577.0,0.0,0.0,0.0,0.0
1775764369339004336,3613,0.0,1.0,0.024,0.6,0.06,-0.08,5.44,-0.12,-7.88,-1.41,0.62,-0.55,-9.63,5.06,10.25,153.32,706.0,0.0,0.0,0.0,0.0
1775764369437332174,3713,0.0,0.9,0.004,0.4,-0.06,-0.14,5.94,-0.69,-8.44,-0.04,0.19,-0.38,1.5,3.88,1.37,1226.91,1197.0,0.0,0.0,0.0,0.0
1775764369535645307,3813,0.0,0.9,0.0,0.2,-0.04,-0.14,6.13,-0.81,-7.81,-0.49,0.48,-1.09,4.69,-0.06,2.13,1231.71,1197.0,0.0,0.0,0.0,0.0
1775764369638078291,3912,0.0,0.9,0.0,0.6,0.14,-0.1,6.13,-1.0,-7.5,0.02,0.51,-0.58,5.38,5.31,-1.12,1211.99,698.0,0.0,0.0,0.0,0.0
1775764369736350536,4013,0.0,0.9,0.0,0.2,0.0,-0.2,5.94,-1.56,-6.56,0.86,0.17,-0.68,9.38,6.31,-3.06,153.32,698.0,0.0,0.0,0.0,0.0
1775764369859591402,4113,0.0,1.0,0.0,0.3,0.04,-0.18,5.31,-2.06,-6.25,0.23,0.33,0.27,-1.0,8.44,-8.5,153.32,992.0,0.0,0.0,0.0,0.0
1775764369937027209,4212,0.0,1.1,0.0,0.4,-0.06,0.02,4.25,-2.75,-7.06,0.93,0.34,0.25,-13.13,8.44,-14.56,153.32,916.0,0.0,0.0,0.0,0.0
1775764370039412527,4313,0.0,0.9,0.0,0.4,-0.04,-0.16,2.13,-2.5,-8.69,-1.41,0.34,0.34,-15.63,-6.56,-27.12,149.03,916.0,0.0,0.0,0.0,0.0
1775764370137733912,4413,0.0,1.2,0.0,0.6,-0.02,0.0,-0.06,-1.56,-9.56,-1.82,-0.34,-0.36,1.06,-4.5,-17.87,158.64,2508.0,0.0,0.0,0.0,0.0
1775764370235961928,4513,0.0,0.9,0.012,0.3,-0.04,-0.08,-1.63,-1.06,-9.31,-0.42,-0.63,-0.94,0.12,-1.12,-14.75,153.32,2594.0,0.0,0.0,0.0,0.0
1775764370338400679,4613,0.0,1.0,0.016,0.5,0.02,-0.08,-2.5,-1.0,-8.94,-0.73,-0.26,-0.66,8.56,2.0,-3.13,154.35,2594.0,0.0,0.0,0.0,0.0
1775764370436706805,4714,0.0,0.9,0.008,0.1,-0.08,-0.1,-2.75,-1.37,-8.19,0.02,-0.09,-0.61,3.88,2.63,-3.19,157.44,2513.0,0.0,0.0,0.0,0.0
1775764370539118575,4813,0.0,1.1,0.0,0.3,-0.04,-0.1,-2.5,-1.25,-7.88,0.07,-0.15,-0.57,3.19,-3.94,8.63,153.32,1545.0,0.0,0.0,0.0,0.0
1775764370637430313,4913,0.0,0.5,0.0,0.3,-0.21,-0.1,-1.25,-1.0,-8.06,0.45,-0.37,-0.7,-4.25,-5.63,14.75,153.32,1545.0,0.0,0.0,0.0,0.0
1775764370755599879,5013,0.0,1.1,0.0,0.3,0.06,-0.16,0.5,-0.69,-8.38,0.64,-0.55,-0.5,-1.25,-6.69,16.62,153.32,1428.0,0.0,0.0,0.0,0.0
1775764370838131153,5112,0.0,1.0,0.0,0.2,0.02,-0.02,1.56,-1.0,-9.31,0.77,-0.57,-0.05,2.06,-8.75,7.5,152.12,1658.0,0.0,0.0,0.0,0.0
1775764370936405410,5212,0.012,0.3,0.0,1.3,0.1,-0.06,2.69,-0.94,-10.25,-0.9,-0.03,0.23,-7.31,-5.0,12.38,1261.04,1658.0,0.0,0.0,0.0,0.0
1775764371038832142,5313,0.016,0.5,0.0,0.4,-0.06,-0.31,3.94,-1.12,-10.81,-2.47,0.5,0.04,-3.25,5.0,11.63,153.32,2259.0,0.0,0.0,0.0,0.0
1775764371137128207,5412,0.0,1.5,0.0,0.3,-0.1,-0.16,4.56,-1.94,-10.69,-1.21,0.53,0.25,13.56,9.5,2.06,153.32,2259.0,0.0,0.0,0.0,0.0
1775764371239606503,5512,0.0,1.4,0.024,0.1,-0.1,-0.02,4.75,-2.44,-8.69,-1.07,0.5,-1.08,15.38,1.06,5.25,153.32,2573.0,0.0,0.0,0.0,0.0
1775764371337793753,5613,0.0,1.4,0.0,0.5,0.04,-0.08,5.19,-2.56,-8.06,-0.69,0.67,-0.26,-4.06,4.19,0.19,149.03,716.0,0.0,0.0,0.0,0.0
1775764371446147631,5712,0.0,1.2,0.0,0.5,0.06,0.0,4.63,-2.75,-7.81,-0.23,0.47,-0.67,5.31,0.31,-7.94,158.47,716.0,0.0,0.0,0.0,0.0
1775764371538508707,5813,0.0,1.3,0.0,0.6,-0.02,-0.08,4.06,-2.69,-8.13,0.22,0.51,-0.56,-7.13,4.5,-5.19,154.35,2713.0,0.0,0.0,0.0,0.0
1775764371640917634,5914,0.0,1.4,0.0,0.4,0.0,-0.18,3.0,-2.69,-9.13,-0.01,0.5,0.08,-4.75,6.75,-12.88,157.44,2458.0,0.0,0.0,0.0,0.0
1775764371739211920,6013,0.0,1.2,0.0,0.5,0.04,-0.06,1.63,-2.63,-9.13,-1.09,0.35,0.52,7.06,-4.31,-15.31,157.44,2458.0,0.0,0.0,0.0,0.0
1775764371841621977,6113,0.0,1.2,0.0,0.1,-0.04,-0.08,0.06,-1.88,-8.63,-0.76,0.33,0.01,-0.19,-3.81,-17.06,158.47,2881.0,0.0,0.0,0.0,0.0
1775764371939918911,6214,0.0,1.3,0.0,0.6,-0.04,-0.12,-1.94,-0.94,-9.25,-2.12,-0.39,-0.3,-11.0,-8.31,-22.31,161.72,2881.0,0.0,0.0,0.0,0.0
1775764372038212735,6313,0.0,1.2,0.0,0.1,-0.04,-0.06,-3.38,-0.0,-9.88,-0.12,-0.51,-0.28,-2.5,-6.06,-8.31,161.72,2041.0,0.0,0.0,0.0,0.0
1775764372140614152,6413,0.0,1.3,0.0,0.5,-0.08,-0.2,-3.63,-0.12,-8.81,-0.56,-0.25,-0.8,15.56,6.44,0.63,1231.54,1119.0,0.0,0.0,0.0,0.0
1775764372238875322,6513,0.0,1.4,0.004,0.4,0.02,-0.02,-3.75,-0.44,-8.06,-0.38,-0.33,-0.73,1.12,-1.19,-2.06,1203.42,1119.0,0.0,0.0,0.0,0.0
1775764372337131436,6612,0.0,1.4,0.0,0.4,0.04,-0.18,-3.31,-0.06,-8.31,0.36,-0.1,-0.96,-4.31,-5.63,8.56,1295.85,1669.0,0.0,0.0,0.0,0.0
1775764372439582409,6713,0.0,1.3,0.0,0.5,-0.08,-0.14,-2.38,0.12,-8.44,0.53,-0.68,-0.27,1.37,-4.81,11.13,1165.86,1978.0,0.0,0.0,0.0,0.0
1775764372537904819,6812,0.0,1.3,0.0,0.4,-0.12,-0.16,-1.37,0.5,-8.38,0.39,-0.19,0.39,-0.12,-2.13,6.63,169.96,1978.0,0.0,0.0,0.0,0.0
1775764372640303736,6912,0.0,1.4,0.0,0.1,-0.02,-0.14,-0.81,0.12,-7.81,-1.43,0.01,0.89,14.88,9.06,10.25,148.52,936.0,0.0,0.0,0.0,0.0
1775764372738598221,7012,0.0,1.3,0.0,0.3,0.04,-0.16,0.37,-0.94,-6.38,-1.43,0.65,-0.26,7.75,7.56,10.5,149.72,2561.0,0.0,0.0,0.0,0.0
1775764372836898186,7112,0.0,1.2,0.0,0.3,-0.04,-0.08,0.75,-1.56,-6.19,-0.85,0.3,0.11,-0.25,4.88,-0.88,148.52,2561.0,0.0,0.0,0.0,0.0
1775764372939308807,7212,0.0,1.4,0.0,0.3,0.23,-0.12,0.81,-1.5,-6.5,-0.58,0.61,-1.33,-9.88,-2.81,1.56,165.84,2018.0,0.0,0.0,0.0,0.0
1775764373037597921,7312,0.0,1.4,0.0,0.3,0.1,-0.04,0.75,-1.44,-7.56,0.04,0.55,-0.84,-6.81,5.06,-2.31,1199.47,1836.0,0.0,0.0,0.0,0.0
1775764373140000775,7412,0.0,1.5,0.0,0.3,0.02,-0.16,0.56,-1.94,-7.63,0.6,0.42,-1.12,0.56,3.5,-1.56,157.44,1836.0,0.0,0.0,0.0,0.0
1775764373238264476,7512,0.0,1.4,0.0,0.3,0.02,-0.04,-0.06,-2.0,-8.5,0.2,0.32,-0.04,-16.94,2.13,-12.56,153.32,2127.0,0.0,0.0,0.0,0.0
1775764373340658496,7612,0.0,1.4,0.0,0.6,-0.16,-0.2,-1.88,-1.75,-10.19,-0.73,0.15,1.23,-10.94,-1.75,-27.0,153.32,2127.0,0.0,0.0,0.0,0.0
1775764373447581777,7712,0.0,1.2,0.02,0.1,-0.04,-0.12,-4.69,-0.37,-10.25,-2.72,-0.44,0.6,5.38,-15.19,-28.81,157.61,1667.0,0.0,0.0,0.0,0.0
1775764373537264787,7812,0.02,0.3,0.0,1.1,-0.04,-0.08,-6.94,1.44,-10.25,-0.45,-0.44,-0.61,-5.81,-13.0,-20.81,157.44,2037.0,0.0,0.0,0.0,0.0
1775764373639681918,7912,0.028,0.2,0.0,1.1,-0.16,-0.12,-8.31,2.44,-10.56,-1.05,-0.7,-0.89,-2.63,-9.13,-9.63,153.32,2037.0,0.0,0.0,0.0,0.0
1775764373871593527,8011,0.012,0.1,0.0,0.1,-0.12,-0.06,-8.69,4.13,-11.44,-0.73,-0.06,-0.88,-13.0,-18.0,-4.5,153.49,1081.0,0.0,0.0,0.0,0.0
1775764373938699767,8112,0.0,0.8,0.0,0.6,0.04,-0.2,-9.06,5.0,-12.31,0.12,0.18,-0.86,-4.44,-0.19,-3.06,1278.02,1322.0,0.0,0.0,0.0,0.0
1775764373952159922,8213,0.0,0.2,0.0,1.3,0.02,-0.16,-8.69,4.0,-12.5,0.24,-0.34,-0.79,-0.37,12.0,12.56,1257.09,1322.0,0.0,0.0,0.0,0.0
1775764374041079479,8312,0.0,0.0,0.0,1.6,-0.21,0.06,-7.06,2.88,-12.5,0.23,-0.23,-0.43,2.56,3.5,17.81,153.32,1538.0,0.0,0.0,0.0,0.0
1775764374139396453,8413,0.0,0.3,0.0,1.3,0.06,-0.1,-5.88,2.69,-12.25,1.0,0.02,0.1,2.94,-4.06,8.38,166.01,1538.0,0.0,0.0,0.0,0.0
1775764374241742002,8513,0.032,1.3,0.008,0.6,-0.02,-0.2,-4.13,3.0,-12.31,-1.95,0.15,0.77,-0.06,-8.06,27.75,161.72,2075.0,0.0,0.0,0.0,0.0
1775764374340064995,8612,0.0,1.4,0.0,0.2,0.06,-0.16,-0.81,2.5,-12.69,-2.04,1.04,0.73,-2.0,6.5,32.06,165.84,1930.0,0.0,0.0,0.0,0.0
1775764374438383025,8712,0.0,1.2,0.0,0.4,-0.02,-0.04,0.75,0.81,-11.75,-0.94,0.65,-0.43,22.44,15.69,10.69,161.72,1930.0,0.0,0.0,0.0,0.0
1775764374540781315,8812,0.0,1.4,0.0,0.2,-0.02,-0.12,1.88,-0.81,-10.44,-1.26,0.36,-0.83,-2.38,12.13,19.81,165.84,2212.0,0.0,0.0,0.0,0.0
1775764374667641590,8912,0.0,1.4,0.0,0.1,-0.02,-0.08,3.69,-1.69,-11.0,-0.56,0.44,-0.4,-4.13,-0.94,13.75,157.44,1206.0,0.0,0.0,0.0,0.0
1775764374741477283,9012,0.0,1.3,0.0,0.0,0.12,-0.2,4.75,-2.0,-11.0,0.01,0.41,-0.7,2.31,6.5,8.5,157.61,1206.0,0.0,0.0,0.0,0.0
1775764374839829257,9112,0.0,1.3,0.0,0.2,-0.08,-0.02,5.13,-2.75,-11.19,0.03,0.21,-0.71,-5.44,10.0,-1.19,1183.52,2019.0,0.0,0.0,0.0,0.0
1775764374938075009,9211,0.0,1.5,0.0,0.3,0.06,0.0,4.75,-3.0,-11.94,-0.02,-0.06,-0.08,-3.88,-7.13,-3.5,1287.96,2202.0,0.0,0.0,0.0,0.0
1775764375040452029,9311,0.0,1.4,0.0,0.3,-0.14,-0.16,4.06,-1.37,-11.5,-1.0,0.07,0.32,13.56,-20.81,-14.0,1212.16,2202.0,0.0,0.0,0.0,0.0
1775764375138762370,9412,0.0,1.5,0.0,0.6,-0.02,-0.02,2.69,0.75,-9.69,-1.04,-0.06,-0.06,11.63,-13.69,-19.44,161.72,1823.0,0.0,0.0,0.0,0.0
1775764375241172041,9512,0.0,1.5,0.016,0.1,-0.06,-0.21,0.81,2.19,-8.75,-2.3,-0.32,0.26,1.81,-13.0,-18.56,165.84,2577.0,0.0,0.0,0.0,0.0
1775764375343535583,9613,0.0,1.3,0.0,0.5,-0.12,-0.2,-0.31,3.19,-8.81,-0.85,-0.33,0.02,-0.25,-5.31,-5.5,145.43,2577.0,0.0,0.0,0.0,0.0
1775764375441896645,9714,0.0,1.5,0.0,0.5,-0.08,-0.04,-0.25,3.44,-8.06,-0.79,-0.07,-0.65,9.69,2.31,2.38,1189.52,1386.0,0.0,0.0,0.0,0.0
1775764375540105079,9814,0.0,1.4,0.0,0.3,0.0,-0.06,-0.06,2.69,-7.25,-0.71,-0.48,-0.51,-0.06,6.56,2.19,161.72,1386.0,0.0,0.0,0.0,0.0
1775764375642564843,9914,0.0,1.2,0.0,0.4,0.08,-0.12,0.37,2.13,-7.06,-0.34,-0.28,-0.26,1.5,0.94,7.13,1219.36,1061.0,0.0,0.0,0.0,0.0
1775764375740858406,10013,0.0,1.2,0.0,0.4,-0.02,-0.18,1.0,2.19,-6.94,0.08,-0.64,-0.22,0.88,-1.37,5.19,1160.71,1453.0,0.0,0.0,0.0,0.0
1775764375839126951,10113,0.0,1.4,0.0,0.3,-0.14,0.0,1.69,2.13,-7.13,-0.48,-0.69,-0.11,-5.63,-1.88,11.5,166.87,1453.0,0.0,0.0,0.0,0.0
1775764375941551807,10213,0.0,1.4,0.0,0.3,0.0,-0.14,3.25,1.94,-7.5,-0.65,0.08,-0.09,-7.63,-1.25,17.12,1215.08,2776.0,0.0,0.0,0.0,0.0
1775764376039853777,10312,0.0,1.2,0.0,0.2,-0.02,-0.14,4.63,1.37,-8.06,-0.79,0.18,0.0,-3.13,5.38,12.13,1225.71,1583.0,0.0,0.0,0.0,0.0
1775764376142265257,10412,0.0,1.2,0.0,0.3,0.0,-0.21,5.81,0.56,-7.75,-1.32,0.44,-0.34,-3.69,8.31,14.38,1283.85,1583.0,0.0,0.0,0.0,0.0
1775764376240512502,10512,0.0,1.4,0.0,0.1,0.0,-0.1,6.94,0.06,-7.81,-0.36,0.8,-0.28,-9.13,6.19,6.63,157.44,1602.0,0.0,0.0,0.0,0.0
1775764376338806987,10611,0.0,1.5,0.0,0.3,0.0,-0.18,6.63,-0.06,-8.06,-0.58,0.67,-0.16,2.81,0.19,-10.44,1282.65,1980.0,0.0,0.0,0.0,0.0
1775764376441213448,10712,0.0,1.3,0.0,0.2,0.02,-0.16,5.31,0.19,-8.0,-0.35,0.46,-0.81,-5.75,1.0,-14.63,1259.32,1980.0,0.0,0.0,0.0,0.0
1775764376539493823,10813,0.0,1.2,0.0,0.4,-0.06,-0.12,3.88,0.19,-8.5,-0.11,0.29,-0.12,-1.0,3.0,-18.31,170.13,1112.0,0.0,0.0,0.0,0.0
1775764376675615433,10913,0.0,1.2,0.0,0.3,-0.02,-0.08,1.75,0.69,-8.31,-0.64,-0.63,-0.4,5.31,-6.69,-19.75,1231.88,1112.0,0.0,0.0,0.0,0.0
1775764376744351411,11014,0.0,1.2,0.0,0.3,-0.14,0.0,0.12,1.5,-7.94,0.17,0.16,-0.42,-0.75,0.31,-20.69,170.13,2378.0,0.0,0.0,0.0,0.0
1775764376863592900,11115,0.0,1.1,0.0,0.5,0.0,-0.04,-2.44,1.63,-8.31,-0.51,0.41,-0.33,-9.38,3.13,-27.31,170.13,1979.0,0.0,0.0,0.0,0.0
1775764376945019505,11215,0.0,1.3,0.0,0.2,-0.08,-0.14,-4.5,1.63,-9.25,0.48,0.07,-0.32,-11.19,4.0,-13.88,1270.13,1979.0,0.0,0.0,0.0,0.0
1775764377043297009,11315,0.0,1.5,0.0,0.3,0.04,-0.1,-5.69,1.81,-10.13,-0.02,0.34,-0.32,-5.19,-0.06,-8.25,1266.01,1237.0,0.0,0.0,0.0,0.0
1775764377145727205,11416,0.0,1.2,0.0,0.3,0.14,0.04,-6.25,2.13,-10.75,-0.08,0.21,-0.53,-7.81,-1.44,-2.88,165.84,2008.0,0.0,0.0,0.0,0.0
1775764377244039873,11515,0.0,1.4,0.0,0.5,0.08,-0.27,-6.31,2.38,-11.5,-0.01,0.1,-0.51,-3.69,-1.81,1.63,157.61,2008.0,0.0,0.0,0.0,0.0
1775764377346380976,11615,0.0,1.2,0.0,0.5,0.08,-0.04,-6.0,2.56,-11.88,-0.21,-0.06,-0.35,-2.69,-4.31,4.31,170.13,1991.0,0.0,0.0,0.0,0.0
1775764377444687811,11716,0.0,1.3,0.0,0.2,0.04,-0.16,-5.5,3.06,-11.75,0.0,0.06,-0.17,3.5,-4.63,3.5,1289.34,1710.0,0.0,0.0,0.0,0.0
1775764377542986849,11815,0.0,1.1,0.0,0.4,-0.08,-0.1,-5.44,3.13,-11.5,-0.24,0.02,-0.21,-0.56,0.63,-0.56,158.64,1710.0,0.0,0.0,0.0,0.0
1775764377645418989,11916,0.0,1.4,0.0,0.3,-0.04,-0.14,-5.31,3.06,-11.5,-0.19,0.06,-0.27,-1.06,1.81,2.63,1243.03,1792.0,0.0,0.0,0.0,0.0
1775764377743693601,12016,0.0,1.5,0.0,0.3,0.06,-0.16,-5.0,2.69,-11.56,-0.07,-0.0,-0.08,-0.5,3.44,4.5,1260.01,1792.0,0.0,0.0,0.0,0.0
1775764377846117704,12116,0.0,1.4,0.0,0.7,-0.1,-0.14,-4.75,2.19,-11.63,0.04,-0.36,-0.54,-0.81,1.69,1.75,1303.74,1149.0,0.0,0.0,0.0,0.0
1775764377948508974,12217,0.0,1.4,0.0,0.3,-0.2,0.0,-4.81,2.13,-11.38,-0.11,-0.11,-0.33,3.25,1.69,-2.75,165.84,1673.0,0.0,0.0,0.0,0.0
1775764378046804956,12318,0.0,1.3,0.0,0.5,0.0,-0.16,-5.19,2.0,-10.94,-0.09,-0.03,-0.33,3.0,-1.31,-3.69,1244.58,1673.0,0.0,0.0,0.0,0.0
1775764378149191128,12418,0.0,1.2,0.0,0.6,0.0,0.0,-5.5,2.13,-10.63,-0.05,0.07,0.0,2.81,2.88,-4.0,1239.26,1933.0,0.0,0.0,0.0,0.0
1775764378247473238,12518,0.0,1.5,0.0,0.2,0.12,-0.12,-5.94,2.0,-10.5,0.08,-0.06,-0.03,1.06,0.81,-4.31,1311.29,1826.0,0.0,0.0,0.0,0.0
1775764378349854521,12618,0.0,1.4,0.0,0.3,-0.04,-0.06,-6.31,2.0,-10.44,-0.07,0.02,-0.02,1.56,0.75,-3.06,1411.1,1826.0,0.0,0.0,0.0,0.0
1775764378448204372,12719,0.0,1.4,0.0,0.1,0.08,-0.18,-6.5,1.94,-10.25,-0.14,-0.1,0.0,1.06,1.44,-1.44,1256.41,1250.0,0.0,0.0,0.0,0.0
1775764378546467704,12819,0.0,1.3,0.0,0.5,-0.14,-0.23,-6.56,1.88,-10.19,-0.02,-0.06,-0.1,0.12,0.06,0.0,1247.15,871.0,0.0,0.0,0.0,0.0
1775764378648902839,12918,0.0,1.3,0.0,0.2,0.08,-0.12,-6.5,1.88,-10.13,0.1,-0.05,-0.02,0.81,0.31,0.69,1250.92,871.0,0.0,0.0,0.0,0.0
1775764378747168505,13019,0.0,1.3,0.0,0.5,-0.04,-0.16,-6.44,1.81,-10.13,0.06,-0.03,-0.08,0.19,-0.06,1.12,174.24,1951.0,0.0,0.0,0.0,0.0
1775764378849613102,13119,0.0,1.0,0.0,0.2,0.02,-0.25,-6.31,1.81,-10.0,0.1,-0.02,-0.07,1.44,0.06,1.88,1251.78,1951.0,0.0,0.0,0.0,0.0
1775764378947897601,13218,0.0,1.4,0.0,0.3,-0.12,-0.2,-6.13,1.75,-9.88,0.0,-0.04,-0.03,1.06,-0.75,2.19,161.72,1604.0,0.0,0.0,0.0,0.0
1775764379050257255,13319,0.0,1.6,0.0,0.1,-0.18,-0.16,-5.81,1.81,-9.88,-0.03,0.04,0.04,0.19,-0.31,2.69,1238.4,2439.0,0.0,0.0,0.0,0.0
1775764379148592364,13419,0.0,1.2,0.0,0.5,0.02,-0.02,-5.63,1.81,-9.94,-0.02,-0.05,0.04,-1.44,-0.12,2.63,169.96,2439.0,0.0,0.0,0.0,0.0
1775764379246893250,13518,0.0,1.2,0.0,0.5,-0.02,-0.12,-5.38,1.75,-10.06,-0.01,-0.03,-0.07,-1.44,-0.44,2.31,1239.6,1981.0,0.0,0.0,0.0,0.0
1775764379487589341,13618,0.0,1.6,0.0,0.5,-0.02,-0.12,-5.13,1.69,-10.19,-0.02,-0.01,0.0,-0.19,-0.37,2.13,1272.53,1727.0,0.0,0.0,0.0,0.0
1775764379549987488,13718,0.0,1.4,0.0,0.5,0.02,-0.18,-5.0,1.69,-10.19,-0.06,-0.0,-0.04,-0.06,-0.37,1.31,1271.33,1727.0,0.0,0.0,0.0,0.0
1775764379562526088,13818,0.0,1.2,0.0,0.6,0.02,-0.08,-4.88,1.69,-10.19,-0.06,0.01,-0.03,-0.0,-0.81,1.0,174.24,2178.0,0.0,0.0,0.0,0.0
1775764379648243523,13918,0.0,1.3,0.0,0.5,0.02,-0.02,-4.81,1.69,-10.19,0.0,0.04,-0.02,-0.19,0.31,1.0,148.52,1153.0,0.0,0.0,0.0,0.0
1775764379746586853,14018,0.0,1.3,0.0,0.5,0.02,-0.31,-4.69,1.69,-10.19,-0.05,-0.0,-0.05,0.25,-0.0,0.31,1328.78,1153.0,0.0,0.0,0.0,0.0
1775764379848973261,14117,0.0,1.4,0.0,0.3,0.0,-0.14,-4.69,1.69,-10.19,-0.01,0.03,-0.04,0.19,0.25,-0.12,1253.49,920.0,0.0,0.0,0.0,0.0
1775764379947268073,14217,0.0,1.3,0.0,0.3,-0.04,-0.2,-4.69,1.69,-10.06,-0.1,0.02,-0.07,1.12,-0.19,0.19,1263.95,936.0,0.0,0.0,0.0,0.0
1775764380045566242,14316,0.0,1.4,0.0,0.5,-0.06,-0.08,-4.69,1.75,-9.88,-0.07,0.07,-0.03,2.25,-0.37,0.12,1263.44,936.0,0.0,0.0,0.0,0.0
1775764380143855294,14415,0.0,1.5,0.0,0.3,-0.04,-0.14,-4.69,1.75,-9.63,-0.01,0.05,-0.06,2.31,-0.56,-0.06,1257.61,1443.0,0.0,0.0,0.0,0.0
1775764380246240975,14515,0.0,1.3,0.0,0.3,-0.08,-0.08,-4.69,1.75,-9.44,0.05,0.08,-0.07,1.81,-0.0,-0.19,1294.65,1443.0,0.0,0.0,0.0,0.0
1775764380344546453,14615,0.0,1.4,0.0,0.1,0.1,-0.12,-4.69,1.75,-9.25,0.03,0.02,-0.07,1.69,0.19,-0.12,1247.49,2421.0,0.0,0.0,0.0,0.0
1775764380446962079,14714,0.0,1.6,0.0,0.3,-0.02,-0.12,-4.69,1.69,-9.06,-0.05,0.02,0.0,1.81,0.31,-0.12,1225.71,2358.0,0.0,0.0,0.0,0.0
1775764380545257927,14814,0.0,1.7,0.0,0.5,0.06,-0.04,-4.69,1.69,-9.0,-0.09,0.1,0.05,-0.31,0.06,0.0,1263.61,2358.0,0.0,0.0,0.0,0.0
1775764380643545238,14914,0.0,1.3,0.0,0.3,-0.1,-0.12,-4.69,1.69,-9.13,-0.06,0.03,-0.05,-1.56,0.25,0.88,1333.07,2602.0,0.0,0.0,0.0,0.0
1775764380745952290,15014,0.0,1.2,0.0,0.6,-0.12,-0.12,-4.69,1.69,-9.25,-0.01,0.05,-0.05,-1.44,-0.06,0.0,1303.91,2065.0,0.0,0.0,0.0,0.0
1775764380979587909,15115,0.0,1.1,0.0,0.3,0.0,-0.18,-4.69,1.69,-9.44,0.0,0.04,-0.06,-1.94,0.44,-0.31,152.81,2065.0,0.0,0.0,0.0,0.0
1775764381044956182,15215,0.0,1.4,0.0,0.4,0.1,-0.02,-4.69,1.69,-9.56,0.05,-0.04,-0.11,-1.69,0.69,-0.25,1262.58,698.0,0.0,0.0,0.0,0.0
1775764381057880592,15315,0.0,1.2,0.0,0.3,0.1,-0.25,-4.69,1.69,-9.75,-0.04,0.04,-0.07,-0.63,-0.06,-0.69,152.81,698.0,0.0,0.0,0.0,0.0
1775764381147345434,15415,0.0,1.3,0.0,0.5,0.02,-0.12,-4.69,1.69,-9.81,-0.01,0.07,-0.03,-0.19,0.37,0.12,153.84,851.0,0.0,0.0,0.0,0.0
1775764381245627004,15516,0.0,1.3,0.0,0.6,0.0,-0.18,-4.69,1.69,-9.81,-0.07,0.06,-0.08,-0.12,-0.0,0.81,1270.13,1113.0,0.0,0.0,0.0,0.0
1775764381348005774,15617,0.0,1.2,0.0,0.2,0.16,-0.02,-4.69,1.69,-9.81,0.07,-0.04,-0.1,0.5,-0.0,0.06,156.92,1113.0,0.0,0.0,0.0,0.0
1775764381446336844,15717,0.0,1.0,0.0,0.3,0.06,-0.06,-4.69,1.69,-9.75,0.05,-0.0,-0.05,0.19,-0.56,0.0,1261.55,1062.0,0.0,0.0,0.0,0.0
1775764381548753670,15816,0.0,1.5,0.0,0.4,0.0,-0.12,-4.69,1.69,-9.81,0.01,0.01,0.02,-0.81,-0.25,-0.37,161.21,2416.0,0.0,0.0,0.0,0.0
1775764381691601079,15916,0.0,1.4,0.0,0.3,-0.08,-0.1,-4.69,1.69,-9.81,-0.04,0.07,-0.05,-0.44,-0.63,0.0,161.21,2416.0,0.0,0.0,0.0,0.0
1775764381745316976,16016,0.0,1.4,0.0,0.3,0.0,-0.08,-4.63,1.75,-9.81,-0.04,0.09,-0.05,0.63,-0.56,1.31,1225.88,876.0,0.0,0.0,0.0,0.0
1775764381847799227,16115,0.0,1.5,0.0,0.4,-0.04,-0.04,-4.44,1.75,-9.75,0.0,0.04,-0.04,0.25,-0.75,1.56,1243.38,1920.0,0.0,0.0,0.0,0.0
1775764381945995835,16216,0.0,1.2,0.0,0.4,-0.02,-0.08,-4.38,1.75,-9.75,0.04,0.08,-0.17,0.06,-0.37,0.44,1236.69,1920.0,0.0,0.0,0.0,0.0
1775764382048427142,16316,0.0,1.4,0.0,0.5,-0.02,-0.08,-4.25,1.75,-9.63,-0.01,0.1,-0.1,2.69,-0.44,0.75,1265.33,2141.0,0.0,0.0,0.0,0.0
1775764382146717324,16415,0.0,1.2,0.0,0.5,0.04,-0.06,-4.25,1.75,-9.31,-0.06,0.05,-0.02,3.38,-0.5,0.5,1225.88,2141.0,0.0,0.0,0.0,0.0
1775764382249138072,16515,0.0,1.3,0.016,0.2,-0.06,-0.04,-4.25,1.75,-9.0,-0.06,0.03,-0.02,2.25,-0.0,0.0,170.13,1347.0,0.0,0.0,0.0,0.0
1775764382347386643,16616,0.0,1.3,0.02,0.3,-0.06,-0.21,-4.25,1.75,-8.81,-0.05,0.08,-0.07,1.44,-0.12,-0.25,170.13,1736.0,0.0,0.0,0.0,0.0
1775764382445696935,16715,0.0,1.5,0.004,0.2,-0.08,-0.29,-4.25,1.75,-8.69,0.0,0.03,-0.01,1.31,-0.25,-0.12,1233.94,1736.0,0.0,0.0,0.0,0.0
1775764382548116480,16815,0.0,1.3,0.0,0.5,0.02,-0.1,-4.25,1.75,-8.63,-0.05,0.09,0.0,0.12,-0.0,-0.44,1213.88,1097.0,0.0,0.0,0.0,0.0
1775764382646411605,16916,0.0,1.3,0.0,0.3,0.0,-0.14,-4.25,1.75,-8.69,-0.04,0.08,-0.03,-0.75,-0.0,-1.0,169.96,1496.0,0.0,0.0,0.0,0.0
1775764382748809595,17015,0.0,1.6,0.0,0.3,-0.02,-0.12,-4.31,1.75,-8.75,0.0,0.11,-0.07,-0.56,0.69,-0.63,1211.48,1496.0,0.0,0.0,0.0,0.0
1775764382847100443,17116,0.0,1.3,0.0,0.3,-0.14,-0.1,-4.31,1.75,-8.75,-0.01,0.13,-0.09,0.06,0.31,-0.31,1294.82,2113.0,0.0,0.0,0.0,0.0
1775764382995588926,17216,0.0,1.3,0.0,0.3,0.1,-0.16,-4.31,1.75,-8.75,-0.03,0.1,0.0,-0.69,-0.19,0.06,1258.12,1448.0,0.0,0.0,0.0,0.0
1775764383047810822,17315,0.0,1.3,0.0,0.7,-0.02,-0.16,-4.31,1.75,-8.88,-0.04,0.13,-0.01,-2.13,-0.19,0.63,1270.47,1448.0,0.0,0.0,0.0,0.0
1775764383146072134,17415,0.0,1.3,0.016,0.6,-0.08,-0.12,-4.25,1.75,-9.06,0.02,0.07,-0.14,-1.88,0.19,0.5,1265.16,2779.0,0.0,0.0,0.0,0.0
1775764383248486269,17515,0.0,1.3,0.032,0.3,0.12,-0.12,-4.25,1.75,-9.19,0.0,0.1,-0.06,-0.69,-0.75,0.5,1269.61,2779.0,0.0,0.0,0.0,0.0
1775764383346748859,17614,0.0,1.3,0.02,0.3,-0.1,-0.12,-4.25,1.75,-9.19,0.01,0.06,-0.03,-1.25,0.06,0.69,1253.67,1439.0,0.0,0.0,0.0,0.0
1775764383455093908,17714,0.0,1.4,0.0,0.3,0.02,-0.14,-4.25,1.75,-9.38,0.01,0.07,-0.06,-1.94,-0.06,0.5,161.72,2413.0,0.0,0.0,0.0,0.0
1775764383547503434,17815,0.0,1.2,0.0,0.3,0.02,-0.04,-4.25,1.75,-9.56,0.0,0.06,-0.08,-1.37,-0.19,0.0,165.84,2413.0,0.0,0.0,0.0,0.0
1775764383645783913,17914,0.0,1.5,0.0,0.3,-0.06,0.0,-4.25,1.75,-9.69,0.02,0.07,-0.01,-1.37,-0.44,0.12,170.13,784.0,0.0,0.0,0.0,0.0
1775764383748177622,18015,0.0,1.4,0.0,0.5,0.06,-0.1,-4.25,1.75,-9.75,0.0,0.13,-0.12,-0.81,-0.81,-0.5,1241.49,1538.0,0.0,0.0,0.0,0.0
1775764383846525470,18115,0.0,1.5,0.0,0.4,0.0,0.0,-4.25,1.81,-9.81,0.08,0.08,-0.09,0.19,-0.63,-0.12,1220.57,1538.0,0.0,0.0,0.0,0.0
1775764383948876921,18214,0.0,1.2,0.0,0.3,-0.12,-0.14,-4.38,1.81,-9.75,-0.03,0.07,0.0,0.5,0.31,-1.25,1228.97,1537.0,0.0,0.0,0.0,0.0
1775764384047175478,18315,0.0,1.4,0.0,0.1,-0.27,-0.1,-4.38,1.81,-9.81,0.09,0.12,-0.11,-1.75,-0.56,-0.12,1242.69,2456.0,0.0,0.0,0.0,0.0
1775764384145466606,18415,0.0,1.4,0.004,0.0,0.04,-0.18,-4.38,1.81,-9.81,0.07,0.14,-0.18,1.63,-0.31,-0.56,1258.98,2456.0,0.0,0.0,0.0,0.0
1775764384247857387,18514,0.0,1.4,0.032,0.3,-0.02,-0.08,-4.44,1.88,-9.56,-0.04,0.19,-0.03,3.5,-0.69,-0.12,1248.18,2467.0,0.0,0.0,0.0,0.0
1775764384346126645,18614,0.0,1.4,0.016,0.2,0.0,-0.14,-4.44,1.94,-9.31,0.01,0.15,-0.03,1.69,0.5,0.63,1255.89,2520.0,0.0,0.0,0.0,0.0
1775764384444470605,18713,0.0,1.4,0.004,0.5,-0.04,-0.21,-4.38,1.94,-9.13,0.0,0.15,-0.1,0.75,0.69,0.69,1262.41,2520.0,0.0,0.0,0.0,0.0
1775764384546869128,18812,0.0,1.4,0.0,0.5,-0.06,-0.14,-4.38,1.94,-9.06,0.02,0.11,-0.13,2.31,-0.06,-0.31,1226.05,1789.0,0.0,0.0,0.0,0.0
1775764384645166441,18912,0.0,1.4,0.0,0.2,-0.06,-0.16,-4.38,1.94,-8.81,0.0,0.1,0.0,2.88,-0.25,-0.19,165.84,1789.0,0.0,0.0,0.0,0.0
1775764384747583815,19013,0.0,1.2,0.0,0.2,0.02,-0.18,-4.38,2.0,-8.63,-0.08,0.11,0.02,0.94,0.25,0.0,170.13,1561.0,0.0,0.0,0.0,0.0
1775764384845859702,19113,0.0,1.2,0.0,0.3,-0.04,-0.04,-4.38,2.0,-8.63,0.0,0.15,-0.04,-0.56,-0.12,0.37,169.96,1978.0,0.0,0.0,0.0,0.0
1775764384948255650,19213,0.0,1.4,0.0,0.2,-0.1,-0.04,-4.38,2.06,-8.69,0.0,0.14,-0.08,0.06,-0.06,0.56,170.13,1978.0,0.0,0.0,0.0,0.0
1775764385046551408,19313,0.0,1.4,0.0,0.1,-0.06,-0.12,-4.38,2.06,-8.69,0.02,0.04,-0.06,0.25,-0.0,0.37,1233.43,1723.0,0.0,0.0,0.0,0.0
1775764385148944559,19414,0.0,1.4,0.008,0.3,-0.08,-0.16,-4.38,2.06,-8.69,0.02,0.05,-0.05,0.12,0.12,-0.44,165.84,1723.0,0.0,0.0,0.0,0.0
1775764385247212929,19514,0.0,1.1,0.032,0.3,0.0,0.02,-4.38,2.13,-8.69,0.0,0.07,-0.03,-0.0,0.19,-0.06,165.84,2200.0,0.0,0.0,0.0,0.0
1775764385345513818,19613,0.0,1.5,0.024,0.6,-0.1,-0.08,-4.38,2.13,-8.69,0.0,0.15,0.0,0.12,-0.31,0.06,1224.0,1314.0,0.0,0.0,0.0,0.0
1775764385447945376,19713,0.0,1.5,0.004,0.2,-0.04,-0.1,-4.38,2.13,-8.69,0.05,0.09,-0.07,-0.75,0.44,0.56,1249.38,1314.0,0.0,0.0,0.0,0.0
1775764385546284060,19813,0.0,1.2,0.0,0.5,0.02,0.0,-4.38,2.13,-8.69,0.01,0.1,-0.07,-0.69,0.44,0.5,1240.8,1043.0,0.0,0.0,0.0,0.0
1775764385644548468,19912,0.0,1.4,0.0,0.2,0.08,-0.23,-4.38,2.06,-8.69,0.01,0.06,-0.04,-0.63,0.63,-0.19,1220.05,1410.0,0.0,0.0,0.0,0.0
1775764385746944008,20012,0.0,1.5,0.0,0.2,0.08,-0.08,-4.38,2.06,-8.75,0.01,0.08,-0.04,-0.94,0.31,-0.81,1261.73,1410.0,0.0,0.0,0.0,0.0
1775764386027587320,20112,0.0,1.4,0.0,0.3,-0.08,-0.23,-4.44,2.06,-8.81,0.13,0.07,-0.1,0.37,-0.31,-1.25,1257.78,2472.0,0.0,0.0,0.0,0.0
1775764386123587224,20211,0.0,1.3,0.0,0.3,-0.23,-0.16,-4.56,2.13,-8.56,-0.02,0.04,-0.05,3.38,-0.5,-1.12,1242.52,1361.0,0.0,0.0,0.0,0.0
1775764386144252185,20311,0.0,1.4,0.0,0.3,-0.2,-0.21,-4.63,2.13,-8.31,-0.04,0.1,0.03,2.0,-0.12,-0.25,1245.09,1361.0,0.0,0.0,0.0,0.0
1775764386152607239,20411,0.0,1.1,0.016,0.5,-0.02,-0.1,-4.63,2.13,-8.25,0.02,0.1,-0.03,-0.25,-0.12,-0.12,1241.49,1567.0,0.0,0.0,0.0,0.0
1775764386246600355,20511,0.0,1.3,0.036,0.2,-0.04,-0.1,-4.63,2.13,-8.19,0.11,0.14,-0.11,0.75,0.12,-0.19,1216.28,2029.0,0.0,0.0,0.0,0.0
1775764386344886209,20611,0.0,1.4,0.012,0.1,-0.02,-0.04,-4.63,2.13,-8.0,0.03,0.02,-0.12,3.25,0.63,0.19,1227.08,2029.0,0.0,0.0,0.0,0.0
1775764386453263686,20711,0.0,1.2,0.016,0.2,-0.02,-0.06,-4.63,2.13,-7.69,-0.07,0.06,0.09,2.75,0.12,-0.06,1256.75,2015.0,0.0,0.0,0.0,0.0
1775764386545620713,20811,0.0,1.4,0.008,0.4,-0.08,-0.14,-4.63,2.13,-7.56,-0.08,0.03,0.01,-0.37,0.06,0.37,1253.49,2015.0,0.0,0.0,0.0,0.0
1775764386643854957,20911,0.0,1.3,0.0,0.2,-0.16,-0.16,-4.63,2.13,-7.69,0.05,0.06,-0.1,-1.19,-0.0,0.0,149.72,1525.0,0.0,0.0,0.0,0.0
1775764386746318032,21012,0.0,1.3,0.0,0.6,0.02,-0.04,-4.63,2.13,-7.75,0.01,0.1,0.0,-0.31,-0.12,-0.19,148.69,2050.0,0.0,0.0,0.0,0.0
1775764386844612571,21111,0.0,1.3,0.0,0.5,0.0,-0.21,-4.63,2.13,-7.81,0.01,0.05,-0.02,-0.69,-0.19,-0.31,153.84,2050.0,0.0,0.0,0.0,0.0
1775764386947001389,21211,0.0,1.3,0.0,0.3,0.04,-0.2,-4.63,2.13,-7.81,0.02,0.1,-0.04,-0.44,-0.12,0.19,152.81,1020.0,0.0,0.0,0.0,0.0
1775764387045304435,21311,0.0,1.3,0.0,0.0,0.0,-0.18,-4.63,2.13,-7.81,0.01,0.13,-0.01,-0.06,-0.31,0.88,1250.75,2320.0,0.0,0.0,0.0,0.0
1775764387167612449,21410,0.0,1.4,0.016,0.2,0.08,0.0,-4.56,2.13,-7.88,0.09,0.03,-0.02,-0.63,-0.12,0.75,1239.09,2320.0,0.0,0.0,0.0,0.0
1775764387246011387,21510,0.0,1.3,0.032,0.3,-0.1,-0.14,-4.44,2.13,-7.94,0.04,0.13,-0.09,-0.88,0.06,0.81,1239.77,2905.0,0.0,0.0,0.0,0.0
1775764387344249300,21610,0.0,1.5,0.024,0.4,-0.12,-0.1,-4.38,2.06,-8.0,0.07,0.04,-0.06,-0.63,-0.0,1.0,1266.18,1665.0,0.0,0.0,0.0,0.0
1775764387442571934,21709,0.0,1.4,0.016,0.4,-0.14,-0.16,-4.31,2.06,-8.0,0.06,0.03,-0.09,0.06,-0.5,-0.06,1272.02,1665.0,0.0,0.0,0.0,0.0
1775764387544991770,21809,0.0,1.3,0.012,0.6,0.02,-0.16,-4.31,2.13,-8.0,-0.01,0.08,0.03,0.63,-0.56,0.56,1225.88,547.0,0.0,0.0,0.0,0.0
1775764387643294775,21909,0.0,1.7,0.008,0.5,-0.21,0.0,-4.25,2.13,-8.06,0.0,0.08,-0.03,-1.31,-0.56,0.5,1230.68,547.0,0.0,0.0,0.0,0.0
1775764387741594613,22008,0.0,1.2,0.0,0.2,0.0,-0.21,-4.25,2.13,-8.19,0.11,0.12,-0.12,-1.06,-0.37,0.12,1223.31,2112.0,0.0,0.0,0.0,0.0
1775764387843984653,22108,0.0,1.5,0.004,0.0,-0.08,-0.12,-4.19,2.13,-8.19,0.11,0.14,-0.09,0.94,-0.69,0.94,1276.82,1743.0,0.0,0.0,0.0,0.0
1775764387942268658,22208,0.0,1.2,0.0,0.5,0.02,-0.16,-4.13,2.13,-8.0,0.04,0.12,-0.05,2.75,-0.88,1.44,149.55,1743.0,0.0,0.0,0.0,0.0
1775764388044682179,22309,0.0,1.5,0.0,0.2,0.06,-0.12,-3.88,2.25,-7.81,0.11,0.12,0.0,1.94,-0.56,2.5,1228.28,1797.0,0.0,0.0,0.0,0.0
1775764388142956280,22409,0.0,1.4,0.004,0.3,-0.02,-0.21,-3.63,2.31,-7.69,0.03,0.02,0.12,-0.0,-2.63,2.5,1220.39,1301.0,0.0,0.0,0.0,0.0
1775764388241261493,22508,0.0,1.2,0.04,0.3,-0.02,0.02,-3.5,2.38,-7.81,-0.01,-0.0,-0.18,-1.94,-0.63,-0.06,1234.29,1301.0,0.0,0.0,0.0,0.0
1775764388343635126,22607,0.0,1.3,0.004,0.3,0.08,-0.1,-3.56,2.56,-7.94,0.14,0.15,-0.15,0.25,-0.75,-0.56,1231.71,1054.0,0.0,0.0,0.0,0.0
1775764388441969282,22707,0.0,1.4,0.016,0.2,0.02,-0.06,-3.56,2.63,-7.81,0.01,0.21,-0.02,2.88,-0.44,-0.19,1220.39,1343.0,0.0,0.0,0.0,0.0
1775764388544374488,22808,0.0,1.4,0.0,0.2,-0.23,-0.21,-3.5,2.69,-7.56,-0.08,0.25,-0.06,1.94,-0.19,2.75,1241.15,1343.0,0.0,0.0,0.0,0.0
1775764388642691052,22907,0.0,1.3,0.0,0.5,0.16,0.02,-3.06,2.88,-7.38,0.0,0.25,-0.11,2.75,-1.63,6.69,1222.28,1490.0,0.0,0.0,0.0,0.0
1775764388745068296,23007,0.0,1.3,0.004,0.3,-0.12,0.0,-2.25,3.06,-7.13,0.12,0.22,-0.13,5.0,-1.94,10.06,1208.56,1490.0,0.0,0.0,0.0,0.0
1775764388843361231,23108,0.0,1.2,0.0,0.2,0.0,-0.08,-1.12,3.19,-6.63,0.13,0.14,-0.12,7.06,-1.25,12.44,1190.04,2478.0,0.0,0.0,0.0,0.0
1775764388945749549,23208,0.0,1.5,0.0,0.4,-0.06,-0.18,0.06,3.19,-6.06,0.16,0.06,-0.12,8.25,-0.12,11.31,1198.61,2213.0,0.0,0.0,0.0,0.0
1775764389044053910,23309,0.0,1.6,0.0,0.5,-0.02,-0.18,1.12,3.19,-5.31,0.13,-0.17,-0.06,9.38,-3.88,9.81,1213.71,2213.0,0.0,0.0,0.0,0.0
1775764389146454600,23409,0.0,1.2,0.008,0.2,0.04,-0.2,2.06,3.69,-4.63,0.0,-0.05,0.2,5.94,-7.81,9.0,1216.96,2405.0,0.0,0.0,0.0,0.0
1775764389244783908,23508,0.0,1.2,0.036,0.2,0.0,-0.02,3.0,4.25,-4.38,0.01,0.29,0.13,0.06,-4.88,9.88,1173.4,1435.0,0.0,0.0,0.0,0.0
1775764389343003052,23608,0.0,1.4,0.024,0.5,0.0,-0.04,4.0,4.44,-4.63,0.24,-0.12,0.16,-1.88,-2.06,10.63,1198.61,1435.0,0.0,0.0,0.0,0.0
1775764389555586771,23708,0.0,1.4,0.02,0.5,0.02,-0.08,4.81,4.81,-4.88,-0.01,0.03,-0.13,-3.5,-6.5,5.75,1173.92,2130.0,0.0,0.0,0.0,0.0
1775764389567781357,23809,0.0,1.5,0.0,0.3,-0.06,-0.16,5.25,4.94,-5.31,0.63,-0.09,-0.15,-2.31,2.13,3.19,1185.06,2082.0,0.0,0.0,0.0,0.0
1775764389646129868,23910,0.0,1.3,0.0,0.3,-0.14,-0.16,5.06,5.25,-5.5,0.3,0.09,-0.34,1.69,-7.38,-4.0,170.13,2082.0,0.0,0.0,0.0,0.0
1775764389744415307,24010,0.0,1.4,0.0,0.2,-0.04,0.06,4.75,5.69,-5.5,0.5,0.32,-0.23,2.31,2.06,-4.31,165.84,2433.0,0.0,0.0,0.0,0.0
1775764389846847070,24110,0.0,1.2,0.0,0.2,-0.04,-0.18,4.19,5.63,-5.94,0.36,0.22,-0.34,0.75,4.63,-6.06,165.84,2433.0,0.0,0.0,0.0,0.0
1775764389945124954,24210,0.0,1.1,0.0,0.3,-0.14,-0.12,3.44,5.44,-6.56,0.71,0.48,-0.27,-4.94,9.63,-7.19,165.84,2659.0,0.0,0.0,0.0,0.0
1775764390047541027,24310,0.0,1.2,0.0,0.6,0.08,-0.18,2.94,4.44,-7.63,0.78,0.02,0.09,-2.31,14.31,-4.38,170.13,1666.0,0.0,0.0,0.0,0.0
1775764390145896673,24410,0.0,1.3,0.0,0.3,0.0,-0.08,2.0,4.06,-7.06,-0.23,-0.07,0.34,11.06,-1.75,-12.56,1147.16,1666.0,0.0,0.0,0.0,0.0
1775764390248182051,24510,0.0,1.4,0.036,0.1,-0.02,-0.02,0.69,4.44,-5.63,-0.3,-0.0,0.52,9.19,0.37,-16.12,1139.27,505.0,0.0,0.0,0.0,0.0
1775764390355583789,24610,0.0,1.4,0.024,0.1,-0.16,-0.06,-1.56,4.88,-4.94,-1.41,-0.01,0.41,5.06,-4.0,-24.81,1147.85,2281.0,0.0,0.0,0.0,0.0
1775764390448900684,24710,0.0,1.5,0.0,0.2,-0.04,-0.04,-3.31,5.0,-4.88,-1.42,-0.5,-0.14,-8.13,4.75,-9.88,171.16,2281.0,0.0,0.0,0.0,0.0
1775764390547176999,24811,0.0,1.1,0.0,0.2,-0.12,-0.21,-3.44,4.06,-5.5,0.08,-0.92,0.28,0.56,10.75,2.25,170.13,2455.0,0.0,0.0,0.0,0.0
1775764390645479220,24910,0.0,1.2,0.0,0.2,-0.02,-0.12,-3.63,3.13,-5.0,-0.22,-0.38,-0.38,0.88,11.13,-2.19,170.13,986.0,0.0,0.0,0.0,0.0
1775764390747963909,25010,0.0,1.3,0.0,0.5,0.06,-0.08,-3.75,2.0,-4.88,0.02,-0.31,-0.63,-3.13,2.44,0.5,166.01,986.0,0.0,0.0,0.0,0.0
1775764390846193057,25110,0.0,1.4,0.0,0.2,-0.08,-0.21,-3.31,1.81,-5.38,0.77,-0.51,-0.41,-4.0,1.0,7.25,161.55,2262.0,0.0,0.0,0.0,0.0
1775764390944503408,25209,0.0,1.5,0.0,0.5,-0.02,-0.02,-2.88,1.63,-5.69,0.15,-0.6,-0.22,-5.13,-4.88,2.81,153.15,2262.0,0.0,0.0,0.0,0.0
1775764391046885377,25309,0.0,1.4,0.0,0.2,-0.1,-0.12,-2.63,2.06,-6.63,0.6,-0.32,0.13,-5.56,-10.81,-0.56,1166.2,2727.0,0.0,0.0,0.0,0.0
1775764391145189881,25408,0.0,1.3,0.0,0.3,0.06,-0.08,-2.31,2.56,-7.56,0.66,-0.35,0.05,-5.06,-9.38,9.19,1126.58,2169.0,0.0,0.0,0.0,0.0
1775764391243554587,25508,0.0,1.2,0.004,0.2,0.02,-0.18,-0.56,2.69,-7.5,-1.08,-0.06,0.74,13.5,4.69,25.56,1156.77,2169.0,0.0,0.0,0.0,0.0
1775764391345836375,25608,0.0,1.4,0.012,0.4,-0.04,-0.2,1.94,1.94,-6.5,-1.56,-0.03,-0.24,-2.44,-0.0,22.62,1161.23,897.0,0.0,0.0,0.0,0.0
1775764391444150527,25708,0.0,1.3,0.0,1.2,-0.12,-0.1,3.25,1.81,-7.31,-1.11,0.49,0.47,-0.12,2.06,5.0,1163.97,2214.0,0.0,0.0,0.0,0.0
1775764391542455161,25807,0.0,0.3,0.0,1.1,-0.04,-0.02,3.5,2.0,-5.94,-0.73,0.1,-0.67,7.13,0.25,4.75,1141.68,2214.0,0.0,0.0,0.0,0.0
1775764391644880705,25908,0.0,0.1,0.0,1.1,0.1,-0.18,3.5,2.25,-6.56,-0.24,0.25,-0.37,-7.94,-5.56,-6.88,1202.21,1117.0,0.0,0.0,0.0,0.0
1775764391743180617,26007,0.0,0.6,0.0,0.5,0.08,-0.16,2.31,3.31,-6.13,-0.11,0.46,-0.6,6.81,-4.63,-12.63,1192.61,1920.0,0.0,0.0,0.0,0.0
1775764391841463084,26106,0.0,0.9,0.0,0.2,0.0,-0.2,1.25,3.56,-6.19,0.27,0.53,-0.08,-7.0,8.81,-10.0,1131.56,1920.0,0.0,0.0,0.0,0.0
1775764391943868481,26206,0.0,1.1,0.0,0.6,0.0,0.02,0.12,2.94,-7.06,0.45,0.46,0.0,-8.5,12.38,-14.13,1138.93,1774.0,0.0,0.0,0.0,0.0
1775764392091606375,26305,0.0,0.9,0.0,0.4,-0.08,-0.04,-1.25,2.44,-8.19,0.77,0.38,0.53,-6.56,7.88,-14.25,1164.14,1774.0,0.0,0.0,0.0,0.0
1775764392140479838,26404,0.0,1.0,0.0,0.5,-0.1,-0.04,-3.0,2.75,-8.44,-0.75,0.15,1.03,6.25,-11.5,-19.25,148.52,1314.0,0.0,0.0,0.0,0.0
1775764392242831572,26504,0.0,1.1,0.0,0.5,-0.06,-0.2,-4.38,4.06,-7.25,-2.28,0.31,-0.23,5.25,-3.94,-10.5,152.81,1751.0,0.0,0.0,0.0,0.0
1775764392341134323,26604,0.0,0.9,0.0,0.4,-0.04,-0.14,-5.0,4.13,-7.69,-0.89,-0.83,0.0,-8.0,2.56,-0.5,148.69,1751.0,0.0,0.0,0.0,0.0
1775764392439451165,26703,0.0,1.0,0.0,0.2,-0.16,-0.18,-4.44,3.94,-6.94,-1.24,-0.68,-0.3,16.44,1.25,5.63,152.81,1357.0,0.0,0.0,0.0,0.0
1775764392541861176,26804,0.0,0.7,0.0,0.3,0.0,-0.12,-4.31,3.81,-5.94,-0.62,-0.38,-0.15,-0.06,0.81,2.13,152.81,1459.0,0.0,0.0,0.0,0.0
1775764392640224370,26904,0.0,1.0,0.0,0.5,-0.1,-0.12,-3.5,3.56,-5.75,-0.4,-0.32,-0.33,3.44,2.0,11.38,149.72,1459.0,0.0,0.0,0.0,0.0
1775764392742558734,27004,0.0,0.9,0.0,0.5,0.12,-0.06,-2.13,2.94,-5.56,-0.27,-0.71,-0.52,-3.56,1.75,19.5,148.52,1719.0,0.0,0.0,0.0,0.0
1775764392840845022,27104,0.0,1.0,0.0,0.6,-0.18,-0.04,-0.12,2.75,-6.19,0.39,-0.82,0.0,-4.25,-3.38,17.62,1144.25,1641.0,0.0,0.0,0.0,0.0
1775764393095589850,27203,0.0,0.8,0.0,0.3,-0.04,0.0,1.19,2.94,-6.31,0.01,-0.64,-0.08,1.88,-7.06,10.56,1205.65,1641.0,0.0,0.0,0.0,0.0
1775764393139838606,27302,0.0,0.5,0.0,0.6,-0.06,-0.02,1.94,3.69,-6.31,0.8,-0.39,0.29,0.25,-11.0,6.06,1145.11,1585.0,0.0,0.0,0.0,0.0
1775764393153251988,27403,0.0,0.7,0.0,0.6,-0.06,-0.1,3.0,4.0,-6.0,-0.43,-0.26,0.81,10.38,0.37,16.19,1128.98,1585.0,0.0,0.0,0.0,0.0
1775764393242287323,27503,0.0,0.8,0.028,0.1,0.02,-0.18,4.25,3.63,-4.81,-1.52,-0.06,0.21,5.63,0.25,4.81,1134.99,1732.0,0.0,0.0,0.0,0.0
1775764393340494563,27602,0.0,0.6,0.0,0.3,0.08,-0.16,4.5,3.75,-4.38,-1.46,0.4,0.19,-2.5,-0.5,2.13,152.81,1182.0,0.0,0.0,0.0,0.0
1775764393438791172,27702,0.0,1.0,0.0,0.2,-0.1,-0.16,4.44,3.94,-4.19,-0.73,0.41,-0.13,2.81,-0.56,-2.38,148.69,1182.0,0.0,0.0,0.0,0.0
1775764393541217537,27802,0.0,0.8,0.0,0.2,-0.06,-0.08,4.06,4.56,-3.19,-0.43,0.27,-0.33,-2.88,-1.56,-4.25,1135.84,2436.0,0.0,0.0,0.0,0.0
1775764393639544090,27901,0.0,0.9,0.0,0.2,0.14,-0.14,3.38,5.06,-3.0,-0.16,0.2,-0.08,0.75,-3.88,-8.06,1246.98,1415.0,0.0,0.0,0.0,0.0
1775764393855573022,28001,0.0,0.9,0.0,0.4,-0.16,-0.16,2.38,5.5,-2.81,-0.05,0.14,-0.29,-3.63,0.12,-12.44,1149.05,1415.0,0.0,0.0,0.0,0.0
1775764393868121586,28102,0.0,1.1,0.0,0.7,0.02,-0.16,0.69,5.31,-3.44,0.31,0.14,0.31,-10.56,5.88,-20.06,148.69,2321.0,0.0,0.0,0.0,0.0
1775764393938517266,28201,0.0,1.0,0.0,0.5,0.04,-0.18,-1.5,4.81,-4.5,-0.2,0.29,0.21,-15.0,8.31,-24.87,1163.28,2321.0,0.0,0.0,0.0,0.0
1775764394040902540,28302,0.0,0.7,0.0,0.4,-0.04,-0.06,-4.38,4.5,-5.13,-0.14,-0.0,0.1,-1.69,4.44,-30.5,1218.34,2170.0,0.0,0.0,0.0,0.0
1775764394139180434,28401,0.0,0.9,0.0,0.5,-0.02,-0.02,-7.19,4.38,-4.5,-0.52,-0.05,-0.29,-0.81,5.38,-28.75,1172.03,2573.0,0.0,0.0,0.0,0.0
1775764394241574470,28502,0.0,0.7,0.0,0.4,-0.1,-0.16,-10.31,4.13,-4.06,-0.69,-0.45,0.02,-3.94,-0.0,-32.44,148.69,2573.0,0.0,0.0,0.0,0.0
1775764394339869179,28602,0.0,1.0,0.0,0.3,0.02,0.02,-12.88,3.13,-3.31,-0.41,-0.66,0.22,-5.19,6.25,-22.56,157.27,2093.0,0.0,0.0,0.0,0.0
1775764394438150572,28701,0.0,1.0,0.0,0.5,-0.02,-0.04,-14.88,2.19,-3.69,0.27,-0.87,0.2,-3.75,8.31,-18.75,1211.3,1402.0,0.0,0.0,0.0,0.0
1775764394540593478,28802,0.0,0.9,0.0,0.4,-0.06,0.02,-16.62,1.44,-3.88,-0.18,-0.28,-0.63,-5.13,3.38,-17.06,152.81,1402.0,0.0,0.0,0.0,0.0
1775764394638891223,28902,0.0,0.8,0.0,1.5,-0.14,0.0,-17.75,1.0,-4.44,0.6,-0.32,-0.53,-0.25,6.19,-8.31,1213.19,1450.0,0.0,0.0,0.0,0.0
1775764394741278760,29001,0.0,0.2,0.0,0.2,-0.14,-0.12,-18.5,0.37,-4.19,0.23,-0.28,-0.24,6.75,1.69,-8.0,1204.1,2334.0,0.0,0.0,0.0,0.0
1775764394839596746,29101,0.0,1.5,0.0,0.5,0.12,-0.06,-19.12,0.31,-3.81,0.32,0.01,0.16,3.94,-0.19,-4.19,1226.05,2334.0,0.0,0.0,0.0,0.0
1775764394955597855,29201,0.0,1.5,0.0,0.5,0.1,0.02,-19.25,0.19,-3.69,0.1,0.16,0.2,-0.75,0.88,-1.0,148.69,1721.0,0.0,0.0,0.0,0.0
1775764395040291932,29301,0.0,1.2,0.0,0.1,0.14,-0.06,-19.56,0.56,-4.31,0.3,0.59,0.12,-9.13,-4.63,-1.94,1223.14,2421.0,0.0,0.0,0.0,0.0
1775764395142686195,29402,0.0,1.6,0.0,0.5,0.14,-0.23,-19.25,1.25,-5.25,0.19,0.45,-0.22,-8.88,-0.06,5.81,1200.84,2421.0,0.0,0.0,0.0,0.0
1775764395240990003,29503,0.0,1.4,0.0,0.2,-0.18,0.04,-18.56,1.75,-6.25,0.16,0.39,-0.06,-7.56,-3.19,7.31,1207.36,2035.0,0.0,0.0,0.0,0.0
1775764395343355175,29603,0.0,1.4,0.0,0.4,-0.14,-0.06,-17.87,2.13,-7.13,0.15,0.21,-0.14,-8.06,-2.5,7.25,1234.46,2035.0,0.0,0.0,0.0,0.0
1775764395445753253,29704,0.0,1.4,0.0,0.7,-0.08,-0.1,-17.12,2.44,-7.94,0.2,0.12,-0.15,-6.0,-3.44,7.88,1217.99,1719.0,0.0,0.0,0.0,0.0
1775764395544057968,29805,0.0,1.1,0.0,0.3,-0.1,0.0,-16.44,2.63,-8.63,0.2,0.05,-0.16,-4.38,-2.81,6.75,1246.29,2125.0,0.0,0.0,0.0,0.0
1775764395642326425,29905,0.0,1.3,0.0,0.5,-0.04,-0.1,-15.81,2.81,-9.13,0.28,0.07,-0.09,-2.38,-2.81,5.5,1234.97,2125.0,0.0,0.0,0.0,0.0
1775764395744754595,30005,0.0,1.4,0.0,0.5,0.0,-0.1,-15.25,2.94,-9.44,0.18,-0.0,-0.13,-1.19,-1.5,5.75,1247.83,2599.0,0.0,0.0,0.0,0.0
1775764395843052403,30104,0.0,1.4,0.0,0.6,0.06,-0.14,-14.75,3.0,-9.56,0.04,-0.1,-0.11,0.5,-1.25,3.56,1297.91,2131.0,0.0,0.0,0.0,0.0
1775764395941362988,30203,0.0,1.4,0.0,0.2,0.04,-0.02,-14.56,3.13,-9.56,0.04,-0.07,-0.07,1.06,-1.56,0.56,1240.8,2131.0,0.0,0.0,0.0,0.0
1775764396049726182,30303,0.0,1.4,0.0,0.2,-0.04,-0.14,-14.56,3.31,-9.44,0.03,-0.01,0.04,1.25,-1.0,-0.88,1264.81,1432.0,0.0,0.0,0.0,0.0
1775764396142053454,30402,0.0,1.2,0.0,0.1,0.12,-0.14,-14.69,3.38,-9.38,0.0,-0.01,-0.03,0.12,0.06,-1.12,1257.61,2617.0,0.0,0.0,0.0,0.0
1775764396240305659,30501,0.0,1.3,0.0,0.6,0.02,-0.06,-14.81,3.38,-9.38,0.04,-0.05,-0.06,0.69,0.5,-1.44,1247.49,2617.0,0.0,0.0,0.0,0.0
1775764396338635122,30601,0.0,1.2,0.0,0.1,0.0,-0.25,-15.0,3.38,-9.25,0.07,-0.03,-0.13,2.63,0.81,-2.5,1258.47,2035.0,0.0,0.0,0.0,0.0
1775764396441013614,30700,0.0,1.2,0.0,0.2,-0.14,-0.18,-15.25,3.31,-9.0,0.06,-0.06,-0.04,2.25,0.63,-2.69,1269.61,2035.0,0.0,0.0,0.0,0.0
1775764396539332540,30799,0.0,1.3,0.0,0.4,0.04,-0.14,-15.5,3.31,-8.81,0.11,-0.02,0.0,1.56,0.31,-2.69,1260.7,2052.0,0.0,0.0,0.0,0.0
1775764396647698890,30900,0.0,1.2,0.0,0.3,0.04,-0.04,-15.75,3.38,-8.69,0.04,0.05,-0.04,1.25,-0.06,-2.75,1320.38,2167.0,0.0,0.0,0.0,0.0
1775764396740025884,31000,0.0,1.5,0.0,0.2,0.02,0.0,-15.94,3.44,-8.56,0.14,0.04,-0.06,1.56,0.06,-1.63,1290.54,2167.0,0.0,0.0,0.0,0.0
1775764396838314773,31099,0.0,1.4,0.0,0.6,-0.06,-0.08,-16.06,3.44,-8.44,0.07,0.01,-0.12,1.31,0.31,-1.44,1244.58,1383.0,0.0,0.0,0.0,0.0
1775764396946665420,31199,0.0,1.4,0.0,0.5,-0.02,-0.12,-16.19,3.5,-8.31,0.11,0.06,-0.02,0.69,-0.19,-1.5,1214.73,874.0,0.0,0.0,0.0,0.0
1775764397167577313,31299,0.0,1.3,0.0,0.3,0.1,-0.14,-16.31,3.5,-8.31,0.15,0.03,-0.02,-0.19,-0.06,-1.12,1255.21,874.0,0.0,0.0,0.0,0.0
1775764397174199080,31398,0.0,1.4,0.0,0.3,-0.21,-0.04,-16.37,3.5,-8.31,0.13,-0.0,-0.06,-0.31,0.06,-0.56,1211.82,1154.0,0.0,0.0,0.0,0.0
1775764397239717839,31499,0.0,1.2,0.008,0.3,-0.12,-0.25,-16.37,3.5,-8.31,0.09,0.02,-0.01,0.06,-0.25,-0.5,1243.72,887.0,0.0,0.0,0.0,0.0
1775764397337957665,31599,0.0,1.4,0.0,0.1,0.1,-0.23,-16.37,3.5,-8.31,0.08,0.02,-0.1,-0.37,-0.44,-0.56,1232.23,887.0,0.0,0.0,0.0,0.0
1775764397440374216,31698,0.0,1.3,0.0,0.3,0.08,-0.18,-16.5,3.5,-8.25,0.12,-0.0,-0.02,0.69,-0.37,-1.0,1237.03,1804.0,0.0,0.0,0.0,0.0
1775764397538698558,31799,0.0,1.6,0.0,0.1,-0.16,-0.1,-16.56,3.56,-8.19,0.09,0.05,-0.01,0.81,-0.19,-0.75,1243.55,1804.0,0.0,0.0,0.0,0.0
1775764397641098721,31900,0.0,1.7,0.0,0.2,0.12,-0.14,-16.56,3.56,-8.19,0.09,0.01,-0.06,-0.25,0.19,-0.25,1323.29,2028.0,0.0,0.0,0.0,0.0
1775764397743497107,32001,0.0,1.3,0.0,0.2,-0.04,-0.04,-16.56,3.56,-8.19,0.18,0.02,-0.09,-0.25,-0.0,-0.37,1250.92,1871.0,0.0,0.0,0.0,0.0
1775764397841767394,32101,0.0,1.4,0.0,0.4,-0.23,-0.21,-16.56,3.56,-8.13,0.1,0.02,-0.04,1.31,-0.12,-0.63,1274.59,1871.0,0.0,0.0,0.0,0.0
1775764397940089736,32200,0.0,1.2,0.0,0.5,-0.16,-0.2,-16.56,3.56,-8.0,0.06,-0.0,-0.13,1.81,-0.37,-0.44,1286.08,1231.0,0.0,0.0,0.0,0.0
1775764398055593031,32301,0.0,1.3,0.0,0.5,0.12,-0.08,-16.56,3.56,-7.81,0.07,0.05,-0.04,1.88,0.12,-1.06,1244.58,1896.0,0.0,0.0,0.0,0.0
1775764398140761744,32402,0.0,1.6,0.0,0.3,-0.1,-0.1,-16.62,3.56,-7.75,0.09,0.01,0.0,-0.12,-0.25,-0.63,1279.39,1896.0,0.0,0.0,0.0,0.0
1775764398243125710,32502,0.0,1.5,0.02,0.5,-0.02,-0.21,-16.69,3.63,-7.75,0.09,0.07,-0.11,0.37,-0.31,-0.63,1244.06,479.0,0.0,0.0,0.0,0.0
1775764398345530398,32603,0.0,1.1,0.004,0.5,0.0,-0.12,-16.75,3.63,-7.63,0.08,0.04,-0.04,1.44,0.19,-0.88,1259.32,2244.0,0.0,0.0,0.0,0.0
1775764398443829305,32704,0.0,1.5,0.004,0.5,0.04,-0.06,-16.75,3.69,-7.56,0.02,0.05,-0.04,1.0,-0.75,-0.44,1244.23,2244.0,0.0,0.0,0.0,0.0
1775764398546258973,32804,0.0,1.5,0.0,0.3,0.04,-0.12,-16.75,3.69,-7.5,0.12,0.05,0.0,-0.19,-0.19,0.25,1248.52,1959.0,0.0,0.0,0.0,0.0
1775764398671621418,32905,0.0,1.4,0.0,0.5,-0.02,-0.14,-16.75,3.69,-7.56,0.05,0.08,-0.12,0.25,-0.19,0.69,1222.28,1959.0,0.0,0.0,0.0,0.0
1775764398746980530,33005,0.0,1.4,0.0,0.5,-0.18,-0.08,-16.75,3.69,-7.5,0.09,-0.0,-0.03,1.25,-0.31,0.69,1224.51,1481.0,0.0,0.0,0.0,0.0
1775764398845243753,33104,0.0,1.2,0.0,0.2,-0.02,-0.18,-16.69,3.75,-7.5,0.04,0.09,0.02,-1.06,-0.25,0.88,1210.96,1654.0,0.0,0.0,0.0,0.0
1775764398947673014,33204,0.0,1.3,0.0,0.3,0.0,-0.04,-16.56,3.75,-7.63,0.11,0.01,-0.09,-1.06,0.44,1.94,1239.43,1654.0,0.0,0.0,0.0,0.0
1775764399046005642,33305,0.0,1.4,0.0,0.5,-0.08,-0.06,-16.44,3.75,-7.63,0.07,-0.0,-0.07,1.12,-0.0,0.94,1233.77,1794.0,0.0,0.0,0.0,0.0
1775764399144237708,33404,0.0,1.3,0.0,0.3,-0.02,-0.16,-16.37,3.75,-7.44,0.07,-0.0,-0.02,2.69,-0.19,-0.19,1270.64,1200.0,0.0,0.0,0.0,0.0
1775764399246643032,33504,0.0,1.4,0.024,0.2,-0.04,-0.14,-16.31,3.75,-7.19,0.0,0.07,0.0,1.88,-0.19,1.19,1261.21,1200.0,0.0,0.0,0.0,0.0
1775764399344876172,33605,0.0,1.2,0.012,0.3,0.12,-0.02,-16.19,3.69,-7.13,0.06,-0.0,-0.01,0.5,-0.25,0.56,1202.9,2435.0,0.0,0.0,0.0,0.0
1775764399447296884,33705,0.0,1.3,0.0,0.5,0.06,0.1,-16.19,3.75,-7.06,0.08,0.01,-0.12,0.5,-0.31,-0.81,1207.87,823.0,0.0,0.0,0.0,0.0
1775764399545631781,33806,0.0,1.4,0.0,0.2,-0.04,-0.04,-16.31,3.75,-7.0,0.13,0.09,-0.05,1.06,-0.75,-0.94,1243.38,823.0,0.0,0.0,0.0,0.0
1775764399648052234,33905,0.0,1.2,0.0,0.0,-0.04,-0.12,-16.37,3.81,-6.88,0.07,0.02,-0.06,1.75,-0.25,-0.5,1233.77,1952.0,0.0,0.0,0.0,0.0
1775764399746260356,34006,0.0,1.4,0.0,0.3,0.08,-0.12,-16.37,3.81,-6.69,0.01,0.03,-0.02,1.37,0.06,-0.63,1232.74,1101.0,0.0,0.0,0.0,0.0
1775764399848724697,34107,0.0,1.2,0.0,0.2,0.08,-0.1,-16.44,3.81,-6.56,0.07,0.06,-0.1,1.12,-0.63,-0.69,1237.03,1101.0,0.0,0.0,0.0,0.0
1775764399967611613,34207,0.0,1.1,0.0,0.5,-0.08,-0.14,-16.5,3.81,-6.44,0.05,0.11,-0.07,1.69,-0.25,-0.06,1222.79,2263.0,0.0,0.0,0.0,0.0
1775764400049408963,34308,0.0,1.3,0.0,0.6,-0.06,-0.06,-16.5,3.81,-6.31,0.05,0.09,0.0,0.31,-0.12,0.25,152.81,2263.0,0.0,0.0,0.0,0.0
1775764400151805610,34408,0.0,1.4,0.0,0.3,0.02,-0.06,-16.5,3.81,-6.31,0.14,0.07,-0.08,-0.37,0.63,0.75,1214.05,726.0,0.0,0.0,0.0,0.0
1775764400250125480,34508,0.0,1.2,0.012,0.3,0.06,-0.06,-16.37,3.81,-6.31,0.02,0.11,-0.07,0.63,0.31,1.12,152.81,1430.0,0.0,0.0,0.0,0.0
1775764400348337037,34608,0.0,1.4,0.008,0.2,-0.06,-0.18,-16.25,3.81,-6.31,0.08,0.05,0.0,0.12,0.06,1.69,152.81,1430.0,0.0,0.0,0.0,0.0
1775764400450762109,34708,0.0,1.4,0.004,0.0,0.0,-0.2,-16.12,3.81,-6.38,0.11,0.09,-0.04,-1.0,0.25,1.5,152.81,2666.0,0.0,0.0,0.0,0.0
1775764400549086738,34808,0.0,1.5,0.0,0.3,-0.12,-0.16,-16.0,3.75,-6.5,0.11,0.06,-0.1,-1.12,-0.31,0.81,1248.01,1688.0,0.0,0.0,0.0,0.0
1775764400651479125,34909,0.0,1.3,0.0,0.5,0.02,-0.2,-15.88,3.75,-6.56,0.03,0.09,-0.07,-0.44,-0.37,0.81,1227.94,1688.0,0.0,0.0,0.0,0.0
1775764400749779218,35009,0.0,1.4,0.0,0.3,-0.04,-0.1,-15.81,3.75,-6.63,0.07,0.09,-0.04,-0.63,-0.0,0.69,148.69,455.0,0.0,0.0,0.0,0.0
1775764400852225659,35108,0.0,1.4,0.0,0.5,0.02,-0.1,-15.75,3.75,-6.69,0.02,0.04,0.0,-1.0,0.06,0.69,1270.81,455.0,0.0,0.0,0.0,0.0
1775764400971588227,35209,0.0,1.2,0.0,0.5,0.04,-0.16,-15.75,3.75,-6.88,0.05,0.11,-0.08,-1.25,0.25,0.31,152.81,2115.0,0.0,0.0,0.0,0.0
1775764401052868835,35309,0.0,1.2,0.0,0.2,-0.12,-0.12,-15.75,3.75,-6.94,0.13,0.1,-0.07,-0.44,0.88,0.75,156.92,1354.0,0.0,0.0,0.0,0.0
1775764401151132402,35409,0.0,1.3,0.004,0.5,-0.08,-0.02,-15.75,3.69,-6.94,0.1,0.03,-0.12,1.0,-0.12,0.5,1244.75,1354.0,0.0,0.0,0.0,0.0
1775764401249430561,35509,0.0,1.4,0.012,0.3,0.0,-0.08,-15.69,3.69,-6.75,0.07,0.05,0.01,1.12,-0.37,0.56,1238.74,2052.0,0.0,0.0,0.0,0.0
1775764401351821104,35608,0.0,1.3,0.008,0.6,-0.06,-0.14,-15.69,3.69,-6.81,0.14,0.07,0.03,-1.06,0.37,0.19,1247.15,1700.0,0.0,0.0,0.0,0.0
1775764401450136836,35707,0.0,1.5,0.0,0.6,0.04,0.04,-15.63,3.63,-6.94,0.12,0.07,-0.18,-1.25,0.5,0.63,1296.03,1700.0,0.0,0.0,0.0,0.0
1775764401548450217,35807,0.0,1.3,0.0,0.3,-0.08,-0.23,-15.56,3.63,-7.0,0.1,0.04,-0.15,1.12,-0.37,0.37,1238.06,1357.0,0.0,0.0,0.0,0.0
1775764401650849426,35907,0.0,1.3,0.0,0.6,-0.18,-0.08,-15.56,3.75,-6.88,0.06,0.1,-0.07,1.88,-1.5,0.75,1287.96,1939.0,0.0,0.0,0.0,0.0
1775764401749147825,36007,0.0,1.3,0.0,0.0,0.06,-0.06,-15.5,3.88,-6.75,0.01,0.1,0.03,1.44,0.31,0.37,1197.76,1939.0,0.0,0.0,0.0,0.0
1775764401857483375,36107,0.0,1.3,0.0,0.4,0.02,-0.16,-15.5,3.88,-6.69,0.09,0.04,-0.04,0.5,-0.5,0.0,1206.67,1511.0,0.0,0.0,0.0,0.0
1775764401949847527,36207,0.0,1.2,0.0,0.3,0.14,-0.02,-15.5,3.88,-6.63,0.04,0.07,-0.1,1.37,-0.5,-0.69,1189.01,1490.0,0.0,0.0,0.0,0.0
1775764402048130898,36307,0.0,1.2,0.0,0.5,-0.02,-0.14,-15.5,3.94,-6.44,0.0,0.08,-0.07,2.13,0.5,0.0,1232.23,1490.0,0.0,0.0,0.0,0.0
1775764402150497764,36407,0.0,1.3,0.0,0.7,-0.08,-0.29,-15.5,3.88,-6.25,0.0,0.06,-0.03,2.06,0.56,0.19,1208.56,1115.0,0.0,0.0,0.0,0.0
1775764402248783656,36507,0.0,1.6,0.012,0.8,-0.04,-0.25,-15.5,3.88,-6.13,0.04,0.07,0.0,1.19,0.31,0.5,1181.64,1115.0,0.0,0.0,0.0,0.0
1775764402351183411,36608,0.0,1.3,0.0,0.3,-0.02,-0.27,-15.5,3.88,-6.06,0.04,-0.0,-0.03,0.5,0.69,0.25,1212.51,1992.0,0.0,0.0,0.0,0.0
1775764402453576462,36709,0.0,1.3,0.0,0.5,-0.02,-0.16,-15.5,3.88,-6.06,0.08,0.01,-0.05,0.06,0.37,0.25,1259.5,1723.0,0.0,0.0,0.0,0.0
1775764402551923519,36809,0.0,1.1,0.0,0.4,0.04,-0.23,-15.5,3.88,-6.06,0.0,0.07,0.0,-0.12,-0.88,0.31,1210.62,1723.0,0.0,0.0,0.0,0.0
1775764402803588548,36910,0.0,1.2,0.0,0.5,0.02,-0.23,-15.5,3.81,-6.19,0.03,-0.01,-0.03,-1.06,0.12,-0.56,1206.85,1215.0,0.0,0.0,0.0,0.0
1775764402850928039,37010,0.0,1.2,0.0,0.4,-0.14,-0.08,-15.5,3.81,-6.25,0.02,0.03,-0.05,-0.81,1.12,-0.44,156.92,2101.0,0.0,0.0,0.0,0.0
1775764402863409604,37109,0.0,1.4,0.0,0.3,-0.02,-0.04,-15.5,3.75,-6.25,0.03,0.05,-0.04,0.12,0.31,0.06,1225.37,2101.0,0.0,0.0,0.0,0.0
1775764402953266776,37209,0.0,1.4,0.0,0.4,-0.08,-0.1,-15.5,3.75,-6.25,0.04,0.06,-0.07,0.56,-0.25,0.0,1192.78,1515.0,0.0,0.0,0.0,0.0
1775764403051603417,37310,0.0,1.3,0.0,0.2,-0.04,-0.16,-15.5,3.75,-6.25,0.06,0.08,0.04,-0.0,-0.63,0.75,1174.43,1515.0,0.0,0.0,0.0,0.0
1775764403154004995,37409,0.0,1.2,0.008,0.2,-0.04,-0.06,-15.44,3.75,-6.31,-0.01,0.03,0.03,-2.13,-0.56,1.25,1197.58,1587.0,0.0,0.0,0.0,0.0
1775764403252266621,37510,0.0,1.2,0.02,0.5,-0.08,-0.21,-15.31,3.88,-6.63,0.07,0.07,-0.11,-2.56,-0.63,1.37,1198.27,1742.0,0.0,0.0,0.0,0.0
1775764403354640385,37611,0.0,1.1,0.012,0.6,-0.04,-0.18,-15.25,3.88,-6.75,0.08,-0.0,-0.1,-0.5,0.63,0.12,1198.96,1742.0,0.0,0.0,0.0,0.0
1775764403452948973,37710,0.0,1.5,0.0,0.5,0.02,-0.08,-15.25,3.88,-6.75,0.02,0.06,-0.02,0.63,0.44,-0.12,153.84,1039.0,0.0,0.0,0.0,0.0
1775764403555365958,37811,0.0,1.4,0.0,0.5,0.06,-0.1,-15.25,3.88,-6.69,0.01,0.06,0.0,-0.06,0.06,0.19,1213.02,649.0,0.0,0.0,0.0,0.0
1775764403653675065,37911,0.0,1.4,0.0,0.3,-0.12,-0.14,-15.31,3.88,-6.69,0.15,-0.03,-0.1,-0.06,-0.12,-0.94,1195.7,649.0,0.0,0.0,0.0,0.0
1775764403751965931,38010,0.0,1.4,0.0,0.6,-0.12,-0.16,-15.38,4.0,-6.56,-0.08,0.14,0.01,2.63,-2.0,-1.63,156.92,2014.0,0.0,0.0,0.0,0.0
1775764403854374935,38110,0.0,1.4,0.0,0.3,-0.04,-0.1,-15.5,4.06,-6.31,0.03,0.1,-0.06,2.44,0.56,-1.31,1221.77,1720.0,0.0,0.0,0.0,0.0
1775764403952662764,38209,0.0,1.7,0.0,0.3,-0.16,-0.14,-15.5,4.06,-6.06,0.14,0.12,-0.08,3.63,-0.63,0.75,1210.62,1720.0,0.0,0.0,0.0,0.0
1775764404050956918,38308,0.0,1.4,0.0,0.5,0.02,-0.18,-15.44,4.0,-5.63,0.03,0.04,0.06,3.44,0.69,0.0,157.09,1906.0,0.0,0.0,0.0,0.0
1775764404153345542,38408,0.0,1.4,0.016,0.2,-0.04,-0.06,-15.44,3.88,-5.5,-0.01,0.07,0.02,-0.75,1.0,-0.56,156.92,1494.0,0.0,0.0,0.0,0.0
1775764404251643420,38508,0.0,1.3,0.02,0.2,0.04,-0.04,-15.44,3.88,-5.69,0.06,0.04,-0.07,-2.56,0.25,0.12,152.81,1494.0,0.0,0.0,0.0,0.0
1775764404349916651,38607,0.0,1.3,0.008,0.1,-0.04,0.04,-15.44,3.88,-5.88,0.15,0.07,-0.2,-0.12,1.0,1.0,156.92,1705.0,0.0,0.0,0.0,0.0
1775764404452347071,38707,0.0,1.3,0.0,0.5,0.02,-0.12,-15.38,3.88,-5.81,0.08,0.05,-0.09,2.38,0.31,1.0,1201.53,1705.0,0.0,0.0,0.0,0.0
1775764404550675763,38807,0.0,1.2,0.0,0.2,-0.12,-0.12,-15.31,3.88,-5.56,0.0,0.04,0.02,1.88,0.25,0.31,152.81,2266.0,0.0,0.0,0.0,0.0
1775764404648940308,38906,0.0,1.2,0.0,0.2,0.06,-0.1,-15.31,3.88,-5.5,0.0,-0.03,0.01,-0.12,0.63,-0.31,161.21,139.0,0.0,0.0,0.0,0.0
1775764404751337636,39006,0.0,1.0,0.0,0.2,0.1,-0.1,-15.38,3.88,-5.56,0.05,0.03,-0.06,-1.31,0.5,-1.56,162.24,139.0,0.0,0.0,0.0,0.0
1775764404849623422,39107,0.0,1.5,0.0,0.5,0.0,-0.2,-15.5,3.88,-5.69,0.09,0.05,-0.1,-0.06,-0.0,-1.06,1195.53,1827.0,0.0,0.0,0.0,0.0
1775764405075595748,39207,0.0,1.3,0.0,0.2,0.08,-0.06,-15.5,3.88,-5.63,0.02,0.03,-0.03,0.88,0.19,-0.5,161.38,1551.0,0.0,0.0,0.0,0.0
1775764405087297050,39307,0.0,1.1,0.0,0.6,0.08,-0.04,-15.56,3.88,-5.63,0.06,0.02,0.01,-0.75,0.31,-0.63,156.92,1551.0,0.0,0.0,0.0,0.0
1775764405152754677,39408,0.0,1.2,0.004,0.7,-0.2,0.02,-15.63,3.88,-5.75,0.03,0.06,-0.03,-2.06,0.56,-0.06,157.09,1682.0,0.0,0.0,0.0,0.0
1775764405251017809,39507,0.0,1.4,0.036,0.3,0.0,-0.18,-15.63,3.81,-5.94,0.0,-0.03,-0.13,-0.19,0.63,-0.37,1236.86,1682.0,0.0,0.0,0.0,0.0
1775764405349274793,39607,0.0,1.1,0.016,0.7,0.04,-0.21,-15.63,3.81,-5.88,0.04,0.03,-0.12,1.56,0.44,-0.94,1176.15,1881.0,0.0,0.0,0.0,0.0
1775764405451670297,39706,0.0,1.5,0.012,0.2,-0.06,-0.25,-15.69,3.81,-5.69,0.07,-0.0,0.02,2.0,0.31,-1.12,1174.6,2096.0,0.0,0.0,0.0,0.0
1775764405550007002,39806,0.0,1.3,0.0,0.3,-0.02,-0.2,-15.81,3.88,-5.5,0.06,0.04,0.0,0.63,0.56,-1.31,157.09,2096.0,0.0,0.0,0.0,0.0
1775764405667609698,39906,0.0,1.3,0.0,0.2,-0.08,-0.06,-15.94,3.75,-5.5,0.06,-0.0,-0.07,0.37,1.12,-1.25,1207.7,1180.0,0.0,0.0,0.0,0.0
1775764405750697304,40006,0.0,1.2,0.0,0.1,0.0,-0.08,-16.12,3.69,-5.44,0.15,0.06,-0.03,1.12,1.25,-2.38,165.33,2153.0,0.0,0.0,0.0,0.0
1775764405848985880,40105,0.0,1.2,0.0,0.4,-0.04,-0.06,-16.37,3.56,-5.25,0.04,0.06,-0.1,2.0,1.94,-2.38,1256.24,2153.0,0.0,0.0,0.0,0.0
1775764405947257474,40205,0.0,1.1,0.0,0.5,0.0,-0.1,-16.62,3.44,-5.0,0.16,0.17,-0.02,2.13,1.19,-2.06,1233.94,1741.0,0.0,0.0,0.0,0.0
1775764406049687269,40304,0.0,1.5,0.0,0.3,-0.02,-0.08,-16.75,3.25,-4.88,0.08,0.09,-0.04,1.81,2.75,0.63,1195.35,1844.0,0.0,0.0,0.0,0.0
1775764406148026690,40403,0.0,1.2,0.0,0.2,0.06,-0.1,-16.69,3.0,-4.69,-0.06,-0.05,-0.07,2.0,2.56,-0.44,1256.24,1844.0,0.0,0.0,0.0,0.0
1775764406246257187,40503,0.0,1.5,0.02,0.5,0.12,0.06,-16.81,2.75,-4.5,0.03,-0.06,-0.13,2.19,2.88,-3.06,1187.29,932.0,0.0,0.0,0.0,0.0
1775764406348642314,40603,0.0,1.2,0.004,0.5,0.0,-0.14,-17.19,2.56,-4.19,-0.06,-0.0,0.01,2.69,2.56,-4.56,1183.86,1787.0,0.0,0.0,0.0,0.0
1775764406446957476,40702,0.0,1.6,0.0,0.1,-0.04,-0.16,-17.69,2.25,-4.06,-0.13,0.06,-0.02,-1.12,3.25,-4.75,1188.84,1787.0,0.0,0.0,0.0,0.0
1775764406545288396,40802,0.0,1.6,0.0,0.5,-0.06,-0.23,-18.19,1.94,-4.19,-0.02,0.01,-0.08,-1.56,3.31,-4.94,1197.41,1715.0,0.0,0.0,0.0,0.0
1775764406679588032,40901,0.0,1.4,0.0,0.5,0.02,-0.08,-18.69,1.75,-4.25,0.0,0.07,-0.08,-0.44,2.5,-4.38,1167.23,1715.0,0.0,0.0,0.0,0.0
1775764406745958945,41000,0.0,1.4,0.0,0.4,0.0,-0.04,-19.06,1.56,-4.19,0.01,-0.02,0.13,1.81,1.56,-3.56,1217.65,766.0,0.0,0.0,0.0,0.0
1775764406844236441,41100,0.0,1.2,0.0,0.2,-0.04,-0.16,-19.31,1.37,-4.19,0.1,-0.17,-0.16,-2.75,3.25,-1.81,157.95,1138.0,0.0,0.0,0.0,0.0
1775764406946658418,41201,0.0,1.4,0.0,0.2,-0.1,-0.02,-19.37,1.06,-4.69,0.39,-0.24,-0.36,-0.81,-1.5,0.5,1169.12,1138.0,0.0,0.0,0.0,0.0
1775764407049052073,41302,0.0,1.4,0.0,0.5,0.08,-0.1,-19.25,1.12,-5.0,0.6,-0.28,-0.68,9.13,-7.13,2.38,157.09,2723.0,0.0,0.0,0.0,0.0
1775764407147343341,41402,0.0,1.0,0.016,0.6,0.04,-0.04,-18.81,2.0,-3.81,0.23,0.06,-0.92,24.62,-15.69,4.19,152.81,1381.0,0.0,0.0,0.0,0.0
1775764407245656998,41502,0.0,1.3,0.048,0.3,-0.14,-0.04,-17.94,3.19,-1.25,-0.16,0.22,-1.19,25.62,-7.25,9.63,161.21,1381.0,0.0,0.0,0.0,0.0
1775764407348003784,41602,0.0,1.4,0.036,0.2,0.04,-0.06,-16.69,3.0,0.56,0.16,0.2,-1.26,16.69,13.56,15.06,1092.63,2075.0,0.0,0.0,0.0,0.0
1775764407446315737,41702,0.0,1.4,0.036,0.2,-0.08,-0.1,-15.0,1.25,1.56,-0.25,0.1,-1.57,7.75,22.31,18.5,1068.79,2075.0,0.0,0.0,0.0,0.0
1775764407548719244,41801,0.0,1.3,0.016,0.5,-0.12,-0.04,-13.0,-0.31,1.94,-0.46,0.31,-1.76,-0.12,16.44,22.31,948.74,539.0,0.0,0.0,0.0,0.0
1775764407647042512,41902,0.0,1.5,0.016,0.2,-0.18,-0.2,-10.94,-1.0,2.19,-0.39,0.36,-1.55,-8.81,7.19,22.44,917.52,2704.0,0.0,0.0,0.0,0.0
1775764407749419538,42003,0.0,1.3,0.004,0.5,0.04,-0.16,-9.19,-1.31,1.44,-0.36,0.15,-0.87,-11.44,1.94,13.31,825.43,2704.0,0.0,0.0,0.0,0.0
1775764407847713269,42102,0.0,1.2,0.016,0.2,0.04,-0.18,-8.19,-1.06,0.5,-0.38,0.09,-0.35,-7.0,-6.44,8.31,165.33,1338.0,0.0,0.0,0.0,0.0
1775764407950106554,42202,0.0,1.4,0.004,0.5,-0.14,-0.06,-7.31,-0.63,0.44,-0.16,0.06,-0.03,7.0,-5.63,8.69,624.6,2590.0,0.0,0.0,0.0,0.0
1775764408048405813,42303,0.0,1.4,0.004,0.6,-0.08,-0.12,-6.81,-0.25,1.63,0.01,0.37,0.76,18.81,-3.75,1.06,542.63,2590.0,0.0,0.0,0.0,0.0
1775764408146664115,42403,0.0,1.2,0.024,0.4,0.06,-0.12,-6.81,-0.06,4.0,0.01,-0.54,1.15,26.81,-5.44,0.12,463.74,1501.0,0.0,0.0,0.0,0.0
1775764408249077559,42503,0.0,1.0,0.056,0.5,-0.06,-0.02,-6.56,0.88,6.38,-0.05,-0.37,1.46,20.06,-13.06,8.94,366.84,521.0,0.0,0.0,0.0,0.0
1775764408347362008,42603,0.0,0.7,0.036,0.5,-0.04,-0.18,-5.44,1.94,7.94,-0.08,-0.03,1.57,8.44,-9.56,14.38,306.47,521.0,0.0,0.0,0.0,0.0
1775764408449829691,42703,0.0,0.8,0.024,0.2,-0.16,-0.14,-4.13,2.19,8.13,-0.12,0.21,1.3,-7.75,4.0,12.63,228.1,312.0,0.0,0.0,0.0,0.0
1775764408552188247,42804,0.0,0.9,0.028,0.2,-0.04,-0.08,-3.06,1.44,6.94,-0.02,0.35,1.07,-17.31,9.44,7.38,250.39,312.0,0.0,0.0,0.0,0.0
1775764408650482400,42905,0.02,0.2,0.0,1.5,0.0,0.02,-2.69,0.56,5.19,0.13,0.39,0.14,-17.25,10.44,-1.75,152.29,289.0,0.0,0.0,0.0,0.0
1775764408752887251,43005,0.016,0.1,0.004,0.6,-0.1,-0.16,-3.19,-0.0,3.81,-0.17,0.71,-0.22,-9.0,10.5,-9.38,148.18,268.0,0.0,0.0,0.0,0.0
1775764408979592077,43105,0.0,1.6,0.004,0.5,-0.04,-0.18,-3.88,-0.88,3.38,-0.3,-0.44,0.12,-0.12,5.0,-1.12,201.86,268.0,0.0,0.0,0.0,0.0
1775764408991184009,43205,0.0,1.4,0.004,0.5,-0.02,-0.31,-3.31,-0.75,3.5,-0.17,-1.21,0.38,-1.63,-9.31,7.31,190.54,232.0,0.0,0.0,0.0,0.0
1775764409051873158,43304,0.0,1.4,0.0,0.6,0.12,-0.12,-2.94,1.5,3.13,0.03,-0.73,0.25,-0.63,-31.81,4.56,190.36,181.0,0.0,0.0,0.0,0.0
1775764409150188436,43405,0.0,1.2,0.036,0.3,0.04,-0.14,-2.5,4.06,3.13,-0.13,0.13,-0.17,5.56,-14.19,6.5,160.18,181.0,0.0,0.0,0.0,0.0
1775764409252570744,43505,0.0,1.4,0.056,0.3,0.08,-0.23,-2.31,5.0,3.25,-0.04,0.28,0.85,-2.56,0.37,-2.31,170.13,167.0,0.0,0.0,0.0,0.0
1775764409354902702,43606,0.0,1.3,0.036,0.3,-0.02,-0.21,-2.5,4.44,3.69,0.43,0.38,-1.53,7.44,12.5,-3.19,147.49,177.0,0.0,0.0,0.0,0.0
1775764409453245663,43707,0.0,1.0,0.012,0.1,-0.02,-0.25,-2.31,5.38,3.31,-0.04,0.08,0.12,-0.69,1.25,-0.12,151.78,177.0,0.0,0.0,0.0,0.0
1775764409551541238,43807,0.0,1.4,0.008,0.3,0.0,-0.08,-2.31,5.31,3.25,0.0,-0.0,-0.05,0.31,-0.37,0.0,151.61,164.0,0.0,0.0,0.0,0.0
1775764409663589045,43907,0.0,1.3,0.008,0.5,-0.06,-0.06,-2.31,5.31,3.31,-0.01,-0.01,-0.06,-0.19,0.37,-0.19,151.61,164.0,0.0,0.0,0.0,0.0
1775764409752292062,44007,0.0,1.4,0.008,0.5,-0.08,-0.06,-2.31,5.31,3.31,-0.05,0.02,-0.06,0.06,0.06,0.0,151.78,186.0,0.0,0.0,0.0,0.0
1775764409854632020,44107,0.0,1.5,0.0,0.3,-0.08,-0.16,-2.31,5.31,3.31,-0.03,0.01,-0.11,0.12,0.19,-0.12,151.78,175.0,0.0,0.0,0.0,0.0
1775764409952940057,44207,0.0,1.2,0.008,0.5,-0.16,-0.14,-2.31,5.31,3.31,-0.03,0.01,-0.05,0.06,0.12,0.0,151.78,175.0,0.0,0.0,0.0,0.0
1775764410055327299,44307,0.0,1.4,0.0,0.1,0.04,-0.02,-2.31,5.31,3.31,-0.04,-0.01,-0.03,0.12,0.06,0.0,151.61,181.0,0.0,0.0,0.0,0.0
1775764410153631110,44406,0.0,1.3,0.02,0.2,0.06,-0.04,-2.31,5.31,3.31,-0.05,-0.0,-0.08,-0.0,-0.06,0.0,152.81,181.0,0.0,0.0,0.0,0.0
1775764410256011078,44507,0.0,1.2,0.052,0.6,-0.06,-0.1,-2.31,5.31,3.31,-0.02,-0.0,-0.06,-0.0,0.12,-0.12,155.89,181.0,0.0,0.0,0.0,0.0
1775764410354329741,44607,0.0,1.5,0.032,0.6,-0.25,-0.12,-2.31,5.31,3.31,-0.04,-0.01,-0.06,-0.06,-0.12,-0.06,152.63,158.0,0.0,0.0,0.0,0.0
1775764410452569831,44707,0.0,1.3,0.028,0.1,0.06,-0.16,-2.31,5.31,3.31,-0.03,0.01,-0.03,0.19,0.12,0.0,152.63,197.0,0.0,0.0,0.0,0.0
1775764410554993706,44808,0.0,1.4,0.012,0.3,0.04,-0.12,-2.31,5.31,3.31,-0.03,0.01,-0.07,-0.0,0.06,0.06,156.92,197.0,0.0,0.0,0.0,0.0
1775764410657393748,44909,0.0,1.5,0.008,0.1,0.1,-0.16,-2.31,5.31,3.31,-0.01,0.01,-0.08,0.12,-0.12,0.0,155.72,169.0,0.0,0.0,0.0,0.0
1775764410755690393,45008,0.0,1.3,0.0,0.3,0.0,-0.18,-2.31,5.31,3.31,-0.02,-0.0,-0.03,-0.06,-0.06,-0.06,158.98,193.0,0.0,0.0,0.0,0.0
1775764410853939649,45108,0.0,1.4,0.012,0.2,0.0,-0.04,-2.31,5.31,3.31,-0.02,-0.01,-0.08,-0.12,-0.0,0.06,156.24,193.0,0.0,0.0,0.0,0.0
1775764410956432022,45209,0.0,1.3,0.004,0.5,0.08,-0.02,-2.31,5.31,3.31,-0.03,-0.01,-0.06,-0.06,-0.06,-0.06,155.89,171.0,0.0,0.0,0.0,0.0
1775764411054697306,45308,0.0,0.9,0.016,0.5,0.04,-0.1,-2.31,5.31,3.31,-0.02,0.01,-0.09,-0.12,0.06,-0.06,160.18,171.0,0.0,0.0,0.0,0.0
1775764411171626221,45408,0.0,1.0,0.04,0.5,-0.06,-0.14,-2.31,5.31,3.31,-0.02,0.01,-0.07,-0.06,-0.06,-0.06,168.41,183.0,0.0,0.0,0.0,0.0
1775764411255376410,45508,0.0,0.7,0.056,0.2,0.14,-0.04,-2.31,5.31,3.31,-0.03,0.01,-0.04,0.06,0.06,0.06,168.41,185.0,0.0,0.0,0.0,0.0
1775764411357739151,45608,0.0,1.2,0.024,0.2,-0.06,-0.23,-2.31,5.31,3.31,-0.03,0.01,-0.04,-0.06,-0.19,-0.06,160.01,185.0,0.0,0.0,0.0,0.0
1775764411456044959,45709,0.0,1.0,0.024,0.5,-0.14,0.02,-2.31,5.31,3.31,-0.02,0.01,-0.06,-0.12,0.06,0.0,164.3,197.0,0.0,0.0,0.0,0.0
1775764411558500456,45810,0.0,0.9,0.02,0.5,0.08,-0.1,-2.31,5.31,3.31,-0.06,-0.0,-0.05,-0.06,0.12,0.12,160.7,172.0,0.0,0.0,0.0,0.0
1775764411656761617,45910,0.0,0.7,0.016,0.5,0.02,-0.04,-2.31,5.31,3.31,-0.03,-0.0,-0.03,-0.0,-0.06,-0.06,160.01,172.0,0.0,0.0,0.0,0.0
1775764411755021352,46010,0.0,0.9,0.024,0.5,-0.02,-0.2,-2.31,5.31,3.31,-0.03,-0.0,-0.04,-0.12,0.06,0.0,164.81,183.0,0.0,0.0,0.0,0.0
1775764411857440925,46109,0.0,0.7,0.0,0.3,0.06,-0.1,-2.31,5.31,3.31,-0.02,0.01,-0.05,0.12,-0.12,0.0,164.13,183.0,0.0,0.0,0.0,0.0
1775764411955708789,46209,0.0,1.0,0.008,0.6,-0.06,-0.04,-2.31,5.31,3.31,-0.04,-0.01,-0.04,-0.0,0.12,-0.06,168.93,174.0,0.0,0.0,0.0,0.0
1775764412058135813,46310,0.0,1.1,0.004,0.5,0.14,0.04,-2.31,5.31,3.31,-0.01,0.02,-0.05,-0.19,0.06,-0.06,173.22,181.0,0.0,0.0,0.0,0.0
1775764412156460228,46410,0.0,1.1,0.052,0.2,0.06,-0.27,-2.31,5.31,3.31,-0.04,0.01,-0.06,-0.0,-0.0,0.06,164.13,181.0,0.0,0.0,0.0,0.0
1775764412258811075,46510,0.0,0.9,0.06,0.4,-0.02,-0.04,-2.31,5.31,3.31,-0.02,-0.0,-0.05,-0.0,-0.12,0.0,160.01,180.0,0.0,0.0,0.0,0.0
1775764412357104936,46610,0.0,0.9,0.036,0.3,0.08,-0.12,-2.31,5.31,3.31,-0.03,-0.0,-0.04,-0.06,0.12,-0.06,164.13,181.0,0.0,0.0,0.0,0.0
1775764412459550410,46710,0.0,1.0,0.028,0.1,-0.14,-0.06,-2.31,5.31,3.31,-0.04,-0.01,-0.06,-0.0,0.06,-0.06,160.01,181.0,0.0,0.0,0.0,0.0
1775764412557809142,46811,0.0,1.1,0.02,0.6,-0.06,-0.16,-2.31,5.31,3.31,-0.03,0.02,-0.06,-0.0,0.12,0.06,164.13,167.0,0.0,0.0,0.0,0.0
1775764412660206432,46911,0.0,0.9,0.02,0.2,0.02,-0.12,-2.31,5.31,3.31,-0.03,-0.0,-0.04,-0.06,0.06,0.0,164.98,161.0,0.0,0.0,0.0,0.0
1775764412758514792,47011,0.0,0.8,0.012,0.5,0.04,-0.06,-2.31,5.31,3.31,-0.03,-0.01,-0.06,-0.0,-0.0,0.0,160.01,161.0,0.0,0.0,0.0,0.0
1775764412860902157,47111,0.0,1.0,0.012,0.1,0.06,-0.14,-2.31,5.31,3.31,-0.02,-0.0,-0.05,0.06,-0.0,0.06,165.15,195.0,0.0,0.0,0.0,0.0
1775764412959192777,47212,0.0,1.0,0.012,-0.1,-0.06,-0.12,-2.31,5.31,3.31,-0.04,-0.0,-0.05,0.06,-0.12,0.06,164.13,186.0,0.0,0.0,0.0,0.0
1775764413187602674,47311,0.0,1.1,0.0,0.5,-0.06,-0.14,-2.31,5.31,3.31,-0.04,-0.0,-0.05,0.06,-0.12,-0.06,172.53,186.0,0.0,0.0,0.0,0.0
1775764413258229489,47411,0.0,1.1,0.04,0.5,-0.2,-0.14,-2.31,5.31,3.31,-0.04,-0.0,-0.06,-0.06,0.12,-0.06,160.01,174.0,0.0,0.0,0.0,0.0
1775764413266542229,47511,0.0,0.9,0.048,0.0,0.1,-0.1,-2.31,5.31,3.31,-0.05,-0.0,-0.06,0.12,-0.12,-0.06,160.52,174.0,0.0,0.0,0.0,0.0
1775764413360599201,47610,0.0,0.7,0.04,0.2,0.02,-0.12,-2.31,5.31,3.31,-0.03,-0.01,-0.05,0.12,-0.06,0.06,164.81,173.0,0.0,0.0,0.0,0.0
1775764413458860653,47710,0.0,0.8,0.016,0.5,0.12,-0.06,-2.31,5.31,3.31,-0.02,-0.01,-0.03,0.12,-0.0,0.19,160.52,169.0,0.0,0.0,0.0,0.0
1775764413561271086,47811,0.0,1.0,0.02,0.5,-0.02,-0.08,-2.31,5.31,3.31,-0.05,0.02,-0.06,-0.0,0.06,0.06,164.81,169.0,0.0,0.0,0.0,0.0
1775764413659590369,47910,0.0,0.5,0.016,0.3,-0.1,-0.02,-2.31,5.31,3.31,-0.05,-0.0,-0.06,0.06,-0.25,0.0,168.93,151.0,0.0,0.0,0.0,0.0
1775764413757835062,48010,0.0,0.7,0.008,0.3,0.12,-0.18,-2.31,5.31,3.31,-0.03,0.01,-0.03,-0.0,-0.06,0.06,177.33,180.0,0.0,0.0,0.0,0.0
1775764413860311678,48111,0.0,1.0,0.0,0.3,-0.04,-0.14,-2.31,5.31,3.31,-0.05,0.01,-0.04,-0.06,-0.12,0.0,173.22,180.0,0.0,0.0,0.0,0.0
1775764413958544872,48210,0.0,0.8,0.004,0.5,-0.06,0.04,-2.31,5.31,3.31,-0.03,0.01,-0.04,-0.0,0.06,-0.06,160.18,178.0,0.0,0.0,0.0,0.0
1775764414060944036,48310,0.0,1.1,0.008,0.5,0.08,-0.02,-2.31,5.31,3.31,-0.01,-0.0,-0.06,0.06,-0.19,-0.06,164.13,178.0,0.0,0.0,0.0,0.0
1775764414159256761,48410,0.0,0.9,0.036,0.2,-0.12,-0.06,-2.31,5.31,3.31,-0.03,-0.0,-0.03,0.06,-0.12,-0.06,164.13,177.0,0.0,0.0,0.0,0.0
1775764414257538970,48509,0.0,0.9,0.048,0.2,0.02,-0.08,-2.31,5.31,3.31,-0.04,-0.0,-0.05,0.06,0.06,0.06,164.3,169.0,0.0,0.0,0.0,0.0
1775764414359918177,48609,0.0,1.3,0.032,0.2,-0.1,-0.25,-2.31,5.31,3.31,-0.02,0.02,-0.03,0.06,0.06,-0.06,165.33,169.0,0.0,0.0,0.0,0.0
1775764414458228588,48710,0.0,1.4,0.024,0.2,0.08,-0.18,-2.31,5.31,3.31,-0.01,0.01,-0.04,-0.06,-0.0,-0.06,160.01,173.0,0.0,0.0,0.0,0.0
1775764414560625444,48809,0.0,1.2,0.012,0.1,-0.08,-0.06,-2.31,5.31,3.31,-0.03,-0.0,-0.05,-0.06,-0.0,-0.06,160.7,171.0,0.0,0.0,0.0,0.0
1775764414675587288,48910,0.0,1.5,0.008,0.3,-0.06,-0.06,-2.31,5.31,3.31,-0.02,-0.0,-0.04,-0.0,0.06,0.06,160.01,171.0,0.0,0.0,0.0,0.0
1775764414791595544,49010,0.0,1.4,0.004,0.4,-0.16,-0.1,-2.31,5.31,3.31,-0.03,-0.0,-0.06,-0.06,-0.0,-0.06,164.13,183.0,0.0,0.0,0.0,0.0
1775764414859657158,49110,0.0,1.3,0.008,0.2,0.06,-0.21,-2.31,5.31,3.31,-0.04,0.01,-0.03,-0.12,-0.06,0.06,173.22,180.0,0.0,0.0,0.0,0.0
1775764414961983163,49211,0.0,1.3,0.004,0.2,0.12,-0.04,-2.31,5.31,3.31,-0.03,0.01,-0.04,-0.06,0.12,0.06,173.22,180.0,0.0,0.0,0.0,0.0
1775764415060306264,49311,0.0,1.5,0.004,0.6,0.06,-0.08,-2.31,5.31,3.31,-0.02,0.01,-0.04,-0.0,-0.12,-0.06,164.3,175.0,0.0,0.0,0.0,0.0
1775764415168605461,49411,0.0,1.2,0.044,0.5,-0.08,-0.14,-2.31,5.31,3.31,-0.03,0.01,-0.04,-0.06,-0.0,0.0,185.56,205.0,0.0,0.0,0.0,0.0
1775764415261022858,49511,0.0,1.3,0.048,0.5,-0.08,-0.14,-2.31,5.31,3.31,-0.03,-0.0,-0.05,-0.0,-0.06,0.06,173.22,205.0,0.0,0.0,0.0,0.0
1775764415359253362,49611,0.0,1.4,0.036,0.3,-0.14,-0.16,-2.31,5.31,3.31,-0.05,-0.0,-0.06,-0.0,-0.12,-0.06,177.33,172.0,0.0,0.0,0.0,0.0
1775764415461639732,49711,0.0,1.1,0.032,0.8,0.06,-0.2,-2.31,5.31,3.31,-0.03,-0.0,-0.05,-0.0,-0.0,0.0,164.13,172.0,0.0,0.0,0.0,0.0
1775764415559985863,49811,0.0,1.3,0.016,0.5,0.0,-0.12,-2.31,5.31,3.31,-0.04,-0.0,-0.03,-0.12,0.19,0.06,173.04,195.0,0.0,0.0,0.0,0.0
1775764415658267422,49910,0.0,1.3,0.012,0.6,0.02,-0.12,-2.31,5.31,3.31,-0.03,-0.0,-0.05,0.06,0.06,0.0,168.93,181.0,0.0,0.0,0.0,0.0
1775764415760670680,50010,0.0,1.3,0.008,0.3,0.04,-0.02,-2.31,5.31,3.31,-0.03,0.02,-0.05,0.19,-0.12,-0.12,164.81,181.0,0.0,0.0,0.0,0.0
1775764415858982034,50110,0.0,1.4,0.008,0.2,-0.12,-0.14,-2.31,5.31,3.31,-0.01,0.02,-0.03,-0.0,0.06,0.0,164.81,182.0,0.0,0.0,0.0,0.0
1775764415967329619,50209,0.0,1.5,0.012,0.3,-0.04,0.0,-2.31,5.31,3.31,-0.04,-0.0,-0.05,-0.06,0.06,0.12,169.1,184.0,0.0,0.0,0.0,0.0
1775764416059666134,50310,0.0,1.4,0.004,0.5,-0.08,0.02,-2.31,5.31,3.31,-0.02,0.01,-0.04,-0.19,-0.0,0.0,173.22,184.0,0.0,0.0,0.0,0.0
1775764416167996490,50410,0.0,1.4,0.028,0.2,-0.12,-0.16,-2.31,5.31,3.31,-0.02,-0.0,-0.05,-0.06,-0.12,0.06,173.22,176.0,0.0,0.0,0.0,0.0
1775764416260366779,50510,0.0,1.1,0.052,0.5,-0.18,-0.12,-2.31,5.31,3.31,-0.04,0.02,-0.05,-0.12,0.06,0.06,173.22,176.0,0.0,0.0,0.0,0.0
1775764416362710740,50610,0.0,1.5,0.04,0.5,0.06,0.02,-2.31,5.31,3.31,-0.05,0.01,-0.04,-0.0,-0.0,0.06,168.41,171.0,0.0,0.0,0.0,0.0
1775764416461017093,50711,0.0,1.4,0.028,0.0,0.06,-0.25,-2.31,5.31,3.31,-0.03,-0.0,-0.03,0.12,-0.12,-0.06,172.53,187.0,0.0,0.0,0.0,0.0
1775764416559340001,50810,0.028,0.3,0.0,1.2,-0.08,-0.08,-2.31,5.31,3.31,0.0,-0.0,-0.04,0.19,-0.06,-0.06,168.41,187.0,0.0,0.0,0.0,0.0
1775764416695600770,50910,0.02,-0.1,0.0,1.0,-0.08,-0.02,-2.31,5.31,3.31,-0.05,0.01,-0.06,-0.0,-0.0,-0.12,165.33,165.0,0.0,0.0,0.0,0.0
1775764416760096978,51011,0.0,1.0,0.012,0.3,0.04,-0.16,-2.31,5.31,3.31,-0.01,-0.0,-0.05,0.06,-0.06,-0.06,164.3,178.0,0.0,0.0,0.0,0.0
1775764416879580337,51110,0.0,1.1,0.004,0.3,0.02,-0.14,-2.31,5.31,3.31,-0.04,0.02,-0.04,-0.0,-0.0,-0.06,165.33,178.0,0.0,0.0,0.0,0.0
1775764416960704349,51211,0.0,0.9,0.0,0.0,0.02,-0.12,-2.31,5.31,3.31,-0.05,0.02,-0.05,-0.06,-0.0,0.0,172.53,185.0,0.0,0.0,0.0,0.0
1775764417063122219,51312,0.0,0.7,0.004,0.1,0.04,-0.08,-2.31,5.31,3.31,-0.03,0.01,-0.07,0.06,-0.0,-0.06,168.41,189.0,0.0,0.0,0.0,0.0
1775764417161405405,51411,0.0,0.7,0.044,0.5,0.06,-0.18,-2.31,5.31,3.31,0.0,0.02,-0.04,0.06,-0.06,-0.06,164.13,189.0,0.0,0.0,0.0,0.0
1775764417263823657,51511,0.0,0.9,0.056,0.5,0.02,-0.21,-2.31,5.31,3.31,-0.03,-0.0,-0.04,-0.0,-0.06,0.0,168.76,166.0,0.0,0.0,0.0,0.0
1775764417362114825,51612,0.0,1.1,0.044,0.5,0.04,-0.04,-2.31,5.31,3.31,-0.03,-0.0,-0.07,0.12,-0.06,0.0,172.01,175.0,0.0,0.0,0.0,0.0
1775764417464452357,51712,0.0,1.0,0.032,0.2,-0.06,-0.1,-2.31,5.31,3.31,-0.04,-0.0,-0.08,0.12,0.06,0.0,167.73,175.0,0.0,0.0,0.0,0.0
1775764417562793005,51813,0.0,0.9,0.024,0.6,0.06,-0.16,-2.31,5.31,3.31,-0.03,0.03,-0.06,0.12,0.19,0.0,176.82,172.0,0.0,0.0,0.0,0.0
1775764417661098968,51912,0.0,0.7,0.008,0.4,0.1,-0.12,-2.31,5.31,3.31,-0.03,-0.0,-0.04,-0.0,-0.0,-0.12,172.53,172.0,0.0,0.0,0.0,0.0
1775764417787586931,52012,0.0,1.0,0.012,0.5,0.04,-0.2,-2.31,5.31,3.31,-0.05,-0.0,-0.04,0.06,-0.0,0.0,167.73,188.0,0.0,0.0,0.0,0.0
1775764417861777000,52113,0.0,0.6,0.004,0.3,0.02,-0.2,-2.31,5.31,3.31,-0.05,0.01,-0.03,0.12,-0.19,-0.06,168.41,175.0,0.0,0.0,0.0,0.0
1775764417964230213,52212,0.0,0.9,0.008,0.5,-0.04,-0.06,-2.31,5.31,3.31,-0.03,0.01,-0.07,-0.06,-0.12,0.0,168.41,175.0,0.0,0.0,0.0,0.0
1775764418062471925,52312,0.0,1.0,0.008,0.2,0.02,-0.21,-2.31,5.31,3.31,-0.04,-0.0,-0.07,-0.0,-0.12,-0.12,164.13,179.0,0.0,0.0,0.0,0.0
1775764418164854323,52412,0.0,0.7,0.048,0.3,0.06,-0.23,-2.31,5.31,3.31,-0.03,0.02,-0.06,0.06,-0.12,-0.06,168.41,159.0,0.0,0.0,0.0,0.0
1775764418263148898,52512,0.0,1.0,0.048,0.5,-0.06,-0.2,-2.31,5.31,3.31,-0.03,0.01,-0.04,0.06,-0.12,-0.06,173.04,159.0,0.0,0.0,0.0,0.0
1775764418365512260,52612,0.0,0.8,0.028,0.2,-0.02,-0.2,-2.31,5.31,3.31,-0.05,0.02,-0.04,-0.06,-0.0,0.06,160.52,174.0,0.0,0.0,0.0,0.0
1775764418463840834,52712,0.0,0.8,0.02,0.5,-0.06,-0.02,-2.31,5.31,3.31,-0.03,0.01,-0.05,-0.0,-0.0,0.0,173.22,174.0,0.0,0.0,0.0,0.0
1775764418562125780,52812,0.0,1.0,0.02,0.3,0.02,-0.1,-2.31,5.31,3.31,-0.02,0.02,-0.05,-0.0,-0.0,-0.12,168.93,171.0,0.0,0.0,0.0,0.0
1775764418664543251,52913,0.0,1.0,0.008,0.3,-0.02,-0.08,-2.31,5.31,3.31,-0.02,-0.0,-0.04,-0.0,-0.0,0.0,185.73,160.0,0.0,0.0,0.0,0.0
1775764418766928205,53013,0.0,0.7,0.004,0.5,-0.02,-0.21,-2.31,5.31,3.31,-0.03,0.02,-0.06,-0.0,0.06,0.0,164.13,160.0,0.0,0.0,0.0,0.0
1775764418865217891,53114,0.0,0.9,0.008,0.2,-0.04,-0.1,-2.31,5.31,3.31,-0.02,0.02,-0.05,-0.19,-0.06,0.12,181.45,192.0,0.0,0.0,0.0,0.0
1775764418967624400,53214,0.0,1.0,0.004,0.1,0.08,-0.21,-2.31,5.31,3.31,-0.02,-0.01,-0.06,-0.0,0.12,0.0,168.93,188.0,0.0,0.0,0.0,0.0
1775764419065921330,53315,0.0,1.0,0.008,0.3,-0.14,0.0,-2.31,5.31,3.31,-0.06,0.01,-0.05,-0.06,-0.0,-0.06,169.1,188.0,0.0,0.0,0.0,0.0
1775764419183590734,53414,0.0,1.0,0.044,0.5,0.0,0.0,-2.31,5.31,3.31,-0.04,0.02,-0.03,-0.06,-0.06,0.0,177.33,181.0,0.0,0.0,0.0,0.0
1775764419266578173,53514,0.0,0.9,0.056,0.2,0.0,-0.04,-2.31,5.31,3.31,-0.04,0.01,-0.06,-0.0,-0.0,0.0,172.53,170.0,0.0,0.0,0.0,0.0
1775764419364873766,53614,0.0,0.9,0.04,0.4,0.08,-0.08,-2.31,5.31,3.31,-0.01,0.01,-0.06,-0.12,0.06,0.0,168.41,170.0,0.0,0.0,0.0,0.0
1775764419463163119,53713,0.0,1.3,0.024,0.6,-0.06,-0.1,-2.31,5.31,3.31,-0.04,0.02,-0.08,-0.0,0.12,-0.06,168.41,157.0,0.0,0.0,0.0,0.0
1775764419565587218,53813,0.0,1.3,0.028,0.5,-0.04,-0.06,-2.31,5.31,3.31,-0.02,0.02,-0.08,-0.12,0.25,0.06,168.41,164.0,0.0,0.0,0.0,0.0
1775764419663866849,53914,0.0,1.5,0.008,0.5,-0.12,-0.12,-2.31,5.31,3.31,-0.03,0.01,-0.09,-0.0,0.06,0.0,168.41,164.0,0.0,0.0,0.0,0.0
1775764419766300633,54013,0.0,1.1,0.02,0.3,0.02,-0.12,-2.31,5.31,3.31,-0.03,-0.0,-0.07,0.06,0.06,0.0,172.7,164.0,0.0,0.0,0.0,0.0
1775764419864619948,54113,0.0,1.2,0.008,0.6,-0.1,-0.02,-2.31,5.31,3.31,-0.01,-0.0,-0.06,0.12,-0.0,0.0,172.7,164.0,0.0,0.0,0.0,0.0
1775764419966976660,54213,0.0,1.3,0.012,0.3,0.04,0.04,-2.31,5.31,3.31,-0.02,0.03,-0.08,-0.0,-0.0,0.0,176.82,169.0,0.0,0.0,0.0,0.0
1775764420065268163,54313,0.0,1.3,0.0,0.5,0.1,-0.08,-2.31,5.31,3.31,-0.03,-0.0,-0.06,-0.06,0.06,0.06,168.41,190.0,0.0,0.0,0.0,0.0
1775764420167661447,54414,0.0,1.3,0.044,0.5,-0.02,-0.25,-2.31,5.31,3.31,-0.03,0.01,-0.08,-0.06,-0.06,-0.12,184.71,190.0,0.0,0.0,0.0,0.0
1775764420265971207,54514,0.0,1.4,0.048,0.5,-0.06,-0.14,-2.31,5.31,3.31,-0.03,0.04,-0.07,-0.0,0.06,0.0,168.24,186.0,0.0,0.0,0.0,0.0
1775764420364185211,54614,0.0,1.0,0.032,0.3,0.12,-0.08,-2.31,5.31,3.31,-0.03,-0.0,-0.05,0.06,-0.0,0.06,168.41,168.0,0.0,0.0,0.0,0.0
1775764420466610086,54714,0.0,1.3,0.024,0.3,0.02,-0.02,-2.31,5.31,3.31,-0.05,0.02,-0.08,0.06,-0.12,0.0,172.7,168.0,0.0,0.0,0.0,0.0
1775764420564947494,54814,0.0,1.3,0.02,0.5,-0.12,-0.16,-2.31,5.31,3.31,-0.06,0.03,-0.07,-0.0,0.06,0.06,168.41,149.0,0.0,0.0,0.0,0.0
1775764420667345407,54914,0.0,1.6,0.008,0.3,-0.12,-0.08,-2.31,5.31,3.31,-0.05,0.02,-0.07,0.06,-0.0,0.12,164.13,149.0,0.0,0.0,0.0,0.0
1775764420765638334,55014,0.0,1.5,0.008,0.2,-0.04,-0.02,-2.31,5.31,3.31,-0.01,0.01,-0.05,0.12,-0.0,0.0,173.22,165.0,0.0,0.0,0.0,0.0
1775764420863932003,55113,0.0,1.3,0.008,0.6,0.06,-0.04,-2.31,5.31,3.31,-0.03,0.01,-0.06,-0.06,-0.06,0.0,176.82,203.0,0.0,0.0,0.0,0.0
1775764420966331508,55213,0.0,1.3,0.012,0.4,0.02,-0.1,-2.31,5.31,3.31,-0.05,0.03,-0.08,-0.06,-0.0,0.0,192.94,203.0,0.0,0.0,0.0,0.0
1775764421187596226,55313,0.0,1.1,0.004,0.1,-0.02,0.0,-2.31,5.31,3.31,-0.03,0.01,-0.03,-0.0,-0.12,-0.12,192.94,182.0,0.0,0.0,0.0,0.0
1775764421265339056,55413,0.0,1.1,0.04,0.1,0.14,-0.1,-2.31,5.31,3.31,-0.02,0.01,-0.06,-0.0,0.12,0.06,180.93,191.0,0.0,0.0,0.0,0.0
1775764421273670073,55514,0.0,1.1,0.052,0.1,0.06,-0.12,-2.31,5.31,3.31,-0.01,0.02,-0.06,-0.06,-0.0,0.06,173.04,191.0,0.0,0.0,0.0,0.0
1775764421367666396,55614,0.0,1.3,0.032,0.2,-0.04,-0.12,-2.31,5.31,3.31,-0.02,-0.0,-0.06,0.06,-0.06,0.0,181.45,162.0,0.0,0.0,0.0,0.0
1775764421465959195,55713,0.0,1.2,0.02,0.2,-0.04,-0.21,-2.31,5.31,3.31,-0.03,0.01,-0.07,-0.06,0.06,0.06,181.45,197.0,0.0,0.0,0.0,0.0
1775764421568396142,55814,0.0,1.1,0.024,0.3,-0.12,-0.14,-2.31,5.31,3.31,-0.03,0.01,-0.06,0.19,-0.12,0.0,194.14,197.0,0.0,0.0,0.0,0.0
1775764421666699904,55914,0.0,1.5,0.008,0.1,0.02,-0.04,-2.31,5.31,3.31,-0.04,0.01,-0.05,-0.0,-0.06,0.0,193.97,177.0,0.0,0.0,0.0,0.0
1775764421764984796,56013,0.0,1.3,0.004,0.2,0.02,-0.1,-2.31,5.31,3.31,-0.01,-0.0,-0.06,-0.06,0.06,0.0,176.65,171.0,0.0,0.0,0.0,0.0
1775764421867386967,56113,0.0,1.4,0.016,0.1,-0.1,-0.04,-2.31,5.31,3.31,-0.02,0.01,-0.03,-0.06,-0.0,0.0,176.82,171.0,0.0,0.0,0.0,0.0
1775764421965675840,56214,0.0,1.5,0.0,0.2,-0.1,-0.14,-2.31,5.31,3.31,-0.02,0.02,-0.05,-0.06,-0.12,-0.06,189.85,148.0,0.0,0.0,0.0,0.0
1775764422063909682,56313,0.0,1.2,0.0,0.4,-0.02,-0.1,-2.31,5.31,3.31,-0.04,0.01,-0.04,-0.06,0.12,0.06,185.73,148.0,0.0,0.0,0.0,0.0
1775764422166373905,56413,0.0,1.1,0.044,0.6,-0.02,-0.06,-2.31,5.31,3.31,-0.03,0.02,-0.04,-0.06,0.12,-0.12,181.45,164.0,0.0,0.0,0.0,0.0
1775764422264704982,56513,0.0,1.2,0.04,0.5,0.14,-0.12,-2.31,5.31,3.31,-0.03,0.02,-0.04,0.12,-0.06,0.06,189.85,174.0,0.0,0.0,0.0,0.0
1775764422367027655,56612,0.0,1.5,0.04,0.4,-0.06,-0.1,-2.31,5.31,3.31,-0.01,0.02,-0.05,-0.12,0.06,-0.12,172.53,174.0,0.0,0.0,0.0,0.0
1775764422465338863,56713,0.0,1.3,0.028,0.2,-0.1,-0.23,-2.31,5.31,3.31,-0.04,0.01,-0.05,-0.12,0.06,0.06,176.82,170.0,0.0,0.0,0.0,0.0
1775764422567749680,56814,0.0,1.2,0.02,0.5,-0.08,0.06,-2.31,5.31,3.31,-0.04,0.02,-0.07,-0.06,-0.0,0.0,176.65,180.0,0.0,0.0,0.0,0.0
1775764422666039796,56913,0.0,1.5,0.024,0.1,-0.1,-0.08,-2.31,5.31,3.31,-0.01,0.01,-0.04,0.12,-0.06,0.0,176.65,180.0,0.0,0.0,0.0,0.0
1775764422899594406,57013,0.0,1.1,0.012,0.5,0.0,-0.1,-2.31,5.31,3.31,-0.01,0.02,-0.05,0.06,0.12,0.0,172.53,192.0,0.0,0.0,0.0,0.0
1775764422965029474,57114,0.0,1.4,0.012,0.3,-0.08,-0.18,-2.31,5.31,3.31,-0.03,0.04,-0.04,-0.06,0.12,0.06,231.7,192.0,0.0,0.0,0.0,0.0
1775764422978534077,57213,0.0,1.4,0.0,0.2,-0.1,-0.2,-2.31,5.31,3.31,-0.05,-0.0,-0.04,0.12,0.06,0.0,185.22,176.0,0.0,0.0,0.0,0.0
1775764423067427725,57313,0.0,1.5,0.008,0.4,-0.16,-0.23,-2.31,5.31,3.31,-0.03,0.02,-0.05,0.06,-0.06,0.0,226.55,156.0,0.0,0.0,0.0,0.0
1775764423165704065,57414,0.0,1.1,0.052,0.2,-0.02,-0.14,-2.31,5.31,3.31,-0.04,0.02,-0.04,-0.06,0.06,0.12,193.97,156.0,0.0,0.0,0.0,0.0
1775764423268106161,57513,0.0,1.3,0.044,0.2,0.06,-0.18,-2.31,5.31,3.31,-0.01,0.02,-0.05,-0.06,-0.0,-0.06,193.11,145.0,0.0,0.0,0.0,0.0
1775764423366393445,57614,0.0,1.3,0.028,0.2,0.04,-0.18,-2.31,5.31,3.31,-0.03,0.03,-0.05,0.06,-0.0,0.0,180.93,224.0,0.0,0.0,0.0,0.0
1775764423468818577,57713,0.036,0.7,0.032,0.0,0.06,-0.18,-2.31,5.31,3.31,-0.03,0.02,-0.05,0.06,-0.0,0.06,202.37,224.0,0.0,0.0,0.0,0.0
1775764423567101472,57814,0.0,0.8,0.024,0.3,-0.1,-0.04,-2.31,5.31,3.31,-0.02,0.02,-0.03,0.19,-0.0,0.0,189.85,192.0,0.0,0.0,0.0,0.0
1775764423669499587,57914,0.0,1.0,0.016,0.2,-0.02,-0.12,-2.31,5.31,3.31,-0.03,0.01,-0.04,-0.0,0.06,0.0,206.66,170.0,0.0,0.0,0.0,0.0
1775764423767862794,58014,0.0,1.0,0.008,0.2,-0.08,-0.16,-2.31,5.31,3.31,-0.02,0.01,-0.06,-0.0,-0.06,-0.06,172.53,170.0,0.0,0.0,0.0,0.0
1775764423870184448,58114,0.0,0.9,0.0,0.3,-0.1,-0.08,-2.31,5.31,3.31,-0.02,-0.0,-0.05,0.06,0.06,0.0,188.82,186.0,0.0,0.0,0.0,0.0
1775764423968490620,58215,0.0,1.2,0.004,0.3,-0.08,-0.16,-2.31,5.31,3.31,-0.03,0.01,-0.05,0.12,-0.06,-0.12,172.7,189.0,0.0,0.0,0.0,0.0
1775764424070901920,58315,0.0,1.3,0.004,0.3,0.02,0.0,-2.31,5.31,3.31,-0.04,0.01,-0.03,0.12,-0.0,0.06,185.73,189.0,0.0,0.0,0.0,0.0
1775764424169156023,58416,0.0,1.5,0.036,0.3,0.18,0.02,-2.31,5.31,3.31,-0.03,0.01,-0.05,-0.0,0.06,0.12,206.66,171.0,0.0,0.0,0.0,0.0
1775764424271573155,58516,0.0,1.5,0.048,0.5,0.02,-0.12,-2.31,5.31,3.31,-0.01,0.02,-0.04,0.12,0.06,0.0,185.73,171.0,0.0,0.0,0.0,0.0
1775764424369887737,58615,0.0,1.4,0.032,0.3,-0.12,-0.14,-2.31,5.31,3.31,-0.04,0.02,-0.05,-0.0,-0.0,0.06,197.22,159.0,0.0,0.0,0.0,0.0
1775764424472229224,58716,0.032,0.3,0.0,1.0,0.02,0.1,-2.31,5.31,3.31,-0.01,0.02,-0.05,0.06,-0.31,0.12,202.54,178.0,0.0,0.0,0.0,0.0
1775764424570558361,58816,0.0,1.1,0.02,0.3,0.1,-0.14,-2.31,5.31,3.31,-0.01,0.01,-0.04,0.06,-0.12,-0.06,227.58,178.0,0.0,0.0,0.0,0.0
1775764424668844851,58915,0.0,0.9,0.012,0.4,0.04,-0.18,-2.31,5.31,3.31,-0.01,0.03,-0.05,0.19,-0.19,0.0,172.53,195.0,0.0,0.0,0.0,0.0
1775764424771231429,59016,0.0,0.7,0.012,0.3,-0.06,-0.04,-2.31,5.31,3.31,-0.03,0.02,-0.03,-0.0,-0.19,0.06,202.54,168.0,0.0,0.0,0.0,0.0
1775764424999588683,59117,0.0,1.0,0.012,0.2,0.06,-0.04,-2.31,5.31,3.31,-0.02,0.01,-0.05,-0.06,-0.06,0.0,231.7,168.0,0.0,0.0,0.0,0.0
1775764425070242227,59216,0.0,0.8,0.008,0.6,-0.06,-0.06,-2.31,5.31,3.31,-0.01,0.02,-0.05,-0.06,0.12,-0.06,198.08,185.0,0.0,0.0,0.0,0.0
1775764425083418875,59316,0.0,0.7,0.004,0.3,0.1,0.04,-2.31,5.31,3.31,-0.02,0.01,-0.07,0.06,-0.0,-0.06,198.25,185.0,0.0,0.0,0.0,0.0
1775764425172591492,59416,0.0,0.7,0.044,0.3,-0.1,-0.21,-2.31,5.31,3.31,-0.04,0.01,-0.03,-0.0,-0.06,0.06,205.63,161.0,0.0,0.0,0.0,0.0
1775764425270905799,59516,0.0,1.0,0.052,0.1,-0.06,-0.2,-2.31,5.31,3.31,-0.03,0.02,-0.05,0.12,0.06,0.06,202.37,199.0,0.0,0.0,0.0,0.0
1775764425373265156,59617,0.0,1.0,0.036,0.2,-0.02,-0.18,-2.31,5.31,3.31,-0.04,0.02,-0.07,0.12,0.06,-0.06,202.54,199.0,0.0,0.0,0.0,0.0
1775764425471570130,59718,0.0,1.1,0.02,0.3,0.1,-0.14,-2.31,5.31,3.31,-0.03,0.03,-0.05,-0.0,0.06,0.12,177.5,188.0,0.0,0.0,0.0,0.0
1775764425623590362,59817,0.0,1.0,0.024,0.1,0.0,-0.12,-2.31,5.31,3.31,-0.04,0.01,-0.03,-0.12,-0.06,0.0,169.1,181.0,0.0,0.0,0.0,0.0
1775764425674203646,59918,0.0,1.0,0.012,0.6,-0.02,-0.12,-2.31,5.31,3.31,-0.03,0.02,-0.05,-0.06,-0.0,0.06,11970.53,161.0,0.0,0.0,0.0,0.0
1775764425780632108,60018,0.0,1.0,0.004,0.1,0.08,-0.1,-2.31,5.31,3.31,-0.03,0.02,-0.05,-0.12,-0.0,-0.06,169.1,161.0,0.0,0.0,0.0,0.0
1775764425873008325,60118,0.0,1.1,0.012,0.4,-0.08,-0.14,-2.31,5.31,3.31,-0.03,0.04,-0.04,0.06,-0.06,0.0,207.34,162.0,0.0,0.0,0.0,0.0
1775764425975365682,60218,0.0,1.1,0.012,0.3,-0.1,-0.1,-2.31,5.31,3.31,-0.04,0.04,-0.08,-0.06,0.06,0.0,173.22,162.0,0.0,0.0,0.0,0.0
1775764426073674027,60318,0.0,0.9,0.008,0.2,-0.02,-0.1,-2.31,5.31,3.31,-0.03,0.03,-0.06,0.06,-0.06,0.06,177.33,176.0,0.0,0.0,0.0,0.0
1775764426171981374,60418,0.0,0.7,0.052,0.3,0.08,-0.06,-2.31,5.31,3.31,-0.05,0.02,-0.06,0.12,-0.0,0.06,181.62,183.0,0.0,0.0,0.0,0.0
1775764426274378768,60518,0.0,0.9,0.044,1.1,0.2,-0.12,-2.31,5.31,3.31,-0.01,-0.0,-0.04,-0.0,0.06,-0.06,185.73,183.0,0.0,0.0,0.0,0.0
1775764426372610636,60618,0.0,1.6,0.04,0.3,0.02,-0.21,-2.31,5.31,3.31,-0.04,0.01,-0.07,-0.0,-0.12,0.0,177.33,176.0,0.0,0.0,0.0,0.0
1775764426475010586,60718,0.0,1.3,0.028,0.1,-0.02,-0.29,-2.31,5.31,3.31,-0.03,0.01,-0.06,-0.0,0.12,-0.12,177.33,176.0,0.0,0.0,0.0,0.0
1775764426573340043,60818,0.0,1.5,0.008,0.5,-0.1,-0.1,-2.31,5.31,3.31,-0.03,0.01,-0.03,-0.0,0.06,0.12,243.7,171.0,0.0,0.0,0.0,0.0
1775764426671641780,60917,0.0,1.2,0.016,0.3,0.06,-0.1,-2.31,5.31,3.31,-0.02,0.01,-0.03,-0.0,0.06,0.06,185.73,170.0,0.0,0.0,0.0,0.0
1775764426787649835,61017,0.0,1.2,0.0,0.3,-0.04,-0.08,-2.31,5.31,3.31,-0.02,0.04,-0.04,0.12,0.06,0.0,181.45,170.0,0.0,0.0,0.0,0.0
1775764426872332540,61117,0.0,1.0,0.0,0.5,0.02,-0.14,-2.31,5.31,3.31,-0.04,0.03,-0.06,-0.0,-0.12,0.0,180.42,168.0,0.0,0.0,0.0,0.0
1775764426974716731,61217,0.0,0.7,0.004,0.2,-0.04,-0.14,-2.31,5.31,3.31,-0.03,-0.0,-0.03,-0.12,-0.06,0.06,181.45,166.0,0.0,0.0,0.0,0.0
1775764427073020821,61318,0.0,1.0,0.0,0.3,0.06,-0.1,-2.31,5.31,3.31,-0.02,0.01,-0.07,-0.06,-0.0,0.06,232.21,166.0,0.0,0.0,0.0,0.0
1775764427171273786,61418,0.0,1.0,0.056,0.2,0.08,-0.04,-2.31,5.31,3.31,-0.05,0.02,-0.05,-0.19,0.06,-0.06,181.62,149.0,0.0,0.0,0.0,0.0
1775764427273741308,61517,0.0,1.0,0.044,0.4,0.08,-0.25,-2.31,5.31,3.31,-0.05,0.02,-0.03,-0.12,0.19,0.0,181.62,149.0,0.0,0.0,0.0,0.0
1775764427371958162,61617,0.0,0.9,0.032,0.1,0.04,-0.18,-2.31,5.31,3.31,-0.02,0.01,-0.05,0.06,0.06,-0.06,185.73,176.0,0.0,0.0,0.0,0.0
1775764427480304955,61717,0.0,1.0,0.024,0.3,0.0,-0.18,-2.31,5.31,3.31,-0.01,0.02,-0.07,0.12,-0.12,0.06,252.11,197.0,0.0,0.0,0.0,0.0
1775764427572702629,61816,0.0,1.0,0.012,0.5,-0.1,-0.1,-2.31,5.31,3.31,-0.03,0.02,-0.02,-0.12,0.12,0.06,189.85,197.0,0.0,0.0,0.0,0.0
1775764427670963074,61916,0.0,1.0,0.016,0.2,-0.16,-0.23,-2.31,5.31,3.31,-0.05,0.02,-0.06,0.12,0.06,-0.06,181.45,182.0,0.0,0.0,0.0,0.0
1775764427773384117,62017,0.0,0.9,0.012,0.0,-0.06,-0.14,-2.31,5.31,3.31,-0.03,-0.0,-0.04,-0.0,-0.0,-0.12,190.02,169.0,0.0,0.0,0.0,0.0
1775764427871687931,62116,0.0,1.0,0.0,0.2,-0.06,-0.12,-2.31,5.31,3.31,-0.03,-0.0,-0.05,-0.0,-0.0,-0.06,192.94,169.0,0.0,0.0,0.0,0.0
1775764427974096881,62216,0.0,0.9,0.008,0.3,-0.02,-0.23,-2.31,5.31,3.31,-0.02,0.03,-0.05,0.12,-0.06,0.0,185.73,167.0,0.0,0.0,0.0,0.0
1775764428074307363,62316,0.0,0.9,0.004,0.3,-0.2,-0.08,-2.31,5.31,3.31,0.0,-0.0,-0.03,0.06,0.12,0.0,11968.13,145.0,0.0,0.0,0.0,0.0
1775764428170674425,62416,0.0,0.7,0.052,0.3,-0.06,0.0,-2.31,5.31,3.31,-0.01,0.02,-0.05,-0.06,-0.06,-0.06,218.83,145.0,0.0,0.0,0.0,0.0
1775764428273053063,62516,0.0,0.9,0.06,0.3,0.02,-0.12,-2.31,5.31,3.31,-0.04,0.01,-0.05,-0.0,-0.06,-0.06,181.62,159.0,0.0,0.0,0.0,0.0
1775764428371319753,62617,0.0,0.9,0.04,0.1,-0.06,-0.04,-2.31,5.31,3.31,-0.04,0.02,-0.05,0.12,-0.0,0.12,236.5,180.0,0.0,0.0,0.0,0.0
1775764428473702725,62716,0.0,0.8,0.036,0.3,-0.14,-0.08,-2.31,5.31,3.31,-0.04,0.03,-0.04,-0.06,-0.0,-0.06,180.42,180.0,0.0,0.0,0.0,0.0
1775764428572018709,62817,0.0,0.9,0.024,0.2,0.1,-0.04,-2.31,5.31,3.31,-0.04,0.01,-0.07,-0.0,-0.0,-0.06,203.06,158.0,0.0,0.0,0.0,0.0
1775764428674434346,62917,0.0,0.7,0.012,0.3,-0.02,-0.12,-2.31,5.31,3.31,-0.04,-0.0,-0.05,-0.0,0.06,-0.06,181.45,158.0,0.0,0.0,0.0,0.0
1775764428772735109,63016,0.0,0.9,0.008,0.2,-0.12,0.0,-2.31,5.31,3.31,-0.05,0.02,-0.06,-0.06,0.06,0.0,185.73,170.0,0.0,0.0,0.0,0.0
1775764428875139931,63116,0.0,0.9,0.012,0.4,-0.14,-0.04,-2.31,5.31,3.31,-0.03,0.01,-0.07,0.06,-0.06,0.0,193.97,171.0,0.0,0.0,0.0,0.0
1775764428973425158,63217,0.0,0.9,0.008,0.5,-0.06,-0.2,-2.31,5.31,3.31,-0.04,0.03,-0.05,0.12,-0.06,0.0,185.22,171.0,0.0,0.0,0.0,0.0
1775764429187581746,63316,0.0,1.0,0.012,1.4,0.04,-0.2,-2.31,5.31,3.31,-0.02,0.03,-0.06,-0.0,-0.06,0.0,236.5,198.0,0.0,0.0,0.0,0.0
1775764429200695054,63416,0.052,0.2,0.052,0.7,-0.1,-0.08,-2.31,5.31,3.31,-0.04,-0.0,-0.09,0.06,0.06,0.06,11966.58,184.0,0.0,0.0,0.0,0.0
1775764429272447032,63516,0.0,1.3,0.048,0.1,0.06,-0.18,-2.31,5.31,3.31,-0.04,0.02,-0.07,-0.06,0.06,0.06,228.1,184.0,0.0,0.0,0.0,0.0
1775764429374783730,63616,0.0,1.4,0.028,0.2,-0.1,-0.12,-2.31,5.31,3.31,-0.03,0.02,-0.06,0.06,0.12,0.0,228.1,201.0,0.0,0.0,0.0,0.0
1775764429473020703,63717,0.0,1.4,0.028,0.1,-0.06,0.0,-2.31,5.31,3.31,-0.01,-0.0,-0.07,0.12,-0.12,0.06,222.95,201.0,0.0,0.0,0.0,0.0
1775764429575490767,63818,0.0,1.3,0.016,0.5,-0.18,-0.23,-2.31,5.31,3.31,-0.01,0.02,-0.08,-0.0,-0.06,0.06,211.46,178.0,0.0,0.0,0.0,0.0
1775764429699586890,63918,0.0,1.2,0.02,0.3,-0.04,-0.2,-2.31,5.31,3.31,-0.03,0.03,-0.08,-0.06,-0.19,0.0,257.42,141.0,0.0,0.0,0.0,0.0
1775764429776179767,64018,0.0,1.4,0.0,0.5,0.14,-0.16,-2.31,5.31,3.31,-0.04,0.03,-0.06,-0.0,0.12,-0.06,249.02,141.0,0.0,0.0,0.0,0.0
1775764429874479219,64118,0.0,1.2,0.004,0.4,-0.06,-0.2,-2.31,5.31,3.31,-0.04,-0.01,-0.09,0.06,-0.06,0.06,223.98,187.0,0.0,0.0,0.0,0.0
1775764429976878026,64218,0.0,1.4,0.004,0.1,0.02,-0.1,-2.31,5.31,3.31,-0.02,-0.0,-0.06,-0.0,0.06,0.12,228.1,187.0,0.0,0.0,0.0,0.0
1775764430075156426,64318,0.0,1.3,0.0,0.2,-0.06,0.02,-2.31,5.31,3.31,-0.04,0.02,-0.05,-0.0,-0.06,0.06,219.69,187.0,0.0,0.0,0.0,0.0
1775764430173439717,64417,0.0,1.5,0.044,0.5,0.02,-0.14,-2.31,5.31,3.31,-0.03,0.01,-0.04,0.12,-0.0,0.0,235.47,182.0,0.0,0.0,0.0,0.0
1775764430275859767,64518,0.0,1.3,0.032,0.2,0.08,-0.02,-2.31,5.31,3.31,-0.03,0.04,-0.07,0.12,-0.0,0.12,11967.96,160.0,0.0,0.0,0.0,0.0
1775764430380047892,64618,0.0,1.4,0.036,0.2,-0.1,-0.06,-2.31,5.31,3.31,-0.05,-0.0,-0.05,0.06,0.06,0.12,11966.75,190.0,0.0,0.0,0.0,0.0
1775764430476544552,64718,0.0,1.4,0.012,0.4,-0.12,-0.12,-2.31,5.31,3.31,-0.03,0.01,-0.06,0.06,-0.06,-0.06,236.5,190.0,0.0,0.0,0.0,0.0
1775764430574834491,64818,0.0,1.3,0.016,0.4,0.04,-0.08,-2.31,5.31,3.31,-0.05,0.03,-0.07,-0.0,-0.0,-0.06,236.67,140.0,0.0,0.0,0.0,0.0
1775764430719591193,64918,0.0,1.3,0.02,0.4,-0.02,-0.14,-2.31,5.31,3.31,-0.04,0.04,-0.07,-0.06,-0.0,0.06,235.47,140.0,0.0,0.0,0.0,0.0
1775764430775539998,65017,0.0,1.2,0.008,0.0,-0.02,-0.06,-2.31,5.31,3.31,-0.01,0.01,-0.03,0.06,-0.0,-0.12,232.21,185.0,0.0,0.0,0.0,0.0
1775764430873801642,65117,0.0,1.3,0.008,0.3,0.04,-0.08,-2.31,5.31,3.31,-0.03,0.03,-0.07,-0.06,0.12,0.0,177.33,185.0,0.0,0.0,0.0,0.0
1775764430976217821,65218,0.0,1.3,0.012,0.2,0.0,-0.25,-2.31,5.31,3.31,-0.02,0.02,-0.05,-0.0,-0.12,0.06,211.46,145.0,0.0,0.0,0.0,0.0
1775764431076415590,65317,0.0,1.3,0.004,0.3,-0.06,-0.06,-2.31,5.31,3.31,-0.04,0.02,-0.08,-0.0,0.12,0.0,11970.19,174.0,0.0,0.0,0.0,0.0
1775764431176911814,65417,0.0,1.4,0.044,0.5,0.14,-0.1,-2.31,5.31,3.31,-0.04,0.02,-0.05,-0.0,-0.06,0.0,236.67,174.0,0.0,0.0,0.0,0.0
1775764431275197462,65518,0.0,1.3,0.032,0.4,-0.2,-0.02,-2.31,5.31,3.31,-0.04,0.04,-0.02,-0.0,-0.12,-0.12,228.27,181.0,0.0,0.0,0.0,0.0
1775764431377541369,65617,0.0,1.4,0.044,0.2,-0.02,-0.04,-2.31,5.31,3.31,-0.04,0.02,-0.04,-0.06,-0.19,0.0,235.3,179.0,0.0,0.0,0.0,0.0
1775764431475856331,65718,0.0,1.3,0.024,0.3,-0.04,-0.29,-2.31,5.31,3.31,-0.05,0.03,-0.03,-0.06,0.06,0.0,177.33,179.0,0.0,0.0,0.0,0.0
1775764431574137868,65818,0.0,1.3,0.032,0.3,0.1,-0.1,-2.31,5.31,3.31,-0.03,0.02,-0.03,-0.06,-0.06,-0.06,240.61,188.0,0.0,0.0,0.0,0.0
1775764431676577512,65917,0.0,1.3,0.012,0.3,-0.06,-0.16,-2.31,5.31,3.31,-0.02,0.01,-0.03,-0.06,-0.0,-0.06,181.62,188.0,0.0,0.0,0.0,0.0
1775764431774866400,66017,0.0,1.2,0.008,0.5,-0.04,-0.06,-2.31,5.31,3.31,-0.04,0.01,-0.05,-0.12,-0.06,0.0,194.14,172.0,0.0,0.0,0.0,0.0
1775764431875133375,66116,0.0,1.6,0.016,0.5,-0.12,-0.18,-2.31,5.31,3.31,-0.02,0.01,-0.07,-0.06,-0.0,-0.12,11970.87,174.0,0.0,0.0,0.0,0.0
1775764431975583804,66216,0.0,1.1,0.0,0.2,-0.02,-0.04,-2.31,5.31,3.31,-0.02,0.02,-0.05,0.06,-0.0,0.12,231.7,174.0,0.0,0.0,0.0,0.0
1775764432077959099,66317,0.0,1.2,0.008,0.2,0.04,-0.08,-2.31,5.31,3.31,-0.02,0.01,-0.07,-0.06,-0.06,0.0,231.18,161.0,0.0,0.0,0.0,0.0
1775764432176252141,66418,0.0,1.5,0.04,0.3,0.06,-0.12,-2.31,5.31,3.31,-0.03,0.01,-0.03,-0.19,0.06,-0.06,177.33,171.0,0.0,0.0,0.0,0.0
1775764432278626587,66518,0.0,1.3,0.04,0.3,0.06,-0.1,-2.31,5.31,3.31,-0.03,0.02,-0.03,-0.12,0.12,0.06,253.31,171.0,0.0,0.0,0.0,0.0
1775764432376895631,66619,0.0,1.4,0.032,0.4,0.02,-0.06,-2.31,5.31,3.31,-0.02,0.04,-0.04,-0.0,-0.06,0.0,244.73,178.0,0.0,0.0,0.0,0.0
1775764432475167600,66719,0.0,1.4,0.02,0.2,-0.1,-0.04,-2.31,5.31,3.31,-0.05,-0.0,-0.04,-0.06,-0.0,0.0,239.59,165.0,0.0,0.0,0.0,0.0
1775764432585544825,66819,0.0,1.3,0.02,0.2,-0.14,-0.06,-2.31,5.31,3.31,-0.06,0.01,-0.06,-0.0,-0.06,0.0,11963.67,183.0,0.0,0.0,0.0,0.0
1775764432677916317,66919,0.0,1.2,0.0,0.6,0.08,-0.14,-2.31,5.31,3.31,-0.03,-0.0,-0.03,-0.0,-0.06,-0.06,11965.55,183.0,0.0,0.0,0.0,0.0
1775764432791587108,67018,0.0,1.3,0.02,0.3,0.08,-0.16,-2.31,5.31,3.31,-0.04,0.01,-0.06,0.06,-0.06,-0.06,249.02,193.0,0.0,0.0,0.0,0.0
1775764432876612739,67118,0.0,1.1,0.004,0.2,-0.02,-0.21,-2.31,5.31,3.31,-0.03,0.04,-0.06,-0.0,0.06,-0.06,227.07,193.0,0.0,0.0,0.0,0.0
1775764432984963641,67218,0.0,1.2,0.016,0.1,0.02,-0.16,-2.31,5.31,3.31,-0.03,0.03,-0.05,-0.0,-0.19,-0.12,239.59,165.0,0.0,0.0,0.0,0.0
1775764433077298913,67318,0.0,1.3,0.004,0.2,-0.06,-0.1,-2.31,5.31,3.31,-0.03,0.01,-0.05,-0.12,-0.06,0.12,194.65,165.0,0.0,0.0,0.0,0.0
1775764433219588554,67419,0.0,1.3,0.052,0.3,-0.04,-0.14,-2.31,5.31,3.31,-0.04,0.02,-0.05,0.06,0.06,0.0,11966.07,196.0,0.0,0.0,0.0,0.0
1775764433278006873,67519,0.0,1.4,0.052,0.3,0.04,-0.06,-2.31,5.31,3.31,-0.02,-0.0,-0.03,0.12,-0.0,-0.06,11965.38,183.0,0.0,0.0,0.0,0.0
1775764433376360752,67619,0.0,0.2,0.0,1.2,0.04,-0.14,-2.31,5.31,3.31,-0.02,0.02,-0.03,-0.06,-0.0,0.0,11966.07,186.0,0.0,0.0,0.0,0.0
1775764433478639854,67719,0.0,0.7,0.028,0.3,0.1,-0.14,-2.31,5.31,3.31,-0.05,-0.0,-0.06,-0.12,0.06,-0.06,231.18,186.0,0.0,0.0,0.0,0.0
1775764433576976901,67819,0.0,1.0,0.02,0.3,-0.04,-0.18,-2.31,5.31,3.31,-0.02,0.02,-0.04,0.06,0.06,-0.06,194.65,160.0,0.0,0.0,0.0,0.0
1775764433703588998,67919,0.0,0.7,0.012,0.3,-0.12,-0.2,-2.31,5.31,3.31,-0.02,0.02,-0.05,0.06,-0.12,0.0,186.25,160.0,0.0,0.0,0.0,0.0
1775764433777670621,68019,0.0,0.8,0.012,0.2,0.1,-0.1,-2.31,5.31,3.31,-0.04,0.02,-0.05,0.06,-0.06,0.0,182.13,168.0,0.0,0.0,0.0,0.0
1775764433882032710,68119,0.0,0.9,0.004,0.4,-0.06,-0.1,-2.31,5.31,3.31,-0.02,0.03,-0.01,-0.06,0.12,0.0,11964.53,179.0,0.0,0.0,0.0,0.0
1775764433978348989,68219,0.0,1.2,0.016,0.5,0.04,-0.02,-2.31,5.31,3.31,-0.01,0.02,-0.02,-0.0,-0.0,-0.12,252.79,179.0,0.0,0.0,0.0,0.0
1775764434076622559,68319,0.0,0.7,0.004,0.6,0.0,-0.04,-2.31,5.31,3.31,-0.06,0.02,-0.03,-0.0,-0.06,-0.06,256.91,169.0,0.0,0.0,0.0,0.0
1775764434180955893,68419,0.0,0.9,0.056,0.2,0.06,-0.1,-2.31,5.31,3.31,-0.03,0.02,-0.05,0.12,-0.06,0.0,11964.87,182.0,0.0,0.0,0.0,0.0
1775764434277442062,68519,0.0,0.9,0.052,0.2,0.0,0.04,-2.31,5.31,3.31,-0.03,0.05,-0.04,-0.12,0.06,0.06,11965.38,161.0,0.0,0.0,0.0,0.0
1775764434379699652,68619,0.0,1.0,0.036,0.3,-0.12,-0.06,-2.31,5.31,3.31,-0.05,0.03,-0.01,0.06,-0.12,0.06,11966.75,161.0,0.0,0.0,0.0,0.0
1775764434479902662,68719,0.0,0.9,0.024,0.4,0.18,-0.16,-2.31,5.31,3.31,-0.04,0.01,-0.07,-0.06,-0.06,0.0,11965.73,179.0,0.0,0.0,0.0,0.0
1775764434580416270,68819,0.0,1.1,0.02,0.1,-0.12,-0.06,-2.31,5.31,3.31,-0.04,0.03,-0.06,-0.19,-0.0,-0.06,236.5,179.0,0.0,0.0,0.0,0.0
1775764434678714621,68919,0.0,1.1,0.004,0.1,0.08,-0.14,-2.31,5.31,3.31,-0.02,0.01,-0.01,-0.06,0.19,0.0,249.02,181.0,0.0,0.0,0.0,0.0
1775764434815579218,69019,0.0,1.1,0.016,0.3,-0.2,0.08,-2.31,5.31,3.31,-0.06,0.02,-0.04,-0.06,-0.06,0.0,11967.78,183.0,0.0,0.0,0.0,0.0
1775764434879429610,69120,0.0,0.7,0.0,0.2,0.04,-0.14,-2.31,5.31,3.31,-0.02,0.01,-0.04,-0.06,-0.0,0.06,227.58,183.0,0.0,0.0,0.0,0.0
1775764434977674926,69220,0.0,1.3,0.0,0.4,0.0,-0.16,-2.31,5.31,3.31,-0.01,0.03,-0.03,-0.0,0.06,-0.06,235.98,174.0,0.0,0.0,0.0,0.0
1775764435080091566,69319,0.0,1.5,0.004,0.3,0.02,-0.1,-2.31,5.31,3.31,-0.03,0.02,-0.03,-0.0,-0.0,0.0,194.14,174.0,0.0,0.0,0.0,0.0
1775764435188414862,69420,0.0,1.5,0.048,0.4,0.02,0.02,-2.31,5.31,3.31,-0.02,0.02,-0.05,-0.0,-0.12,0.0,226.38,175.0,0.0,0.0,0.0,0.0
1775764435280818751,69521,0.0,1.4,0.044,0.3,-0.12,-0.14,-2.31,5.31,3.31,-0.02,0.01,-0.03,-0.0,0.06,0.06,231.7,175.0,0.0,0.0,0.0,0.0
1775764435383154120,69621,0.0,1.4,0.04,0.5,0.06,-0.08,-2.31,5.31,3.31,-0.04,0.03,-0.04,0.12,-0.12,0.0,230.67,179.0,0.0,0.0,0.0,0.0
1775764435481431719,69722,0.0,1.3,0.028,0.2,-0.12,-0.18,-2.31,5.31,3.31,-0.04,0.03,-0.03,-0.06,0.12,0.0,260.51,183.0,0.0,0.0,0.0,0.0
1775764435591776724,69823,0.0,1.3,0.02,0.4,-0.06,-0.14,-2.31,5.31,3.31,-0.03,0.03,-0.05,-0.06,-0.12,0.0,11968.98,190.0,0.0,0.0,0.0,0.0
1775764435682151812,69923,0.0,1.1,0.016,0.5,0.04,-0.23,-2.31,5.31,3.31,-0.05,0.02,-0.04,-0.0,-0.12,0.0,227.58,190.0,0.0,0.0,0.0,0.0
1775764435784544326,70024,0.0,1.4,0.004,0.6,-0.02,-0.12,-2.31,5.31,3.31,-0.03,0.02,-0.05,-0.0,-0.06,0.06,231.7,182.0,0.0,0.0,0.0,0.0
1775764435882838221,70124,0.0,0.6,0.02,0.5,0.14,0.0,-2.31,5.31,3.31,-0.01,0.02,-0.03,-0.0,-0.0,0.0,239.93,182.0,0.0,0.0,0.0,0.0
1775764435993108266,70224,0.0,0.8,0.004,0.3,-0.08,-0.14,-2.31,5.31,3.31,-0.02,0.03,-0.05,0.19,-0.12,-0.06,11966.58,181.0,0.0,0.0,0.0,0.0
1775764436085446397,70324,0.0,1.4,0.0,0.5,0.02,-0.14,-2.31,5.31,3.31,-0.03,0.02,-0.03,-0.0,0.06,0.06,11965.55,180.0,0.0,0.0,0.0,0.0
1775764436193839303,70424,0.0,1.4,0.052,1.1,0.02,-0.14,-2.31,5.31,3.31,-0.02,0.02,-0.04,-0.0,-0.0,0.0,11966.93,171.0,0.0,0.0,0.0,0.0
1775764436284250493,70524,0.048,0.1,0.0,1.0,0.08,-0.16,-2.31,5.31,3.31,-0.05,0.03,-0.07,-0.0,-0.06,-0.12,11970.19,171.0,0.0,0.0,0.0,0.0
1775764436386564294,70624,0.0,1.0,0.04,0.4,0.06,-0.1,-2.31,5.31,3.31,-0.02,0.02,-0.05,-0.12,0.12,0.0,11969.67,171.0,0.0,0.0,0.0,0.0
1775764436484858510,70724,0.0,1.0,0.02,0.6,-0.1,-0.1,-2.31,5.31,3.31,-0.04,0.01,-0.02,0.06,-0.0,0.0,243.19,171.0,0.0,0.0,0.0,0.0
1775764436585107197,70824,0.0,0.9,0.032,0.2,0.0,-0.08,-2.31,5.31,3.31,-0.05,-0.0,-0.04,-0.12,-0.19,-0.06,11970.7,180.0,0.0,0.0,0.0,0.0
1775764436731614868,70924,0.0,1.1,0.012,0.5,-0.04,-0.12,-2.31,5.31,3.31,-0.03,0.01,-0.05,-0.06,-0.06,0.0,192.42,180.0,0.0,0.0,0.0,0.0
1775764436783893331,71024,0.0,1.3,0.0,0.1,0.02,-0.16,-2.31,5.31,3.31,-0.03,-0.0,-0.04,-0.06,-0.12,0.06,185.05,181.0,0.0,0.0,0.0,0.0
1775764436882202788,71123,0.0,1.3,0.004,0.2,-0.04,-0.16,-2.31,5.31,3.31,-0.03,0.01,-0.03,0.06,-0.12,0.0,235.81,177.0,0.0,0.0,0.0,0.0
1775764436984586011,71223,0.0,1.4,0.004,0.6,0.02,-0.23,-2.31,5.31,3.31,-0.04,0.02,-0.05,-0.0,-0.0,-0.12,247.3,177.0,0.0,0.0,0.0,0.0
1775764437084782457,71323,0.0,1.3,0.004,0.3,0.0,-0.16,-2.31,5.31,3.31,-0.03,-0.0,-0.03,-0.0,-0.06,-0.06,11966.58,174.0,0.0,0.0,0.0,0.0
1775764437185276121,71424,0.0,1.2,0.056,0.3,-0.06,-0.12,-2.31,5.31,3.31,-0.04,0.03,-0.05,0.06,-0.0,0.06,231.7,154.0,0.0,0.0,0.0,0.0
1775764437287684553,71525,0.0,1.3,0.052,0.3,-0.12,-0.21,-2.31,5.31,3.31,-0.03,0.02,-0.07,-0.0,0.12,-0.06,231.7,154.0,0.0,0.0,0.0,0.0
1775764437395583410,71625,0.0,1.1,0.044,0.6,-0.06,-0.16,-2.31,5.31,3.31,-0.04,0.02,-0.04,0.06,0.12,0.0,239.93,182.0,0.0,0.0,0.0,0.0
1775764437488299194,71725,0.0,1.3,0.02,0.3,-0.14,-0.16,-2.31,5.31,3.31,-0.04,0.01,-0.04,0.06,-0.12,-0.06,244.22,182.0,0.0,0.0,0.0,0.0
1775764437594566567,71825,0.0,1.3,0.012,0.5,0.08,-0.12,-2.31,5.31,3.31,-0.03,0.02,-0.04,0.06,0.19,0.06,11966.93,199.0,0.0,0.0,0.0,0.0
1775764437686857852,71925,0.0,1.3,0.004,0.2,-0.04,-0.12,-2.31,5.31,3.31,-0.02,0.01,-0.04,-0.12,0.06,-0.06,11967.61,163.0,0.0,0.0,0.0,0.0
1775764437795256946,72025,0.0,1.3,0.008,0.6,-0.1,-0.12,-2.31,5.31,3.31,-0.03,0.03,-0.06,-0.06,-0.0,-0.12,11968.3,210.0,0.0,0.0,0.0,0.0
1775764437887671022,72125,0.0,1.4,0.0,0.4,0.0,-0.18,-2.31,5.31,3.31,-0.04,0.01,-0.04,-0.06,-0.0,0.0,11966.75,210.0,0.0,0.0,0.0,0.0
1775764438007581940,72224,0.0,1.2,0.0,0.0,-0.02,-0.2,-2.31,5.31,3.31,-0.02,-0.0,-0.07,-0.12,-0.0,0.0,11967.1,195.0,0.0,0.0,0.0,0.0
1775764438088233217,72324,0.0,1.5,0.0,0.0,-0.04,-0.14,-2.31,5.31,3.31,-0.03,0.02,-0.07,-0.06,0.19,0.0,11967.61,174.0,0.0,0.0,0.0,0.0
1775764438186604687,72424,0.0,1.3,0.052,0.3,-0.04,-0.04,-2.31,5.31,3.31,-0.04,0.02,-0.05,-0.0,-0.0,0.0,11965.55,174.0,0.0,0.0,0.0,0.0
1775764438286995547,72524,0.0,1.2,0.044,0.5,0.0,-0.04,-2.31,5.31,3.31,-0.03,0.03,-0.03,0.06,-0.06,0.0,11966.07,154.0,0.0,0.0,0.0,0.0
1775764438385351388,72624,0.0,1.3,0.044,0.7,-0.1,-0.16,-2.31,5.31,3.31,-0.03,0.02,-0.05,0.06,0.12,0.0,11965.21,176.0,0.0,0.0,0.0,0.0
1775764438489684036,72724,0.0,1.2,0.032,0.4,-0.06,-0.1,-2.31,5.31,3.31,-0.03,0.04,-0.04,0.06,-0.06,-0.06,11966.07,176.0,0.0,0.0,0.0,0.0
1775764438587899123,72824,0.0,1.3,0.012,0.5,0.06,-0.1,-2.31,5.31,3.31,-0.05,0.02,-0.03,-0.0,-0.06,0.06,11964.87,194.0,0.0,0.0,0.0,0.0
1775764438686220391,72924,0.0,1.3,0.004,0.5,0.04,-0.16,-2.31,5.31,3.31,-0.03,0.02,-0.03,-0.0,-0.0,0.06,11966.07,187.0,0.0,0.0,0.0,0.0
1775764438786681341,73024,0.0,1.3,0.008,0.5,0.06,-0.02,-2.31,5.31,3.31,-0.02,0.03,-0.07,0.12,0.06,0.06,238.38,187.0,0.0,0.0,0.0,0.0
1775764438886929894,73123,0.0,1.5,0.004,0.3,-0.2,0.0,-2.31,5.31,3.31,-0.04,0.02,-0.03,0.12,-0.0,0.06,11967.1,173.0,0.0,0.0,0.0,0.0
1775764438985268772,73223,0.0,1.1,0.0,0.3,0.02,-0.02,-2.31,5.31,3.31,-0.05,0.01,-0.08,-0.25,0.12,0.06,11968.47,173.0,0.0,0.0,0.0,0.0
1775764439085627873,73323,0.0,1.4,0.004,0.2,-0.1,-0.08,-2.31,5.31,3.31,-0.02,0.02,-0.03,-0.0,-0.0,0.0,172.7,182.0,0.0,0.0,0.0,0.0
1775764439185859970,73422,0.0,1.3,0.056,0.2,-0.12,-0.06,-2.31,5.31,3.31,-0.03,-0.0,-0.05,-0.12,-0.06,0.06,11968.3,184.0,0.0,0.0,0.0,0.0
1775764439282246055,73522,0.0,1.3,0.04,0.1,0.06,-0.16,-2.31,5.31,3.31,-0.03,0.02,-0.05,0.06,-0.0,-0.06,11969.84,184.0,0.0,0.0,0.0,0.0
1775764439384607594,73622,0.0,1.4,0.032,0.2,-0.04,-0.14,-2.31,5.31,3.31,-0.05,0.01,-0.04,-0.06,-0.0,0.0,11966.93,168.0,0.0,0.0,0.0,0.0
1775764439482984831,73722,0.0,1.3,0.028,0.3,-0.16,-0.06,-2.31,5.31,3.31,-0.03,0.03,-0.06,-0.0,0.12,0.06,11967.1,169.0,0.0,0.0,0.0,0.0
1775764439593210089,73822,0.0,1.3,0.008,0.4,0.02,-0.08,-2.31,5.31,3.31,-0.02,0.03,-0.08,-0.06,-0.06,-0.06,11965.9,169.0,0.0,0.0,0.0,0.0
1775764439685515840,73922,0.0,1.3,0.008,0.5,-0.06,-0.14,-2.31,5.31,3.31,-0.03,0.03,-0.09,-0.12,-0.06,0.06,11964.7,173.0,0.0,0.0,0.0,0.0
1775764439783750342,74022,0.0,1.3,0.012,0.3,0.08,-0.04,-2.31,5.31,3.31,-0.03,0.01,-0.06,-0.12,0.06,0.06,11965.9,173.0,0.0,0.0,0.0,0.0
1775764439884334016,74121,0.0,1.3,0.012,0.3,0.06,-0.08,-2.31,5.31,3.31,-0.03,0.01,-0.07,-0.06,0.06,0.0,247.82,171.0,0.0,0.0,0.0,0.0
1775764439984508524,74221,0.0,1.0,0.008,0.2,-0.1,-0.25,-2.31,5.31,3.31,-0.02,0.03,-0.06,-0.0,-0.06,0.06,11966.07,157.0,0.0,0.0,0.0,0.0
1775764440087018108,74321,0.0,0.9,0.008,0.4,0.02,-0.04,-2.31,5.31,3.31,-0.04,0.02,-0.05,0.06,0.06,0.0,11965.9,157.0,0.0,0.0,0.0,0.0
1775764440185202733,74421,0.0,0.7,0.044,0.6,0.06,-0.08,-2.31,5.31,3.31,-0.04,-0.0,-0.05,-0.06,-0.0,-0.12,11965.73,163.0,0.0,0.0,0.0,0.0
1775764440491568790,74521,0.0,0.8,0.052,0.3,-0.06,-0.06,-2.31,5.31,3.31,-0.03,-0.0,-0.05,-0.06,-0.12,-0.12,11964.87,135.0,0.0,0.0,0.0,0.0
1775764440494598226,74621,0.0,1.1,0.036,-0.1,-0.04,-0.2,-2.31,5.31,3.31,-0.02,0.01,-0.04,-0.0,-0.06,-0.06,11965.04,135.0,0.0,0.0,0.0,0.0
1775764440498952417,74721,0.0,0.9,0.024,0.2,0.02,-0.12,-2.31,5.31,3.31,-0.03,-0.0,-0.06,0.06,-0.19,0.06,11965.73,172.0,0.0,0.0,0.0,0.0
1775764440592602470,74820,0.0,1.0,0.016,0.6,-0.08,-0.2,-2.31,5.31,3.31,-0.03,0.01,-0.06,-0.0,-0.12,0.06,11966.07,184.0,0.0,0.0,0.0,0.0
1775764440791587637,74920,0.0,1.0,0.0,0.5,-0.1,-0.1,-2.31,5.31,3.31,-0.03,0.04,-0.09,0.06,-0.0,0.0,11967.61,184.0,0.0,0.0,0.0,0.0
1775764440803852004,75020,0.0,0.9,0.004,0.5,-0.04,-0.16,-2.31,5.31,3.31,-0.06,0.01,-0.07,-0.06,0.12,0.06,234.27,184.0,0.0,0.0,0.0,0.0
1775764440883666613,75120,0.0,1.1,0.004,0.4,0.0,-0.04,-2.31,5.31,3.31,-0.04,0.02,-0.05,-0.0,-0.06,0.0,185.05,189.0,0.0,0.0,0.0,0.0
1775764440981958473,75220,0.0,0.9,0.008,0.4,0.06,-0.14,-2.31,5.31,3.31,-0.04,0.01,-0.06,0.06,-0.0,0.0,198.25,166.0,0.0,0.0,0.0,0.0
1775764441092238875,75320,0.0,0.9,0.012,0.3,-0.02,-0.04,-2.31,5.31,3.31,-0.01,0.01,-0.04,-0.0,0.06,0.0,11968.3,176.0,0.0,0.0,0.0,0.0
1775764441184642644,75420,0.0,1.1,0.048,0.5,0.04,-0.16,-2.31,5.31,3.31,-0.02,0.03,-0.06,-0.06,0.12,0.0,11968.64,176.0,0.0,0.0,0.0,0.0
1775764441285040731,75520,0.0,1.0,0.048,0.7,-0.06,-0.06,-2.31,5.31,3.31,-0.03,0.01,-0.06,-0.06,-0.06,-0.19,11966.93,157.0,0.0,0.0,0.0,0.0
1775764441383373469,75620,0.0,1.0,0.044,0.2,0.02,-0.08,-2.31,5.31,3.31,-0.04,0.02,-0.06,-0.06,-0.12,-0.06,11964.7,153.0,0.0,0.0,0.0,0.0
1775764441487637378,75720,0.0,1.0,0.02,0.2,-0.1,-0.14,-2.31,5.31,3.31,-0.02,0.03,-0.05,0.06,0.06,0.06,11965.9,153.0,0.0,0.0,0.0,0.0
1775764441585935599,75821,0.0,0.8,0.012,0.3,-0.04,-0.2,-2.31,5.31,3.31,-0.03,0.03,-0.02,0.12,0.12,0.0,11965.55,204.0,0.0,0.0,0.0,0.0
1775764441688317299,75921,0.0,0.9,0.02,0.2,-0.1,-0.14,-2.31,5.31,3.31,-0.04,0.03,-0.04,0.06,-0.0,0.12,11965.21,189.0,0.0,0.0,0.0,0.0
1775764441786714811,76021,0.0,1.0,0.008,0.0,-0.06,-0.14,-2.31,5.31,3.31,-0.03,0.01,-0.04,0.06,-0.12,0.06,11965.73,189.0,0.0,0.0,0.0,0.0
1775764441894949723,76122,0.0,0.9,0.016,0.2,0.04,-0.08,-2.31,5.31,3.31,-0.01,0.01,-0.06,-0.0,-0.0,0.0,11965.38,182.0,0.0,0.0,0.0,0.0
1775764441987355992,76222,0.0,1.0,0.004,0.3,-0.08,-0.16,-2.31,5.31,3.31,-0.02,0.02,-0.03,-0.06,0.12,-0.19,11967.27,182.0,0.0,0.0,0.0,0.0
1775764442089687228,76322,0.0,1.0,0.004,0.2,0.14,-0.1,-2.31,5.31,3.31,-0.02,0.03,-0.03,-0.06,-0.0,0.12,11966.58,194.0,0.0,0.0,0.0,0.0
1775764442187992754,76422,0.0,0.6,0.036,0.2,0.02,-0.16,-2.31,5.31,3.31,-0.04,0.02,-0.05,0.06,-0.06,-0.12,11965.73,184.0,0.0,0.0,0.0,0.0
1775764442284404127,76522,0.0,0.7,0.04,0.5,-0.1,-0.12,-2.31,5.31,3.31,-0.05,0.01,-0.04,0.06,-0.06,-0.06,11966.07,184.0,0.0,0.0,0.0,0.0
1775764442388593343,76622,0.0,1.0,0.036,0.3,-0.1,-0.18,-2.31,5.31,3.31,-0.04,0.02,-0.03,-0.0,0.06,0.06,11967.96,167.0,0.0,0.0,0.0,0.0
1775764442492950440,76722,0.0,1.1,0.024,0.6,-0.14,-0.14,-2.31,5.31,3.31,-0.01,0.03,-0.04,-0.12,-0.12,0.0,11966.58,185.0,0.0,0.0,0.0,0.0
1775764442587434458,76822,0.0,1.0,0.024,0.5,-0.06,-0.14,-2.31,5.31,3.31,-0.04,0.01,-0.05,-0.0,-0.06,0.0,11967.78,185.0,0.0,0.0,0.0,0.0
1775764442693676745,76921,0.0,0.7,0.0,1.4,0.0,-0.08,-2.31,5.31,3.31,-0.04,0.04,-0.05,-0.06,0.12,0.06,11968.3,177.0,0.0,0.0,0.0,0.0
1775764442785955699,77021,0.0,1.3,0.0,0.2,-0.16,-0.16,-2.31,5.31,3.31,-0.04,0.02,-0.05,-0.12,-0.0,0.0,11966.58,168.0,0.0,0.0,0.0,0.0
1775764442894409309,77121,0.0,1.4,0.008,0.0,-0.16,-0.1,-2.31,5.31,3.31,-0.02,0.02,-0.05,-0.0,-0.06,0.06,11967.78,168.0,0.0,0.0,0.0,0.0
1775764442986647136,77221,0.0,1.1,0.008,0.2,0.02,-0.02,-2.31,5.31,3.31,-0.05,0.02,-0.05,0.06,-0.12,-0.06,11965.9,184.0,0.0,0.0,0.0,0.0
1775764443303571458,77321,0.0,1.3,0.004,0.2,-0.02,-0.16,-2.31,5.31,3.31,-0.03,0.03,-0.04,0.19,-0.06,0.0,11968.64,184.0,0.0,0.0,0.0,0.0
1775764443307781835,77421,0.0,1.4,0.056,0.2,-0.08,-0.08,-2.31,5.31,3.31,-0.03,0.02,-0.03,-0.06,0.06,-0.06,11965.55,176.0,0.0,0.0,0.0,0.0
1775764443377995707,77521,0.0,1.2,0.044,-0.1,-0.08,-0.08,-2.31,5.31,3.31,-0.04,0.02,-0.04,-0.0,-0.0,0.06,11964.7,186.0,0.0,0.0,0.0,0.0
1775764443386104049,77621,0.0,1.5,0.024,0.2,0.04,-0.12,-2.31,5.31,3.31,-0.05,0.02,-0.04,-0.0,0.06,0.06,11966.93,186.0,0.0,0.0,0.0,0.0
1775764443484366364,77721,0.0,1.3,0.04,0.3,-0.08,-0.14,-2.31,5.31,3.31,-0.02,0.02,-0.06,0.25,-0.06,-0.06,186.25,157.0,0.0,0.0,0.0,0.0
1775764443582670085,77820,0.0,1.1,0.012,0.5,0.1,0.02,-2.31,5.31,3.31,-0.02,0.03,-0.04,0.06,-0.0,-0.19,190.36,157.0,0.0,0.0,0.0,0.0
1775764443685091891,77920,0.0,1.1,0.024,0.3,-0.02,-0.18,-2.31,5.31,3.31,-0.03,0.02,-0.03,-0.0,-0.0,0.06,236.5,183.0,0.0,0.0,0.0,0.0
1775764443783384687,78020,0.0,1.3,0.004,0.5,0.0,-0.12,-2.31,5.31,3.31,-0.01,0.03,-0.04,0.12,-0.06,0.0,249.02,183.0,0.0,0.0,0.0,0.0
1775764443883647130,78119,0.0,1.3,0.008,0.2,0.12,0.02,-2.31,5.31,3.31,-0.02,-0.0,-0.04,-0.0,-0.25,-0.06,11966.58,187.0,0.0,0.0,0.0,0.0
1775764443991988047,78219,0.012,0.0,0.02,0.5,-0.04,-0.04,-2.31,5.31,3.31,-0.03,0.02,-0.03,-0.0,-0.0,0.0,11963.67,172.0,0.0,0.0,0.0,0.0
1775764444084289605,78319,0.0,0.9,0.0,0.4,0.06,-0.02,-2.31,5.31,3.31,-0.04,0.02,-0.03,-0.0,-0.0,0.0,11963.5,166.0,0.0,0.0,0.0,0.0
1775764444192770558,78419,0.0,1.0,0.056,0.4,0.16,-0.08,-2.31,5.31,3.31,-0.03,0.03,-0.05,-0.06,-0.0,0.06,11964.53,166.0,0.0,0.0,0.0,0.0
1775764444283067650,78519,0.0,1.2,0.052,0.3,-0.1,-0.16,-2.31,5.31,3.31,-0.01,0.02,-0.06,-0.0,0.12,-0.12,11964.01,170.0,0.0,0.0,0.0,0.0
1775764444385407893,78618,0.0,1.4,0.0,0.6,-0.02,-0.14,-2.31,5.31,3.31,-0.04,0.02,-0.06,-0.0,0.06,0.06,11967.1,162.0,0.0,0.0,0.0,0.0
1775764444591587087,78718,0.0,0.7,0.036,0.3,0.0,-0.12,-2.31,5.31,3.31,-0.04,0.02,-0.03,-0.06,-0.0,-0.06,11967.27,162.0,0.0,0.0,0.0,0.0
1775764444603752029,78817,0.0,1.0,0.012,0.3,0.06,-0.02,-2.31,5.31,3.31,-0.04,0.03,-0.02,-0.0,-0.06,0.0,11963.5,163.0,0.0,0.0,0.0,0.0
1775764444680335456,78917,0.0,0.8,0.016,0.1,-0.02,-0.1,-2.31,5.31,3.31,-0.02,0.02,-0.07,0.06,-0.06,-0.12,181.45,163.0,0.0,0.0,0.0,0.0
1775764444790656896,79017,0.0,0.7,0.012,0.5,-0.08,-0.08,-2.31,5.31,3.31,-0.04,0.04,-0.03,-0.06,-0.12,0.0,11963.84,175.0,0.0,0.0,0.0,0.0
1775764444888910481,79117,0.0,0.9,0.008,0.4,0.0,-0.14,-2.31,5.31,3.31,-0.02,0.01,-0.05,-0.0,-0.0,-0.06,11963.33,165.0,0.0,0.0,0.0,0.0
1775764444991403588,79217,0.0,1.1,0.008,0.0,0.02,-0.2,-2.31,5.31,3.31,-0.02,-0.0,-0.05,-0.06,-0.0,0.06,11965.21,165.0,0.0,0.0,0.0,0.0
1775764445083618108,79318,0.0,0.9,0.012,0.2,0.12,-0.12,-2.31,5.31,3.31,-0.03,0.01,-0.04,0.06,-0.0,0.06,11963.84,191.0,0.0,0.0,0.0,0.0
1775764445192017385,79418,0.0,0.9,0.04,0.3,0.06,-0.1,-2.31,5.31,3.31,-0.03,0.02,-0.07,-0.06,-0.0,-0.06,11963.33,175.0,0.0,0.0,0.0,0.0
1775764445282429986,79518,0.0,1.0,0.048,0.2,0.04,-0.16,-2.31,5.31,3.31,-0.03,0.02,-0.03,-0.0,-0.06,0.0,11965.73,175.0,0.0,0.0,0.0,0.0
1775764445384745239,79618,0.0,0.7,0.032,0.5,0.02,-0.06,-2.31,5.31,3.31,-0.01,0.02,-0.04,-0.0,-0.19,0.06,11965.55,196.0,0.0,0.0,0.0,0.0
1775764445484904670,79718,0.0,1.0,0.024,0.3,0.08,-0.08,-2.31,5.31,3.31,-0.03,0.04,-0.03,-0.0,0.06,0.06,11962.81,160.0,0.0,0.0,0.0,0.0
1775764445623587387,79818,0.0,0.9,0.024,0.4,0.04,-0.1,-2.31,5.31,3.31,-0.04,0.02,-0.05,-0.12,-0.0,0.0,11964.01,160.0,0.0,0.0,0.0,0.0
1775764445691700906,79919,0.0,1.0,0.012,0.3,0.02,-0.1,-2.31,5.31,3.31,-0.04,0.02,-0.05,0.12,-0.0,-0.06,11962.47,167.0,0.0,0.0,0.0,0.0
1775764445794093285,80019,0.0,0.7,0.016,0.5,0.0,-0.1,-2.31,5.31,3.31,-0.04,0.01,-0.05,0.06,0.12,-0.06,11964.18,169.0,0.0,0.0,0.0,0.0
1775764445884471721,80119,0.0,1.0,0.0,0.3,-0.02,-0.08,-2.31,5.31,3.31,-0.03,0.02,-0.05,-0.06,0.06,0.0,193.62,169.0,0.0,0.0,0.0,0.0
1775764445984695481,80219,0.0,0.9,0.004,0.1,0.0,-0.16,-2.31,5.31,3.31,-0.04,0.02,-0.09,-0.06,-0.0,-0.06,11963.84,170.0,0.0,0.0,0.0,0.0
1775764446093079256,80319,0.0,1.0,0.012,0.1,0.04,-0.12,-2.31,5.31,3.31,-0.04,0.03,-0.05,-0.12,0.06,0.06,11964.01,170.0,0.0,0.0,0.0,0.0
1775764446185376353,80419,0.0,0.7,0.064,0.5,0.1,-0.02,-2.31,5.31,3.31,-0.03,0.03,-0.04,0.12,0.06,0.06,11965.04,161.0,0.0,0.0,0.0,0.0
1775764446285900221,80519,0.0,1.2,0.048,0.3,-0.04,0.06,-2.31,5.31,3.31,-0.05,0.02,-0.04,-0.06,-0.0,-0.06,181.45,161.0,0.0,0.0,0.0,0.0
1775764446384140124,80619,0.0,0.9,0.028,0.2,0.12,-0.08,-2.31,5.31,3.31,-0.03,0.03,-0.05,-0.0,0.12,-0.06,181.45,149.0,0.0,0.0,0.0,0.0
1775764446484281640,80718,0.0,1.0,0.024,0.2,0.1,-0.27,-2.31,5.31,3.31,-0.04,0.02,-0.06,0.06,0.12,-0.06,11967.1,180.0,0.0,0.0,0.0,0.0
1775764446586718544,80818,0.0,0.9,0.032,0.3,-0.04,-0.16,-2.31,5.31,3.31,-0.03,0.03,-0.06,-0.06,-0.06,0.0,11967.96,198.0,0.0,0.0,0.0,0.0
1775764446685065202,80918,0.012,0.0,0.0,1.4,0.04,-0.08,-2.31,5.31,3.31,-0.04,0.02,-0.04,-0.0,-0.12,0.06,11965.38,198.0,0.0,0.0,0.0,0.0
1775764446787422018,81018,0.008,0.0,0.012,0.6,0.06,-0.16,-2.31,5.31,3.31,-0.04,0.05,-0.06,-0.0,-0.0,0.06,11962.64,188.0,0.0,0.0,0.0,0.0
1775764446885733214,81118,0.0,1.2,0.008,0.6,-0.12,-0.04,-2.31,5.31,3.31,-0.03,0.03,-0.05,-0.06,-0.0,-0.06,11964.35,175.0,0.0,0.0,0.0,0.0
1775764446988193581,81218,0.0,1.5,0.0,0.6,0.08,-0.08,-2.31,5.31,3.31,-0.06,0.01,-0.04,-0.06,0.06,0.0,11968.13,175.0,0.0,0.0,0.0,0.0
1775764447084495244,81318,0.0,1.4,0.004,0.5,-0.08,-0.18,-2.31,5.31,3.31,-0.03,0.01,-0.06,-0.06,-0.0,0.06,185.73,175.0,0.0,0.0,0.0,0.0
1775764447186878290,81418,0.0,1.2,0.044,0.7,0.06,-0.21,-2.31,5.31,3.31,-0.04,0.03,-0.04,-0.06,-0.0,0.06,177.33,206.0,0.0,0.0,0.0,0.0
1775764447285153925,81519,0.0,1.2,0.04,0.3,-0.12,-0.1,-2.31,5.31,3.31,-0.02,0.01,-0.05,-0.12,-0.0,0.0,177.33,179.0,0.0,0.0,0.0,0.0
1775764447383448411,81618,0.0,1.4,0.028,0.7,-0.02,-0.16,-2.31,5.31,3.31,-0.06,0.02,-0.05,-0.12,-0.12,-0.06,177.33,179.0,0.0,0.0,0.0,0.0
1775764447485823569,81719,0.0,1.2,0.02,0.2,-0.1,-0.04,-2.31,5.31,3.31,-0.04,0.03,-0.06,0.06,-0.0,0.06,181.45,180.0,0.0,0.0,0.0,0.0
1775764447586071423,81819,0.0,1.3,0.024,0.3,-0.08,-0.12,-2.31,5.31,3.31,-0.02,0.02,-0.06,-0.12,0.25,0.06,11965.73,191.0,0.0,0.0,0.0,0.0
1775764447694505878,81920,0.0,1.3,0.008,1.1,0.04,-0.2,-2.31,5.31,3.31,-0.04,0.02,-0.05,-0.0,0.06,0.06,11966.75,179.0,0.0,0.0,0.0,0.0
1775764447786842951,82020,0.0,0.9,0.012,0.2,0.06,-0.18,-2.31,5.31,3.31,-0.05,0.01,-0.06,-0.12,0.19,0.0,11968.64,179.0,0.0,0.0,0.0,0.0
1775764447895182336,82119,0.0,0.9,0.012,0.3,-0.23,-0.1,-2.31,5.31,3.31,-0.06,0.03,-0.03,0.12,-0.0,0.0,11967.96,173.0,0.0,0.0,0.0,0.0
1775764447987444561,82220,0.0,0.9,0.0,0.3,0.02,-0.06,-2.31,5.31,3.31,-0.04,0.02,-0.05,-0.0,-0.06,-0.06,11965.38,184.0,0.0,0.0,0.0,0.0
1775764448087932790,82320,0.0,1.1,0.0,0.3,-0.02,-0.2,-2.31,5.31,3.31,-0.05,0.02,-0.05,-0.0,-0.06,-0.06,181.45,184.0,0.0,0.0,0.0,0.0
1775764448186228824,82420,0.0,1.0,0.056,0.3,0.02,-0.14,-2.31,5.31,3.31,-0.05,0.03,-0.05,-0.0,-0.0,0.0,185.73,184.0,0.0,0.0,0.0,0.0
1775764448288615380,82520,0.0,0.9,0.048,0.2,-0.12,-0.16,-2.31,5.31,3.31,-0.02,0.04,-0.04,-0.0,-0.0,0.06,11965.9,159.0,0.0,0.0,0.0,0.0
1775764448386864065,82620,0.0,0.9,0.04,0.2,-0.12,-0.18,-2.31,5.31,3.31,-0.05,0.03,-0.07,-0.0,-0.0,0.0,11964.01,171.0,0.0,0.0,0.0,0.0
1775764448487057580,82720,0.0,1.0,0.036,0.2,-0.08,-0.04,-2.31,5.31,3.31,-0.04,0.02,-0.04,-0.0,-0.12,-0.06,11963.67,195.0,0.0,0.0,0.0,0.0
1775764448589600350,82820,0.0,1.0,0.02,0.5,-0.14,-0.02,-2.31,5.31,3.31,-0.04,0.02,-0.06,-0.12,0.06,0.0,11966.24,195.0,0.0,0.0,0.0,0.0
1775764448687803908,82920,0.0,0.9,0.012,0.3,-0.08,0.04,-2.31,5.31,3.31,-0.04,0.01,-0.06,-0.19,0.12,-0.06,11967.61,159.0,0.0,0.0,0.0,0.0
1775764448790196519,83020,0.0,0.8,0.012,0.3,0.1,-0.08,-2.31,5.31,3.31,-0.03,0.03,-0.05,-0.12,-0.12,0.06,11965.9,153.0,0.0,0.0,0.0,0.0
1775764448888577549,83120,0.0,0.9,0.004,0.0,0.04,-0.16,-2.31,5.31,3.31,-0.04,0.04,-0.08,-0.12,0.06,0.0,11964.18,153.0,0.0,0.0,0.0,0.0
1775764448990885849,83219,0.0,1.2,0.012,0.1,-0.02,-0.08,-2.31,5.31,3.31,-0.03,0.02,-0.07,-0.0,-0.0,0.0,11963.67,159.0,0.0,0.0,0.0,0.0
1775764449089181197,83319,0.0,0.9,0.0,0.6,-0.06,-0.08,-2.31,5.31,3.31,-0.02,0.02,-0.07,-0.06,0.06,0.0,11962.3,180.0,0.0,0.0,0.0,0.0
1775764449187561424,83419,0.0,1.1,0.052,0.5,0.12,-0.12,-2.31,5.31,3.31,-0.05,0.02,-0.06,-0.0,0.25,0.0,11962.98,180.0,0.0,0.0,0.0,0.0
1775764449287958940,83519,0.0,0.9,0.048,0.2,-0.12,0.0,-2.31,5.31,3.31,-0.04,0.02,-0.07,0.19,-0.06,0.0,11962.81,168.0,0.0,0.0,0.0,0.0
1775764449386219322,83619,0.0,0.8,0.04,0.3,0.04,-0.16,-2.31,5.31,3.31,-0.05,0.03,-0.04,-0.0,-0.0,-0.06,11962.81,168.0,0.0,0.0,0.0,0.0
1775764449490522940,83719,0.0,0.7,0.024,0.1,0.0,-0.2,-2.31,5.31,3.31,-0.04,0.03,-0.08,0.06,-0.0,0.0,11964.01,189.0,0.0,0.0,0.0,0.0
1775764449594863205,83819,0.0,0.9,0.02,0.6,0.02,-0.06,-2.31,5.31,3.31,-0.03,0.04,-0.09,0.06,-0.0,0.06,11961.78,210.0,0.0,0.0,0.0,0.0
1775764449687235064,83919,0.0,0.7,0.016,0.4,0.16,-0.14,-2.31,5.31,3.31,-0.03,0.02,-0.06,0.06,-0.12,0.06,11962.47,210.0,0.0,0.0,0.0,0.0
1775764449795554669,84020,0.0,0.9,0.012,0.2,0.1,-0.12,-2.31,5.31,3.31,-0.02,0.03,-0.08,-0.0,0.12,0.12,11964.01,156.0,0.0,0.0,0.0,0.0
1775764449887882882,84120,0.0,1.2,0.004,0.2,0.0,-0.2,-2.31,5.31,3.31,-0.02,0.03,-0.07,0.06,-0.19,0.06,11962.98,179.0,0.0,0.0,0.0,0.0
1775764449996245392,84220,0.0,0.9,0.004,0.4,-0.02,-0.04,-2.31,5.31,3.31,-0.04,0.03,-0.1,-0.0,-0.12,-0.06,11964.7,179.0,0.0,0.0,0.0,0.0
1775764450088512496,84320,0.0,0.9,0.004,0.3,0.08,-0.2,-2.31,5.31,3.31,-0.05,0.01,-0.07,-0.12,-0.0,-0.06,11963.84,174.0,0.0,0.0,0.0,0.0
1775764450196917345,84420,0.0,1.3,0.056,0.3,0.06,-0.29,-2.31,5.31,3.31,-0.04,0.03,-0.05,-0.0,-0.06,-0.06,11964.18,173.0,0.0,0.0,0.0,0.0
1775764450287277616,84520,0.0,1.0,0.048,0.4,0.06,-0.2,-2.31,5.31,3.31,-0.04,-0.0,-0.06,0.06,-0.0,0.0,11964.18,173.0,0.0,0.0,0.0,0.0
1775764450395658336,84620,0.0,0.8,0.04,0.2,-0.1,-0.2,-2.31,5.31,3.31,-0.04,0.03,-0.04,0.12,-0.0,0.0,11963.67,157.0,0.0,0.0,0.0,0.0
1775764450489931874,84720,0.028,0.1,0.0,1.6,0.0,-0.1,-2.31,5.31,3.31,-0.05,0.03,-0.06,-0.06,-0.0,-0.06,11963.67,157.0,0.0,0.0,0.0,0.0
1775764450588210841,84820,0.0,1.3,0.012,0.5,-0.02,-0.2,-2.31,5.31,3.31,-0.04,0.02,-0.02,0.12,-0.12,0.0,11963.15,181.0,0.0,0.0,0.0,0.0
1775764450690569659,84920,0.0,1.4,0.008,0.3,0.0,0.06,-2.31,5.31,3.31,-0.03,0.02,-0.04,-0.0,-0.06,0.0,11963.15,164.0,0.0,0.0,0.0,0.0
1775764450788911345,85020,0.0,1.4,0.008,0.2,-0.06,-0.21,-2.31,5.31,3.31,-0.04,0.03,-0.06,-0.19,0.06,0.06,11963.33,164.0,0.0,0.0,0.0,0.0
1775764450891261700,85120,0.0,1.4,0.008,0.1,-0.08,-0.06,-2.31,5.31,3.31,-0.04,0.03,-0.05,-0.0,0.19,0.0,11965.04,194.0,0.0,0.0,0.0,0.0
1775764450989585535,85220,0.0,1.4,0.016,0.3,0.0,-0.18,-2.31,5.31,3.31,-0.02,0.02,-0.04,0.06,-0.06,-0.12,11964.01,173.0,0.0,0.0,0.0,0.0
1775764451097919995,85320,0.0,1.1,0.004,0.2,-0.04,0.0,-2.31,5.31,3.31,-0.03,0.01,-0.04,-0.06,-0.06,0.0,11966.24,173.0,0.0,0.0,0.0,0.0
1775764451190271459,85421,0.0,1.4,0.04,0.3,0.0,-0.16,-2.31,5.31,3.31,0.0,0.04,-0.05,-0.06,-0.0,-0.12,11964.01,171.0,0.0,0.0,0.0,0.0
1775764451290798658,85521,0.0,1.3,0.048,0.5,0.0,-0.06,-2.31,5.31,3.31,-0.03,0.03,-0.07,0.06,-0.06,-0.12,11964.01,189.0,0.0,0.0,0.0,0.0
1775764451388991105,85621,0.0,1.4,0.04,0.4,-0.1,-0.04,-2.31,5.31,3.31,-0.03,0.02,-0.04,-0.0,-0.12,-0.12,11962.3,189.0,0.0,0.0,0.0,0.0
1775764451499277088,85722,0.0,1.5,0.02,0.2,0.04,0.0,-2.31,5.31,3.31,-0.03,0.03,-0.03,0.06,-0.0,0.06,11964.01,183.0,0.0,0.0,0.0,0.0
1775764451591651273,85822,0.0,1.3,0.024,0.1,-0.1,-0.21,-2.31,5.31,3.31,-0.04,0.02,-0.03,-0.06,-0.12,-0.06,11964.35,175.0,0.0,0.0,0.0,0.0
1775764451700050519,85922,0.0,1.5,0.012,0.3,0.0,-0.23,-2.31,5.31,3.31,-0.06,0.01,-0.05,-0.0,0.12,0.06,11962.3,175.0,0.0,0.0,0.0,0.0
1775764451792330987,86023,0.0,1.3,0.02,0.6,-0.04,-0.14,-2.31,5.31,3.31,-0.03,0.02,-0.08,-0.12,-0.0,0.0,11962.47,181.0,0.0,0.0,0.0,0.0
1775764451900754454,86123,0.0,1.4,0.02,0.3,-0.06,-0.25,-2.31,5.31,3.31,-0.02,0.02,-0.04,-0.0,-0.0,-0.12,11962.47,181.0,0.0,0.0,0.0,0.0
1775764451998947493,86223,0.0,1.3,0.008,0.4,-0.12,-0.14,-2.31,5.31,3.31,-0.02,0.03,-0.04,0.06,-0.12,0.06,11962.64,144.0,0.0,0.0,0.0,0.0
1775764452101385905,86323,0.0,1.4,0.0,0.2,-0.16,0.02,-2.31,5.31,3.31,-0.03,0.02,-0.03,-0.12,-0.06,-0.06,11962.47,162.0,0.0,0.0,0.0,0.0
1775764452199697970,86423,0.0,1.1,0.056,0.1,-0.02,-0.04,-2.31,5.31,3.31,-0.02,0.02,-0.05,-0.12,0.06,0.12,11965.38,162.0,0.0,0.0,0.0,0.0
1775764452290144010,86523,0.0,1.6,0.052,0.3,0.06,-0.1,-2.31,5.31,3.31,-0.02,0.02,-0.05,-0.12,0.12,-0.12,11965.73,165.0,0.0,0.0,0.0,0.0
1775764452398419141,86623,0.0,1.4,0.032,0.2,-0.04,-0.16,-2.31,5.31,3.31,-0.03,-0.04,-0.13,-0.06,0.06,-0.06,11964.01,174.0,0.0,0.0,0.0,0.0
1775764452492733057,86723,0.0,1.5,0.02,0.4,0.02,-0.14,-2.31,5.31,3.31,-0.04,0.02,-0.03,-0.12,-0.0,-0.06,11964.53,174.0,0.0,0.0,0.0,0.0
