timestamp_ns,time_ms,voltage_left,current_left_ma,voltage_right,current_right_ma,motor_current_left,motor_current_right,euler_x,euler_y,euler_z,acc_lin_x,acc_lin_y,acc_lin_z,gyro_x,gyro_y,gyro_z,sonar_mm,tof_mm,rpm_left,rpm_right,rotations_left,rotations_right
1776452571515505884,201156,0.36,0.12,0.06,0.06,166.87,205.0,-0.0,-0.0,0.0,,-0.0,,,,,,,,,,
1776452572417035807,419153,0.0,,,,,,,,,,,,,,,,,,,,
1776452572421223271,419053,0.088,0.1,0.0,0.5,0.04,0.0,-19.69,-0.88,2.75,-0.05,0.13,-0.36,-0.12,-0.06,0.06,166.87,205.0,0.0,0.0,0.0,0.0
1776452574329647469,419153,,,,,,,,,,,,,,,,,,,,,
1776452574429699228,1903,0.0,0.7,0.056,0.3,0.2,0.0,-0.0,-0.06,3.0,0.0,-0.01,-0.34,-0.12,-0.0,0.06,166.87,200.0,0.0,0.0,0.0,0.0
1776452574522031964,2002,0.0,0.9,0.064,0.4,-0.02,0.0,-0.0,-0.06,3.0,0.01,-0.0,-0.3,-0.06,-0.06,-0.12,166.87,198.0,0.0,0.0,0.0,0.0
1776452574624437169,2103,0.0,0.9,0.0,1.1,0.06,-0.02,-0.0,-0.06,3.0,0.0,-0.02,-0.33,0.06,0.12,0.06,167.9,198.0,0.0,0.0,0.0,0.0
1776452574722732815,2204,0.0,0.8,0.0,1.5,0.2,0.08,-0.0,-0.06,3.0,0.0,-0.0,-0.34,0.06,-0.06,0.06,166.18,189.0,0.0,0.0,0.0,0.0
1776452574825128298,2304,0.088,0.2,0.0,1.1,0.08,-0.12,-0.0,-0.06,3.0,0.0,-0.0,-0.35,-0.06,-0.12,0.0,166.87,202.0,0.0,0.0,0.0,0.0
1776452574923431758,2405,0.092,0.1,0.0,1.2,0.12,-0.06,-0.0,-0.06,3.0,0.0,-0.0,-0.33,0.06,-0.12,0.0,166.87,202.0,0.0,0.0,0.0,0.0
1776452575025806649,2505,0.096,0.0,0.0,1.1,0.14,-0.18,-0.0,-0.06,3.0,-0.01,-0.0,-0.32,0.06,-0.0,0.12,166.36,212.0,0.0,0.0,0.0,0.0
1776452575124108034,2605,0.088,0.5,0.0,1.1,0.04,-0.1,-0.0,-0.06,3.0,0.0,-0.0,-0.29,-0.06,0.06,0.0,166.36,215.0,0.0,0.0,0.0,0.0
1776452575226488052,2705,0.0,1.0,0.0,1.3,0.06,-0.02,-0.0,-0.06,3.0,0.0,-0.0,-0.34,-0.0,0.06,-0.06,166.18,215.0,0.0,0.0,0.0,0.0
1776452575324792011,2805,0.1,0.3,0.0,1.6,-0.04,-0.04,-0.0,-0.06,3.0,-0.01,-0.0,-0.3,-0.06,-0.06,-0.06,166.18,196.0,0.0,0.0,0.0,0.0
1776452575427178919,2906,0.092,0.2,0.0,1.4,0.04,-0.12,-0.0,-0.06,3.0,0.0,0.01,-0.34,-0.0,0.06,0.06,166.18,182.0,0.0,0.0,0.0,0.0
1776452575525480100,3007,0.092,-0.2,0.068,0.3,0.1,-0.04,-0.0,-0.06,3.0,0.0,-0.0,-0.34,-0.0,0.06,-0.06,166.36,182.0,0.0,0.0,0.0,0.0
1776452575627911024,3107,0.0,1.3,0.0,1.2,0.04,-0.04,-0.0,-0.06,3.0,0.0,-0.01,-0.35,0.06,0.19,0.0,166.18,205.0,0.0,0.0,0.0,0.0
1776452575726154133,3208,0.084,0.2,0.0,1.1,0.04,0.0,-0.0,-0.06,3.0,0.01,-0.0,-0.31,-0.0,0.06,-0.06,170.3,205.0,0.0,0.0,0.0,0.0
1776452575828547985,3308,0.096,0.3,0.06,0.5,0.18,-0.1,-0.0,-0.06,3.0,0.01,-0.02,-0.32,0.12,0.06,-0.12,166.18,180.0,0.0,0.0,0.0,0.0
1776452575926884572,3408,0.0,0.3,0.0,1.5,0.04,-0.2,-0.0,-0.06,3.0,0.0,0.01,-0.33,-0.0,-0.06,0.12,166.36,201.0,0.0,0.0,0.0,0.0
1776452576029273387,3508,0.088,0.0,0.0,1.5,0.1,-0.16,-0.0,-0.06,3.0,-0.01,-0.0,-0.34,-0.06,-0.19,0.06,166.18,201.0,0.0,0.0,0.0,0.0
1776452576127562752,3608,0.092,1.4,0.072,0.2,0.1,-0.25,-0.0,-0.06,3.0,-0.01,-0.01,-0.32,-0.0,0.06,0.06,166.36,198.0,0.0,0.0,0.0,0.0
1776452576225821618,3707,0.0,0.5,0.0,1.6,0.08,-0.12,-0.0,-0.06,3.0,0.0,-0.01,-0.35,0.06,-0.06,-0.06,166.36,194.0,0.0,0.0,0.0,0.0
1776452576328225949,3808,0.092,0.3,0.0,1.5,0.0,-0.04,-0.0,-0.06,3.0,0.0,-0.0,-0.31,-0.0,0.06,0.06,166.18,194.0,0.0,0.0,0.0,0.0
1776452576430613485,3909,0.088,0.2,0.0,1.6,0.04,-0.1,-0.0,-0.06,3.0,-0.01,-0.0,-0.33,0.06,0.12,0.0,166.18,190.0,0.0,0.0,0.0,0.0
1776452576528946867,4008,0.1,0.1,0.0,1.3,0.0,0.0,-0.0,-0.06,3.0,0.0,-0.0,-0.33,0.06,-0.0,0.12,167.21,193.0,0.0,0.0,0.0,0.0
1776452576631349976,4109,0.0,0.2,0.0,0.4,0.08,-0.16,-0.0,-0.06,3.0,0.02,0.01,-0.32,-0.06,0.06,0.0,166.36,193.0,0.0,0.0,0.0,0.0
1776452576729706099,4210,0.0,0.0,0.0,1.5,0.04,-0.12,-0.0,-0.06,3.0,0.0,-0.02,-0.31,0.06,-0.12,0.0,166.18,217.0,0.0,0.0,0.0,0.0
1776452576832039617,4311,0.088,0.1,0.068,0.2,0.14,-0.1,-0.0,-0.06,3.0,0.01,-0.0,-0.32,0.06,-0.06,0.06,166.87,217.0,0.0,0.0,0.0,0.0
1776452576930321871,4411,0.0,1.3,0.0,1.2,0.08,-0.04,-0.0,-0.06,3.0,-0.02,0.01,-0.33,-0.0,-0.0,-0.06,166.36,212.0,0.0,0.0,0.0,0.0
1776452577028607829,4510,0.088,0.4,0.0,1.1,0.04,0.08,-0.0,-0.06,3.0,0.02,-0.01,-0.34,-0.0,-0.06,-0.06,166.18,203.0,0.0,0.0,0.0,0.0
1776452577130985623,4610,0.096,0.0,0.0,1.0,-0.04,-0.14,-0.0,-0.06,3.0,0.01,-0.0,-0.35,-0.06,0.06,0.0,166.18,203.0,0.0,0.0,0.0,0.0
1776452577229299523,4710,0.088,0.3,0.0,1.6,0.0,0.02,-0.0,-0.06,3.0,0.0,0.01,-0.31,-0.0,-0.06,-0.06,167.21,209.0,0.0,0.0,0.0,0.0
1776452577331675279,4810,0.0,1.2,0.0,1.2,0.12,-0.04,-0.0,-0.06,3.0,0.0,-0.0,-0.34,0.06,-0.06,-0.06,166.18,202.0,0.0,0.0,0.0,0.0
1776452577429950143,4911,0.0,0.9,0.0,0.6,-0.06,-0.06,-0.0,-0.06,3.0,0.0,0.01,-0.34,-0.06,-0.06,0.06,166.18,202.0,0.0,0.0,0.0,0.0
1776452577532394194,5011,0.092,0.7,0.0,1.6,-0.02,-0.12,-0.0,-0.06,3.0,0.0,-0.0,-0.33,0.06,-0.0,0.06,166.18,181.0,0.0,0.0,0.0,0.0
1776452577630703187,5110,0.096,0.4,0.076,0.4,0.2,-0.12,-0.0,-0.06,3.0,0.0,-0.0,-0.33,-0.06,-0.12,0.12,166.36,213.0,0.0,0.0,0.0,0.0
1776452577728981458,5210,0.0,1.4,0.06,0.3,0.08,0.02,-0.0,-0.06,3.0,0.01,0.01,-0.34,0.06,-0.0,0.12,166.18,213.0,0.0,0.0,0.0,0.0
1776452577831384658,5310,0.0,0.1,0.0,1.0,0.1,-0.06,-0.0,-0.06,3.0,0.0,-0.01,-0.34,-0.06,-0.06,-0.12,166.18,195.0,0.0,0.0,0.0,0.0
1776452577929698595,5409,0.092,0.1,0.0,0.2,0.02,0.14,-0.0,-0.06,3.0,0.0,-0.0,-0.32,-0.06,-0.0,-0.12,166.36,195.0,0.0,0.0,0.0,0.0
1776452578032095443,5509,0.096,0.3,0.0,1.4,0.0,-0.16,-0.0,-0.06,3.0,0.01,-0.0,-0.33,-0.0,-0.0,0.06,166.18,196.0,0.0,0.0,0.0,0.0
1776452578130420897,5609,0.088,0.2,0.0,1.4,0.14,-0.1,-0.0,-0.06,3.0,0.0,-0.0,-0.35,-0.0,-0.06,0.06,166.18,194.0,0.0,0.0,0.0,0.0
1776452578232795504,5709,0.088,0.0,0.0,1.3,-0.02,-0.06,-0.0,-0.06,3.0,0.01,-0.0,-0.33,0.06,-0.12,-0.06,167.38,194.0,0.0,0.0,0.0,0.0
1776452578331039312,5810,0.092,0.4,0.0,1.5,0.08,-0.1,-0.0,-0.06,3.0,0.0,-0.0,-0.35,0.12,0.12,0.0,166.36,179.0,0.0,0.0,0.0,0.0
1776452578433434233,5911,0.096,0.0,0.0,1.4,0.0,-0.12,-0.0,-0.06,3.0,0.0,-0.0,-0.35,-0.12,-0.0,0.0,166.18,209.0,0.0,0.0,0.0,0.0
1776452578531766890,6010,0.092,0.3,0.0,1.5,-0.08,-0.08,-0.0,-0.06,3.0,0.0,-0.0,-0.32,0.06,0.06,0.0,166.36,209.0,0.0,0.0,0.0,0.0
1776452578640142960,6110,0.088,0.1,0.0,0.3,0.02,-0.08,-0.0,-0.06,3.0,-0.01,-0.0,-0.34,-0.0,-0.0,0.06,166.18,209.0,0.0,0.0,0.0,0.0
1776452578732483950,6210,0.0,0.2,0.068,0.6,0.1,-0.04,-0.0,-0.06,3.0,0.0,-0.01,-0.3,-0.0,-0.12,0.06,166.18,200.0,0.0,0.0,0.0,0.0
1776452578830762239,6310,0.0,0.1,0.0,1.5,0.06,0.0,-0.0,-0.06,3.0,-0.01,0.02,-0.35,0.12,-0.19,0.0,166.36,200.0,0.0,0.0,0.0,0.0
1776452578933147086,6410,0.096,0.0,0.0,0.3,-0.12,0.12,-0.0,-0.06,3.0,0.0,0.01,-0.32,-0.0,-0.0,0.06,166.18,199.0,0.0,0.0,0.0,0.0
1776452579031427245,6510,0.0,0.2,0.0,1.0,0.08,0.06,-0.0,-0.06,3.0,0.01,-0.0,-0.35,-0.0,-0.19,0.06,166.18,199.0,0.0,0.0,0.0,0.0
1776452579129736549,6609,0.0,0.9,0.064,0.4,0.14,-0.1,-0.0,-0.06,3.0,0.0,-0.01,-0.33,0.06,0.06,0.0,166.18,201.0,0.0,0.0,0.0,0.0
1776452579232118432,6709,0.0,0.6,0.0,1.4,0.08,-0.08,-0.0,-0.06,3.0,0.0,-0.0,-0.34,-0.06,-0.12,0.06,166.18,209.0,0.0,0.0,0.0,0.0
1776452579330417718,6809,0.0,0.3,0.056,0.3,-0.02,0.1,-0.0,-0.06,3.0,0.01,-0.01,-0.34,-0.06,0.12,0.06,166.18,209.0,0.0,0.0,0.0,0.0
1776452579428708672,6908,0.0,0.4,0.0,1.7,0.0,0.0,-0.0,-0.06,3.0,0.0,-0.01,-0.34,0.12,-0.12,0.06,166.18,201.0,0.0,0.0,0.0,0.0
1776452579531115017,7008,0.088,0.3,0.0,1.7,0.12,-0.14,-0.0,-0.06,3.0,0.0,0.01,-0.34,0.06,0.12,0.0,166.36,179.0,0.0,0.0,0.0,0.0
1776452579629416377,7109,0.088,1.4,0.0,1.1,0.12,-0.06,-0.0,-0.06,3.0,0.0,-0.0,-0.33,-0.06,0.25,0.19,166.18,179.0,0.0,0.0,0.0,0.0
1776452579731812389,7208,0.084,0.3,0.0,1.1,0.08,-0.12,-0.0,-0.06,3.0,0.0,-0.0,-0.32,-0.06,0.12,-0.06,166.18,180.0,0.0,0.0,0.0,0.0
1776452579830110194,7308,0.0,0.3,0.0,1.6,0.06,-0.04,-0.0,-0.06,3.0,0.01,0.01,-0.35,-0.0,0.06,-0.06,170.3,210.0,0.0,0.0,0.0,0.0
1776452579928405444,7408,0.092,0.5,0.068,0.3,-0.04,0.0,-0.0,-0.06,3.0,0.0,0.01,-0.32,-0.0,-0.06,0.0,169.79,210.0,0.0,0.0,0.0,0.0
1776452580030808104,7507,0.0,1.3,0.072,0.4,-0.1,-0.04,-0.0,-0.06,3.0,0.0,-0.0,-0.34,0.06,-0.06,-0.06,166.18,211.0,0.0,0.0,0.0,0.0
1776452580129103889,7607,0.0,1.4,0.0,0.0,0.1,-0.02,-0.0,-0.06,3.0,0.01,-0.0,-0.33,-0.0,0.12,0.0,166.36,218.0,0.0,0.0,0.0,0.0
1776452580231494307,7707,0.0,0.3,0.0,1.3,-0.04,-0.04,-0.0,-0.06,3.0,0.0,-0.0,-0.32,-0.12,-0.06,-0.06,162.07,218.0,0.0,0.0,0.0,0.0
1776452580329763444,7806,0.096,0.1,0.0,1.5,0.04,0.08,-0.0,-0.06,3.0,0.0,-0.0,-0.32,0.06,-0.06,0.0,166.18,197.0,0.0,0.0,0.0,0.0
1776452580432170343,7907,0.0,1.4,0.072,0.2,0.1,-0.12,-0.0,-0.06,3.0,0.02,-0.0,-0.32,0.06,-0.12,0.06,166.36,197.0,0.0,0.0,0.0,0.0
1776452580530482258,8008,0.0,1.4,0.0,0.9,0.08,0.02,-0.0,-0.06,3.0,0.02,-0.0,-0.33,-0.12,-0.06,0.06,166.18,210.0,0.0,0.0,0.0,0.0
1776452580632865194,8108,0.092,-0.1,0.0,1.1,-0.02,-0.1,-0.0,-0.06,3.0,0.01,-0.0,-0.34,0.25,-0.06,0.0,166.36,198.0,0.0,0.0,0.0,0.0
1776452580731166053,8209,0.088,0.4,0.064,0.5,0.16,-0.14,-0.0,-0.06,3.0,0.02,-0.01,-0.33,0.19,0.12,-0.06,166.7,198.0,0.0,0.0,0.0,0.0
1776452580833581471,8309,0.0,1.0,0.068,0.5,-0.08,-0.08,-0.0,-0.06,3.0,0.01,-0.0,-0.34,0.06,-0.0,0.0,166.87,216.0,0.0,0.0,0.0,0.0
1776452580931864330,8409,0.0,0.9,0.064,0.4,0.1,-0.08,-0.0,-0.06,3.0,0.0,-0.01,-0.33,-0.12,-0.0,-0.06,166.87,200.0,0.0,0.0,0.0,0.0
1776452581034254267,8509,0.0,1.0,0.0,0.3,0.06,-0.23,-0.0,-0.06,3.0,0.01,0.01,-0.35,-0.06,-0.06,0.06,166.87,200.0,0.0,0.0,0.0,0.0
1776452581132563883,8609,0.0,1.3,0.072,0.2,-0.08,-0.12,-0.0,-0.06,3.0,0.0,-0.0,-0.32,0.12,0.06,0.06,166.87,197.0,0.0,0.0,0.0,0.0
1776452581234963114,8709,0.0,1.4,0.068,0.3,0.06,-0.18,-0.0,-0.06,3.0,0.0,-0.01,-0.34,0.06,0.06,0.06,165.67,198.0,0.0,0.0,0.0,0.0
1776452581333206640,8809,0.084,0.2,0.06,0.6,-0.1,-0.02,-0.0,-0.06,3.0,0.0,-0.0,-0.32,-0.0,-0.0,0.12,167.9,198.0,0.0,0.0,0.0,0.0
1776452581431532423,8909,0.0,0.9,0.0,1.5,-0.04,0.06,-0.0,-0.06,3.0,0.0,-0.0,-0.31,-0.06,0.06,0.0,166.87,181.0,0.0,0.0,0.0,0.0
1776452581533942913,9009,0.088,0.2,0.0,1.7,-0.06,-0.1,-0.0,-0.06,3.0,0.0,-0.0,-0.31,0.06,-0.19,-0.06,166.87,181.0,0.0,0.0,0.0,0.0
1776452581632255140,9109,0.092,0.1,0.0,1.6,-0.02,-0.06,-0.0,-0.06,3.0,0.0,-0.01,-0.34,-0.0,0.06,0.0,166.87,193.0,0.0,0.0,0.0,0.0
1776452581730483871,9208,0.092,0.3,0.0,1.6,0.02,-0.12,-0.0,-0.06,3.0,0.0,-0.0,-0.34,0.12,-0.06,-0.19,166.87,189.0,0.0,0.0,0.0,0.0
1776452581832932193,9309,0.092,0.1,0.0,1.7,-0.02,-0.04,-0.0,-0.06,3.0,0.0,-0.01,-0.33,-0.06,-0.0,0.0,166.87,189.0,0.0,0.0,0.0,0.0
1776452581935321035,9410,0.088,0.1,0.064,0.2,0.0,-0.1,-0.0,-0.06,3.0,-0.01,-0.0,-0.36,-0.0,0.06,-0.12,166.87,187.0,0.0,0.0,0.0,0.0
1776452582033617985,9509,0.0,1.3,0.056,0.3,-0.06,-0.06,-0.0,-0.06,3.0,0.01,-0.01,-0.34,0.06,0.12,0.12,166.87,205.0,0.0,0.0,0.0,0.0
1776452582136012363,9610,0.0,1.2,0.06,0.2,0.16,0.06,-0.0,-0.06,3.0,0.0,-0.0,-0.31,-0.12,0.25,0.06,166.87,205.0,0.0,0.0,0.0,0.0
1776452582234311349,9711,0.0,0.7,0.068,1.2,0.1,-0.18,-0.0,-0.06,3.0,0.0,-0.0,-0.33,-0.0,0.06,0.0,166.87,194.0,0.0,0.0,0.0,0.0
1776452582332531745,9810,0.096,0.1,0.0,1.5,0.18,-0.14,-0.0,-0.06,3.0,0.0,-0.01,-0.34,-0.06,-0.19,0.0,166.87,189.0,0.0,0.0,0.0,0.0
1776452582434982250,9910,0.0,1.4,0.064,0.5,0.1,-0.1,-0.0,-0.06,3.0,0.01,-0.0,-0.34,0.06,-0.12,-0.06,167.9,189.0,0.0,0.0,0.0,0.0
1776452582537403442,10011,0.0,1.2,0.072,0.0,0.06,-0.18,-0.0,-0.06,3.0,0.01,-0.0,-0.32,-0.0,-0.12,0.0,166.7,187.0,0.0,0.0,0.0,0.0
1776452582635695076,10112,0.0,1.3,0.0,0.9,0.0,-0.12,-0.0,-0.06,3.0,0.0,-0.01,-0.34,-0.0,-0.0,0.0,166.87,191.0,0.0,0.0,0.0,0.0
1776452582738090640,10212,0.088,0.2,0.0,1.1,0.1,-0.02,-0.0,-0.06,3.0,0.0,-0.0,-0.35,-0.06,-0.06,0.0,166.87,191.0,0.0,0.0,0.0,0.0
1776452582836385274,10312,0.084,0.2,0.0,1.1,-0.02,-0.12,-0.0,-0.06,3.0,0.01,-0.0,-0.34,0.12,-0.12,-0.06,166.87,201.0,0.0,0.0,0.0,0.0
1776452582944722024,10412,0.088,0.3,0.06,0.3,0.02,0.0,-0.0,-0.06,3.0,0.01,-0.0,-0.34,-0.06,0.19,0.06,166.87,201.0,0.0,0.0,0.0,0.0
1776452583037085877,10512,0.0,1.0,0.06,0.2,0.18,-0.02,-0.0,-0.06,3.0,0.02,-0.0,-0.34,-0.0,-0.0,0.0,166.87,202.0,0.0,0.0,0.0,0.0
1776452583135378510,10611,0.0,0.7,0.064,0.2,0.04,-0.12,-0.0,-0.06,3.0,0.0,0.01,-0.32,-0.12,-0.0,0.0,166.18,182.0,0.0,0.0,0.0,0.0
1776452583237740462,10711,0.0,0.2,0.0,1.5,-0.08,0.02,-0.0,-0.06,3.0,0.0,-0.0,-0.35,-0.0,-0.06,0.06,166.7,182.0,0.0,0.0,0.0,0.0
1776452583336058927,10811,0.092,-0.1,0.068,0.4,0.14,-0.08,-0.0,-0.06,3.0,0.02,-0.01,-0.34,-0.06,0.06,0.0,166.7,188.0,0.0,0.0,0.0,0.0
1776452583434372707,10911,0.0,0.4,0.06,0.2,0.14,-0.06,-0.0,-0.06,3.0,0.02,-0.0,-0.34,-0.12,0.06,0.0,166.87,193.0,0.0,0.0,0.0,0.0
1776452583536775287,11011,0.0,0.1,0.0,1.6,0.16,0.02,-0.0,-0.06,3.0,0.0,0.02,-0.33,-0.0,-0.0,0.06,166.87,193.0,0.0,0.0,0.0,0.0
1776452583635056272,11111,0.088,1.0,0.0,1.1,0.02,-0.02,-0.0,-0.06,3.0,0.0,-0.0,-0.33,0.06,-0.0,-0.06,166.87,209.0,0.0,0.0,0.0,0.0
1776452583737449482,11211,0.08,0.2,0.068,1.6,0.08,-0.08,-0.0,-0.06,3.0,0.0,-0.01,-0.33,-0.12,0.12,-0.12,166.87,209.0,0.0,0.0,0.0,0.0
1776452583835746911,11311,0.088,0.1,0.0,1.4,0.04,0.02,-0.0,-0.06,3.0,0.0,-0.0,-0.35,0.06,0.06,-0.12,166.87,193.0,0.0,0.0,0.0,0.0
1776452583938136898,11411,0.088,0.2,0.0,1.6,0.14,-0.02,-0.0,-0.06,3.0,0.01,-0.01,-0.34,-0.06,-0.0,-0.12,166.87,213.0,0.0,0.0,0.0,0.0
1776452584036435253,11511,0.088,0.1,0.0,1.5,0.14,-0.16,-0.0,-0.06,3.0,0.0,-0.01,-0.37,0.12,-0.0,0.0,166.87,213.0,0.0,0.0,0.0,0.0
1776452584138837961,11611,0.092,0.5,0.0,1.6,0.14,-0.18,-0.0,-0.06,3.0,0.0,-0.0,-0.35,-0.0,-0.12,0.0,166.87,197.0,0.0,0.0,0.0,0.0
1776452584237093704,11711,0.096,0.1,0.0,1.4,0.04,0.06,-0.0,-0.06,3.0,0.0,-0.0,-0.35,-0.06,-0.06,-0.06,166.87,205.0,0.0,0.0,0.0,0.0
1776452584335384854,11810,0.092,0.2,0.0,1.3,0.08,0.04,-0.0,-0.06,3.0,0.0,-0.03,-0.38,-0.06,-0.06,-0.12,166.87,205.0,0.0,0.0,0.0,0.0
1776452584437801599,11911,0.08,0.2,0.0,1.4,0.08,0.0,-0.0,-0.06,3.0,-0.01,-0.02,-0.35,-0.0,0.06,0.0,166.87,204.0,0.0,0.0,0.0,0.0
1776452584536138729,12011,0.084,0.1,0.0,1.6,0.1,0.0,-0.0,-0.06,3.0,0.0,-0.0,-0.34,0.06,0.06,0.0,166.87,202.0,0.0,0.0,0.0,0.0
1776452584638530548,12111,0.088,0.3,0.0,0.3,0.04,0.1,-0.0,-0.06,3.0,0.0,-0.0,-0.35,0.06,0.06,0.06,166.87,202.0,0.0,0.0,0.0,0.0
1776452584736805643,12211,0.0,1.2,0.072,0.3,-0.12,-0.04,-0.0,-0.06,3.0,0.02,-0.0,-0.34,-0.0,-0.12,0.12,170.99,185.0,0.0,0.0,0.0,0.0
1776452584835066090,12311,0.0,0.1,0.0,1.2,0.0,0.04,-0.0,-0.06,3.0,0.0,0.01,-0.34,0.06,0.12,-0.12,166.87,200.0,0.0,0.0,0.0,0.0
1776452584937495408,12411,0.088,0.2,0.0,1.5,0.1,0.0,-0.0,-0.06,3.0,0.01,-0.01,-0.35,0.06,-0.06,-0.12,166.7,200.0,0.0,0.0,0.0,0.0
1776452585035750911,12511,0.088,0.2,0.0,0.1,0.1,-0.14,-0.0,-0.06,3.0,0.0,-0.03,-0.34,-0.12,-0.0,0.06,166.87,196.0,0.0,0.0,0.0,0.0
1776452585138226042,12611,0.0,1.2,0.068,0.0,-0.04,-0.04,-0.0,-0.06,3.0,0.0,-0.0,-0.33,-0.06,-0.06,-0.06,166.7,196.0,0.0,0.0,0.0,0.0
1776452585236495728,12710,0.0,1.3,0.06,0.2,0.02,0.0,-0.0,-0.06,3.0,0.02,-0.0,-0.36,-0.0,0.12,0.12,166.87,195.0,0.0,0.0,0.0,0.0
1776452585338830159,12810,0.0,0.9,0.072,0.2,-0.04,-0.08,-0.0,-0.06,3.0,0.01,-0.01,-0.35,-0.0,0.06,-0.06,166.87,204.0,0.0,0.0,0.0,0.0
1776452585437138362,12910,0.0,1.3,0.072,0.4,0.04,-0.14,-0.0,-0.06,3.0,0.0,-0.0,-0.35,-0.0,-0.06,0.06,166.87,204.0,0.0,0.0,0.0,0.0
1776452585535467917,13009,0.0,1.4,0.068,0.0,0.1,-0.06,-0.0,-0.06,3.0,0.0,-0.0,-0.34,0.06,-0.06,0.06,166.87,209.0,0.0,0.0,0.0,0.0
1776452585637869438,13109,0.0,-0.1,0.0,1.2,0.08,-0.16,-0.0,-0.06,3.0,0.0,-0.0,-0.35,-0.06,-0.0,0.12,167.38,184.0,0.0,0.0,0.0,0.0
1776452585736167938,13209,0.0,0.8,0.0,0.3,0.23,-0.06,-0.0,-0.06,3.0,0.01,0.01,-0.33,-0.12,0.06,0.0,171.5,184.0,0.0,0.0,0.0,0.0
1776452585834459827,13308,0.092,0.6,0.0,1.2,0.08,-0.18,-0.0,-0.06,3.0,0.0,-0.0,-0.35,-0.06,0.12,0.0,171.5,194.0,0.0,0.0,0.0,0.0
1776452585936854293,13409,0.092,0.2,0.0,1.3,0.21,-0.04,-0.0,-0.06,3.0,0.01,-0.0,-0.31,-0.0,-0.0,0.06,171.5,194.0,0.0,0.0,0.0,0.0
1776452586035149238,13509,0.092,0.3,0.0,1.0,0.02,0.0,-0.0,-0.06,3.0,0.0,-0.0,-0.34,-0.12,0.06,-0.06,167.38,198.0,0.0,0.0,0.0,0.0
1776452586137591201,13609,0.092,0.2,0.06,0.3,0.2,0.02,-0.0,-0.06,3.0,0.02,-0.0,-0.38,-0.44,0.5,0.06,167.38,195.0,0.0,0.0,0.0,0.0
1776452586235817999,13709,0.0,0.6,0.064,0.2,0.16,0.04,-0.0,-0.06,3.0,-0.07,0.03,-0.34,-0.06,0.12,0.12,167.38,195.0,0.0,0.0,0.0,0.0
1776452586338186742,13809,0.0,0.9,0.056,0.3,0.23,-0.16,0.12,-0.12,2.94,0.27,0.04,-0.47,-2.44,1.63,4.69,172.19,209.0,0.0,0.0,0.0,0.0
1776452586436495203,13910,0.08,0.0,0.0,1.4,0.02,-0.14,0.5,-0.12,3.0,-0.38,-0.13,-0.33,0.19,-0.12,0.06,172.19,196.0,0.0,0.0,0.0,0.0
1776452586538930241,14010,0.0,1.5,0.052,0.2,0.08,-0.08,0.69,-0.12,2.81,0.58,0.31,-0.28,-2.06,0.81,7.38,168.58,196.0,0.0,0.0,0.0,0.0
1776452586637226906,14110,0.0,1.0,0.072,0.3,-0.14,-0.02,2.19,-0.12,2.69,0.15,-0.12,-0.47,-0.31,0.63,22.5,168.07,199.0,0.0,0.0,0.0,0.0
1776452586739619778,14211,0.0,0.2,0.0,1.5,0.2,-0.1,4.0,-0.06,2.75,-0.49,-0.13,-0.32,-0.12,-0.12,11.69,168.07,190.0,0.0,0.0,0.0,0.0
1776452586837915407,14311,0.08,0.2,0.0,0.2,0.21,-0.04,4.69,-0.06,2.81,-0.1,-0.05,-0.42,-0.31,0.63,2.31,168.07,190.0,0.0,0.0,0.0,0.0
1776452586940311723,14412,0.0,1.3,0.0,1.3,0.27,-0.04,5.31,-0.06,2.63,0.76,0.24,-0.38,-2.88,-0.0,17.12,172.19,202.0,0.0,0.0,0.0,0.0
1776452587042695151,14513,0.088,0.2,0.0,1.1,-0.08,0.06,7.5,-0.06,2.56,-0.15,-0.17,-0.29,0.25,1.0,25.69,167.38,211.0,0.0,0.0,0.0,0.0
1776452587141002500,14614,0.08,0.1,0.0,0.5,0.1,-0.04,9.88,-0.0,2.44,0.01,0.07,-0.34,-2.13,0.75,22.94,171.5,211.0,0.0,0.0,0.0,0.0
1776452587239315867,14713,0.0,0.7,0.0,1.6,0.06,0.02,12.13,-0.0,2.19,0.27,-0.02,-0.35,-1.69,0.81,24.25,166.87,185.0,0.0,0.0,0.0,0.0
1776452587341665498,14813,0.08,0.0,0.0,1.3,0.0,-0.02,14.5,0.06,2.0,0.04,-0.03,-0.27,-1.44,0.12,23.56,167.9,185.0,0.0,0.0,0.0,0.0
1776452587439946904,14914,0.088,1.1,0.072,0.4,0.1,0.12,16.62,0.12,1.75,0.21,-0.01,-0.33,-1.44,0.06,19.44,166.36,205.0,0.0,0.0,0.0,0.0
1776452587542387828,15013,0.0,1.4,0.0,1.3,0.1,0.0,18.31,0.19,1.63,0.08,-0.06,-0.32,-1.94,-0.5,16.19,167.21,188.0,0.0,0.0,0.0,0.0
1776452587640666252,15114,0.076,0.3,0.0,1.1,0.0,-0.04,19.75,0.25,1.44,0.06,-0.04,-0.34,-0.37,-1.25,12.94,166.18,188.0,0.0,0.0,0.0,0.0
1776452587743074604,15214,0.084,0.2,0.0,0.6,0.08,-0.08,20.81,0.44,1.37,-0.08,-0.0,-0.33,-0.81,-1.25,8.38,166.18,204.0,0.0,0.0,0.0,0.0
1776452587841363824,15314,0.0,0.6,0.0,1.4,0.08,-0.16,21.5,0.56,1.37,-0.09,0.01,-0.28,-1.94,-0.88,5.81,166.18,194.0,0.0,0.0,0.0,0.0
1776452587943770897,15414,0.088,0.1,0.0,1.5,0.0,-0.12,22.06,0.63,1.25,0.14,0.01,-0.34,-0.75,-1.06,5.38,166.18,194.0,0.0,0.0,0.0,0.0
1776452588042060914,15514,0.08,0.3,0.0,1.4,0.1,-0.04,22.56,0.75,1.31,-0.16,0.02,-0.34,1.37,-1.25,5.69,165.67,198.0,0.0,0.0,0.0,0.0
1776452588140347762,15613,0.084,1.3,0.0,0.3,-0.06,-0.02,23.19,0.88,1.37,-0.07,0.06,-0.35,-0.5,-0.75,7.06,166.18,193.0,0.0,0.0,0.0,0.0
1776452588242762038,15714,0.0,0.0,0.068,0.2,0.06,-0.18,23.87,0.94,1.5,-0.2,-0.01,-0.31,1.63,-0.94,6.38,166.18,193.0,0.0,0.0,0.0,0.0
1776452588341008887,15814,0.0,0.1,0.0,1.3,0.02,-0.08,24.37,1.0,1.63,-0.08,-0.01,-0.29,-0.37,-0.25,4.38,166.18,199.0,0.0,0.0,0.0,0.0
1776452588443449625,15913,0.0,1.1,0.052,0.5,-0.04,-0.06,24.75,1.0,1.69,0.0,0.01,-0.42,2.5,-0.44,3.56,170.3,199.0,0.0,0.0,0.0,0.0
1776452588541752029,16014,0.0,0.7,0.0,1.5,0.02,-0.04,25.06,1.0,2.0,-0.2,-0.06,-0.28,1.25,-0.31,3.13,170.3,179.0,0.0,0.0,0.0,0.0
1776452588644142453,16114,0.0,1.2,0.0,1.2,0.02,0.0,25.31,1.0,2.06,0.11,0.02,-0.32,-0.25,-0.37,2.19,170.47,217.0,0.0,0.0,0.0,0.0
1776452588742433264,16215,0.08,0.4,0.0,1.2,0.08,-0.04,25.5,1.06,2.31,-0.25,-0.0,-0.34,4.81,-0.63,1.69,170.3,217.0,0.0,0.0,0.0,0.0
1776452588844823986,16315,0.084,0.1,0.0,0.3,0.0,-0.2,25.62,1.12,2.81,-0.26,-0.0,-0.33,0.56,-0.19,1.06,166.18,194.0,0.0,0.0,0.0,0.0
1776452588943145907,16415,0.0,0.9,0.064,0.3,0.0,0.0,25.69,1.12,2.94,-0.08,0.03,-0.34,0.94,0.31,0.37,169.79,201.0,0.0,0.0,0.0,0.0
1776452589045523609,16515,0.0,0.7,0.06,0.3,0.04,-0.14,25.69,1.12,2.88,0.2,-0.0,-0.4,0.06,0.12,0.06,170.3,201.0,0.0,0.0,0.0,0.0
1776452589143808715,16615,0.0,0.6,0.06,0.3,0.04,-0.1,25.69,1.12,3.19,-0.13,-0.01,-0.28,2.38,0.56,-0.44,165.67,204.0,0.0,0.0,0.0,0.0
1776452589242119395,16714,0.0,0.1,0.06,0.3,0.14,0.04,25.69,1.12,3.25,0.09,-0.02,-0.31,-0.5,-0.31,-0.25,169.27,200.0,0.0,0.0,0.0,0.0
1776452589344480727,16815,0.0,1.5,0.052,0.5,0.06,-0.21,25.69,1.12,3.31,0.05,0.02,-0.34,1.63,0.44,-0.06,164.98,200.0,0.0,0.0,0.0,0.0
1776452589442755277,16915,0.0,0.2,0.0,1.1,0.14,-0.02,25.75,1.12,3.44,-0.09,0.02,-0.38,1.81,0.44,0.81,164.98,189.0,0.0,0.0,0.0,0.0
1776452589545211366,17015,0.084,0.2,0.0,1.1,0.04,-0.08,25.81,1.12,3.63,-0.11,-0.04,-0.42,-0.0,-0.19,0.81,169.1,197.0,0.0,0.0,0.0,0.0
1776452589643494250,17115,0.08,0.2,0.0,1.1,0.02,0.06,25.87,1.12,3.81,-0.15,-0.02,-0.26,-0.81,-0.06,0.56,169.1,197.0,0.0,0.0,0.0,0.0
1776452589745891636,17215,0.084,0.3,0.0,0.1,0.2,-0.08,25.94,1.12,3.69,0.11,0.02,-0.35,0.06,-0.63,0.31,169.1,194.0,0.0,0.0,0.0,0.0
1776452589844220778,17314,0.0,0.3,0.0,1.5,0.0,0.04,25.94,1.12,3.69,-0.15,0.02,-0.29,0.63,0.69,0.06,169.27,194.0,0.0,0.0,0.0,0.0
1776452589942478014,17414,0.084,0.3,0.072,0.1,-0.1,-0.1,25.94,1.12,3.75,-0.03,-0.02,-0.34,-0.75,0.37,0.12,169.1,191.0,0.0,0.0,0.0,0.0
1776452590044885196,17514,0.0,1.5,0.076,0.3,0.16,0.06,25.94,1.12,3.69,-0.06,0.02,-0.29,-0.25,0.5,0.81,169.1,181.0,0.0,0.0,0.0,0.0
1776452590143174949,17613,0.0,1.1,0.0,1.2,0.06,0.02,26.0,1.06,3.56,0.34,-0.05,-0.31,-2.75,-0.12,1.37,169.1,181.0,0.0,0.0,0.0,0.0
1776452590241432073,17713,0.08,0.3,0.0,1.2,0.06,-0.14,26.12,1.06,3.44,-0.21,0.02,-0.33,1.88,1.06,0.81,164.98,223.0,0.0,0.0,0.0,0.0
1776452590343835161,17813,0.076,0.2,0.072,0.5,0.08,0.02,26.19,0.94,3.44,0.06,-0.1,-0.31,-3.25,0.12,1.63,169.1,213.0,0.0,0.0,0.0,0.0
1776452590442126784,17912,0.0,0.7,0.0,1.4,0.08,0.06,26.44,1.0,3.25,0.05,-0.02,-0.38,0.12,0.06,2.06,169.1,213.0,0.0,0.0,0.0,0.0
1776452590540429592,18012,0.096,0.2,0.0,1.4,0.18,-0.1,26.56,0.94,3.31,-0.38,-0.04,-0.25,-0.44,1.0,1.06,164.98,211.0,0.0,0.0,0.0,0.0
1776452590642844051,18112,0.096,0.0,0.076,0.2,0.1,-0.1,26.69,0.88,3.25,0.12,-0.02,-0.35,-2.31,-0.31,1.63,164.98,211.0,0.0,0.0,0.0,0.0
1776452590741147988,18211,0.0,1.4,0.064,0.2,-0.02,-0.04,26.87,0.88,3.19,-0.23,-0.0,-0.32,-0.12,0.81,1.44,169.1,191.0,0.0,0.0,0.0,0.0
1776452590839429815,18311,0.0,1.2,0.064,0.3,0.12,-0.1,27.0,0.88,3.25,-0.09,-0.02,-0.34,-1.25,0.37,1.94,169.61,190.0,0.0,0.0,0.0,0.0
1776452590941879309,18411,0.0,0.3,0.0,1.1,0.08,-0.04,27.19,0.88,3.13,0.1,-0.06,-0.34,-1.25,-0.0,2.0,165.67,190.0,0.0,0.0,0.0,0.0
1776452591040144581,18510,0.0,0.7,0.068,0.2,0.04,0.0,27.37,0.88,3.06,0.02,-0.05,-0.32,-1.44,0.44,1.5,165.67,202.0,0.0,0.0,0.0,0.0
1776452591142533354,18610,0.0,0.9,0.064,0.3,0.02,-0.1,27.5,0.88,3.0,-0.09,-0.0,-0.32,-0.06,0.5,1.56,169.79,198.0,0.0,0.0,0.0,0.0
1776452591240812476,18711,0.0,0.8,0.064,0.2,0.06,-0.08,27.62,0.81,2.94,0.0,-0.13,-0.32,-1.06,0.31,1.31,169.61,198.0,0.0,0.0,0.0,0.0
1776452591339097709,18810,0.0,0.1,0.0,0.3,0.02,0.06,27.75,0.81,2.81,0.28,-0.06,-0.31,-1.94,-0.31,0.88,169.79,201.0,0.0,0.0,0.0,0.0
1776452591441513018,18910,0.0,1.2,0.064,0.5,0.02,-0.16,27.81,0.81,2.5,0.26,-0.01,-0.33,-0.69,0.31,0.75,165.67,194.0,0.0,0.0,0.0,0.0
1776452591539809621,19011,0.0,1.3,0.068,0.2,0.04,-0.12,27.87,0.81,2.38,0.01,-0.03,-0.31,-0.31,0.94,0.5,165.5,194.0,0.0,0.0,0.0,0.0
1776452591642213059,19110,0.0,1.3,0.072,0.3,0.02,-0.12,27.87,0.69,2.31,-0.06,-0.04,-0.35,-0.0,1.06,0.44,165.67,195.0,0.0,0.0,0.0,0.0
1776452591740503792,19210,0.0,1.5,0.06,0.5,0.08,-0.08,27.94,0.63,2.19,0.26,-0.1,-0.34,-2.44,0.06,0.94,166.18,185.0,0.0,0.0,0.0,0.0
1776452591842882936,19311,0.0,0.4,0.0,1.0,0.1,-0.1,28.06,0.63,2.06,0.11,-0.03,-0.33,-1.19,0.88,0.94,162.07,185.0,0.0,0.0,0.0,0.0
1776452591941195242,19410,0.0,0.5,0.0,1.6,-0.02,-0.18,28.12,0.56,2.0,-0.08,0.01,-0.37,0.19,0.88,1.25,166.18,192.0,0.0,0.0,0.0,0.0
1776452592043597810,19511,0.088,0.2,0.0,1.6,-0.1,-0.12,28.25,0.44,2.0,-0.08,-0.11,-0.35,-1.88,0.56,1.44,166.18,192.0,0.0,0.0,0.0,0.0
1776452592141898634,19611,0.092,0.2,0.0,0.3,0.18,0.02,28.37,0.44,1.94,-0.08,-0.06,-0.36,-0.56,0.31,1.25,166.18,212.0,0.0,0.0,0.0,0.0
1776452592240174588,19710,0.0,0.5,0.0,1.1,0.06,0.12,28.5,0.37,1.88,0.03,-0.06,-0.34,-1.06,-0.31,0.88,166.18,205.0,0.0,0.0,0.0,0.0
1776452592342540582,19811,0.084,0.0,0.0,1.1,0.21,-0.2,28.5,0.37,1.88,-0.12,-0.05,-0.36,-0.19,0.31,0.12,166.18,205.0,0.0,0.0,0.0,0.0
1776452592440841221,19911,0.08,0.3,0.0,1.0,0.18,-0.27,28.5,0.31,2.0,-0.21,-0.1,-0.28,-0.94,1.19,-0.12,166.18,208.0,0.0,0.0,0.0,0.0
1776452592543271547,20012,0.0,1.1,0.056,0.3,0.12,-0.06,28.56,0.31,1.88,0.32,-0.0,-0.34,-0.5,-0.88,0.75,166.18,189.0,0.0,0.0,0.0,0.0
1776452592645670262,20112,0.0,0.4,0.0,0.3,0.12,-0.2,28.56,0.25,1.81,-0.06,-0.0,-0.33,0.37,1.56,0.88,166.18,189.0,0.0,0.0,0.0,0.0
1776452592744001548,20213,0.0,0.3,0.0,1.1,0.02,-0.02,28.75,0.19,1.69,0.29,-0.11,-0.34,-1.69,0.06,2.13,166.18,185.0,0.0,0.0,0.0,0.0
1776452592846352116,20313,0.084,0.0,0.0,1.1,0.02,-0.1,28.94,0.12,1.63,0.03,-0.0,-0.34,-0.12,0.94,1.75,161.04,194.0,0.0,0.0,0.0,0.0
1776452592944664921,20413,0.088,0.4,0.0,1.1,0.14,-0.04,29.06,0.06,1.69,-0.16,-0.01,-0.32,1.06,1.06,0.88,166.18,194.0,0.0,0.0,0.0,0.0
1776452593042919431,20513,0.076,0.3,0.0,1.4,0.12,-0.1,29.06,-0.0,1.69,0.04,-0.14,-0.34,-1.25,0.19,0.56,166.18,208.0,0.0,0.0,0.0,0.0
1776452593145357126,20613,0.08,0.1,0.0,0.6,0.16,0.06,29.06,-0.0,1.63,0.11,-0.01,-0.34,-0.5,0.25,-0.31,166.18,208.0,0.0,0.0,0.0,0.0
1776452593243657670,20713,0.0,0.9,0.068,0.3,0.14,-0.14,29.06,-0.0,1.56,0.13,-0.02,-0.31,0.12,0.63,-0.19,166.18,193.0,0.0,0.0,0.0,0.0
1776452593346010571,20813,0.0,0.9,0.0,1.4,0.04,-0.06,29.06,-0.12,1.56,0.04,-0.03,-0.35,0.94,0.69,0.06,166.18,193.0,0.0,0.0,0.0,0.0
1776452593444490999,20913,0.0,0.6,0.068,0.4,0.04,-0.12,29.06,-0.19,1.75,-0.17,-0.09,-0.31,0.44,0.75,-0.25,166.18,193.0,0.0,0.0,0.0,0.0
1776452593546727051,21014,0.0,0.1,0.0,1.5,0.1,-0.1,29.06,-0.25,1.69,0.11,-0.06,-0.34,-0.88,-0.31,-0.31,166.18,192.0,0.0,0.0,0.0,0.0
1776452593645040855,21113,0.092,0.1,0.0,1.5,0.1,-0.06,29.06,-0.25,1.69,0.01,-0.02,-0.35,0.5,0.37,-0.5,166.18,185.0,0.0,0.0,0.0,0.0
1776452593747432754,21214,0.096,0.1,0.0,1.5,0.08,0.04,29.06,-0.25,1.69,0.07,-0.09,-0.3,-0.56,0.12,-0.37,166.18,185.0,0.0,0.0,0.0,0.0
1776452593845716318,21314,0.088,0.6,0.064,0.5,0.04,-0.04,29.06,-0.25,1.44,0.23,-0.0,-0.36,0.12,-0.25,-0.81,166.18,193.0,0.0,0.0,0.0,0.0
1776452593948117365,21414,0.0,1.2,0.06,0.5,0.12,-0.12,28.94,-0.31,1.44,0.06,-0.03,-0.3,-0.12,0.12,-1.81,166.18,181.0,0.0,0.0,0.0,0.0
1776452594046416298,21514,0.0,1.2,0.0,0.9,0.1,-0.06,28.75,-0.31,1.5,-0.18,-0.04,-0.28,1.56,0.44,-1.06,167.21,181.0,0.0,0.0,0.0,0.0
1776452594148802030,21615,0.088,0.2,0.0,1.3,0.1,-0.12,28.69,-0.31,1.56,-0.02,-0.06,-0.33,-0.31,0.31,-0.75,166.18,203.0,0.0,0.0,0.0,0.0
1776452594247107795,21714,0.08,0.2,0.0,1.2,0.1,-0.02,28.62,-0.31,1.44,0.18,-0.04,-0.33,-0.75,-0.06,-0.37,167.21,203.0,0.0,0.0,0.0,0.0
1776452594349497323,21815,0.08,0.3,0.0,1.1,-0.04,-0.04,28.62,-0.31,1.44,0.03,-0.07,-0.36,0.31,0.19,-0.06,169.79,202.0,0.0,0.0,0.0,0.0
1776452594447767756,21915,0.084,0.2,0.0,1.3,-0.04,-0.14,28.62,-0.37,1.37,0.09,-0.07,-0.32,-1.5,-0.25,0.0,169.79,195.0,0.0,0.0,0.0,0.0
1776452594550187580,22016,0.084,0.3,0.0,1.5,0.14,0.02,28.62,-0.37,1.31,0.01,-0.03,-0.32,0.19,-0.5,0.12,165.67,195.0,0.0,0.0,0.0,0.0
1776452594648480382,22116,0.084,0.0,0.0,1.6,0.14,-0.08,28.62,-0.37,1.31,0.04,-0.02,-0.34,-0.69,-0.56,0.06,167.21,213.0,0.0,0.0,0.0,0.0
1776452594750874669,22217,0.0,1.1,0.0,1.0,0.14,-0.02,28.62,-0.37,1.31,-0.11,-0.04,-0.34,0.5,-0.06,0.37,162.07,187.0,0.0,0.0,0.0,0.0
1776452594849188694,22317,0.088,0.7,0.064,0.2,0.16,0.06,28.69,-0.37,1.25,0.07,-0.03,-0.31,-1.0,-0.12,1.0,166.18,187.0,0.0,0.0,0.0,0.0
1776452594951572203,22418,0.0,0.5,0.068,0.2,0.02,0.08,28.81,-0.37,1.25,0.01,-0.0,-0.36,-0.12,-0.12,1.37,166.18,190.0,0.0,0.0,0.0,0.0
1776452595049864450,22517,0.0,1.0,0.0,1.5,0.21,-0.02,28.94,-0.37,1.31,-0.18,-0.05,-0.27,-0.31,0.06,1.44,166.18,193.0,0.0,0.0,0.0,0.0
1776452595152245236,22618,0.084,1.1,0.0,1.2,0.08,0.02,29.12,-0.37,1.12,0.22,-0.0,-0.37,-1.19,-0.44,2.19,166.87,193.0,0.0,0.0,0.0,0.0
1776452595250549630,22718,0.08,0.5,0.084,0.9,-0.1,-0.14,29.31,-0.37,1.25,-0.37,-0.05,-0.31,1.5,-0.06,1.56,170.3,208.0,0.0,0.0,0.0,0.0
1776452595348823839,22817,0.08,0.3,0.0,0.8,0.0,0.08,29.37,-0.37,1.37,-0.04,-0.03,-0.31,-0.69,-0.06,0.81,166.7,208.0,0.0,0.0,0.0,0.0
1776452595451238217,22917,0.0,0.9,0.0,0.8,0.06,0.04,29.44,-0.37,1.37,-0.12,-0.03,-0.28,-0.25,-0.19,0.63,170.99,200.0,0.0,0.0,0.0,0.0
1776452595549571665,23017,0.0,0.2,0.0,1.1,-0.04,-0.04,29.44,-0.37,1.37,0.15,-0.01,-0.31,-2.25,-0.25,0.56,167.38,184.0,0.0,0.0,0.0,0.0
1776452595651928100,23117,0.084,0.7,0.068,0.5,0.0,-0.14,29.56,-0.37,1.25,0.11,-0.04,-0.36,0.31,0.06,1.06,166.18,184.0,0.0,0.0,0.0,0.0
1776452595760297385,23218,0.0,0.7,0.064,0.3,0.1,-0.2,29.69,-0.44,1.19,0.16,-0.02,-0.34,-1.06,-0.12,1.5,166.87,195.0,0.0,0.0,0.0,0.0
1776452595852630483,23319,0.0,0.6,0.0,1.5,0.06,-0.1,29.81,-0.44,1.12,0.0,-0.03,-0.37,0.56,-0.06,1.88,166.7,196.0,0.0,0.0,0.0,0.0
1776452595950935470,23418,0.084,0.2,0.0,1.4,0.06,0.02,30.0,-0.44,1.12,0.01,-0.03,-0.33,-0.81,-0.12,1.12,166.18,196.0,0.0,0.0,0.0,0.0
1776452596053317810,23518,0.0,0.4,0.0,1.0,0.1,-0.04,30.12,-0.37,1.0,0.38,0.01,-0.4,-0.19,-0.37,1.0,166.18,193.0,0.0,0.0,0.0,0.0
1776452596151613259,23618,0.084,0.0,0.0,1.1,0.18,-0.14,30.12,-0.37,0.94,0.02,-0.01,-0.33,-0.37,-0.63,0.0,166.18,192.0,0.0,0.0,0.0,0.0
1776452596254028524,23718,0.08,0.3,0.0,1.6,0.14,-0.08,30.12,-0.31,0.75,0.49,0.01,-0.33,-1.12,-0.56,0.44,166.7,192.0,0.0,0.0,0.0,0.0
1776452596352262918,23818,0.076,0.3,0.0,1.5,0.04,-0.16,30.12,-0.31,0.75,-0.26,-0.0,-0.26,3.19,0.44,-0.19,166.18,197.0,0.0,0.0,0.0,0.0
1776452596450566663,23918,0.076,1.2,0.072,0.2,0.02,-0.12,30.19,-0.31,0.69,0.13,0.03,-0.34,-0.31,-0.31,1.25,166.18,192.0,0.0,0.0,0.0,0.0
1776452596553001335,24017,0.0,1.3,0.072,0.1,0.14,-0.02,30.25,-0.31,0.75,-0.12,-0.01,-0.27,0.12,-0.06,0.69,166.18,192.0,0.0,0.0,0.0,0.0
1776452596651294246,24118,0.0,1.4,0.076,0.2,0.08,-0.06,30.31,-0.31,0.75,0.0,-0.06,-0.38,-0.06,-0.25,0.37,166.7,197.0,0.0,0.0,0.0,0.0
1776452596753680179,24218,0.0,1.2,0.068,0.3,-0.12,-0.02,30.31,-0.31,0.81,-0.2,-0.0,-0.37,1.94,0.19,-0.69,166.87,197.0,0.0,0.0,0.0,0.0
1776452596851982182,24317,0.0,1.3,0.0,1.2,0.12,-0.12,30.19,-0.37,1.06,-0.14,-0.08,-0.4,-1.25,0.25,-0.63,170.3,212.0,0.0,0.0,0.0,0.0
1776452596950285371,24417,0.084,0.4,0.064,0.5,0.16,-0.1,30.19,-0.37,1.0,0.09,0.01,-0.28,-0.88,-0.19,-0.25,166.87,199.0,0.0,0.0,0.0,0.0
1776452597052682192,24517,0.0,0.2,0.052,0.5,0.14,-0.12,30.19,-0.37,1.0,0.11,-0.0,-0.4,-0.5,0.63,-0.31,166.87,199.0,0.0,0.0,0.0,0.0
1776452597150968232,24616,0.088,0.2,0.0,0.2,0.12,0.02,30.19,-0.37,0.88,0.22,-0.01,-0.29,-0.44,0.81,0.5,166.7,193.0,0.0,0.0,0.0,0.0
1776452597253411754,24717,0.0,0.8,0.068,0.6,0.16,-0.18,30.25,-0.44,0.94,-0.04,0.04,-0.33,2.44,1.06,0.25,166.87,186.0,0.0,0.0,0.0,0.0
1776452597351650184,24817,0.0,0.7,0.0,1.4,0.12,0.04,30.25,-0.56,1.0,0.01,-0.15,-0.33,-0.0,0.88,0.69,166.7,186.0,0.0,0.0,0.0,0.0
1776452597449948465,24916,0.08,0.3,0.068,0.2,-0.04,0.06,30.31,-0.69,1.06,0.0,-0.06,-0.28,1.69,1.63,0.5,166.87,210.0,0.0,0.0,0.0,0.0
1776452597552367765,25016,0.0,1.2,0.0,1.0,0.0,-0.02,30.31,-0.81,1.19,0.05,-0.01,-0.3,0.31,1.31,0.19,165.67,197.0,0.0,0.0,0.0,0.0
1776452597650659676,25116,0.08,0.2,0.0,1.0,-0.08,0.0,30.31,-0.94,1.31,-0.06,-0.03,-0.48,0.37,0.12,0.69,170.99,197.0,0.0,0.0,0.0,0.0
1776452597748919272,25216,0.084,0.2,0.0,1.2,0.06,0.04,30.37,-0.94,1.37,-0.13,-0.13,-0.19,0.19,-1.0,1.12,167.38,189.0,0.0,0.0,0.0,0.0
1776452597851351776,25316,0.0,1.0,0.0,1.6,0.12,-0.12,30.5,-0.81,1.31,0.06,0.02,-0.42,-0.31,-0.88,0.5,167.38,189.0,0.0,0.0,0.0,0.0
1776452597959697226,25417,0.084,0.1,0.0,1.5,0.02,-0.02,30.5,-0.81,1.37,-0.06,-0.02,-0.32,0.31,-0.31,0.06,172.01,207.0,0.0,0.0,0.0,0.0
1776452598052048783,25517,0.0,1.1,0.0,1.3,-0.08,0.0,30.5,-0.81,1.37,0.05,-0.0,-0.36,-0.0,-0.5,-0.06,168.07,181.0,0.0,0.0,0.0,0.0
1776452598154438601,25618,0.084,0.1,0.0,1.3,0.0,-0.1,30.5,-0.81,1.44,-0.03,-0.0,-0.36,0.81,-0.0,-0.31,172.19,181.0,0.0,0.0,0.0,0.0
1776452598252736344,25718,0.076,0.1,0.0,1.2,-0.08,-0.02,30.5,-0.81,1.44,0.12,-0.0,-0.34,0.12,-0.19,-0.56,172.19,205.0,0.0,0.0,0.0,0.0
1776452598355076571,25818,0.0,0.7,0.064,0.2,-0.02,-0.1,30.44,-0.81,1.56,-0.05,-0.0,-0.32,2.25,0.44,-0.37,172.19,205.0,0.0,0.0,0.0,0.0
1776452598453370961,25919,0.0,0.2,0.0,1.3,0.04,0.02,30.44,-0.81,1.69,-0.05,-0.02,-0.25,1.12,0.88,0.06,172.19,205.0,0.0,0.0,0.0,0.0
1776452598555809353,26019,0.0,1.2,0.0,0.3,0.02,0.02,30.5,-0.88,1.69,0.19,-0.01,-0.35,0.31,0.25,1.0,172.19,191.0,0.0,0.0,0.0,0.0
1776452598654121854,26119,0.0,0.7,0.0,1.5,0.16,-0.12,30.56,-0.88,1.81,0.1,-0.02,-0.38,2.25,0.81,0.69,171.5,177.0,0.0,0.0,0.0,0.0
1776452598752404411,26219,0.084,0.3,0.0,1.4,0.23,-0.06,30.56,-1.0,2.0,0.1,-0.03,-0.39,2.25,0.94,-0.44,171.5,177.0,0.0,0.0,0.0,0.0
1776452598854806044,26318,0.0,1.1,0.072,0.3,0.08,-0.02,30.5,-1.12,2.38,-0.12,-0.0,-0.35,4.5,1.37,-1.37,170.99,202.0,0.0,0.0,0.0,0.0
1776452598953095416,26418,0.0,0.4,0.0,1.0,0.04,-0.04,30.31,-1.25,2.69,-0.03,-0.08,-0.33,0.75,1.12,-2.25,169.79,205.0,0.0,0.0,0.0,0.0
1776452599051337326,26518,0.084,0.2,0.0,1.4,-0.02,-0.08,30.12,-1.31,2.69,0.32,-0.02,-0.39,-0.25,-0.0,-2.06,166.18,205.0,0.0,0.0,0.0,0.0
1776452599153793660,26617,0.0,1.1,0.064,0.5,0.12,-0.2,29.94,-1.31,2.56,0.23,0.06,-0.46,2.44,1.19,-1.81,169.79,195.0,0.0,0.0,0.0,0.0
1776452599252046569,26717,0.0,0.9,0.068,0.5,-0.08,-0.1,29.81,-1.56,2.94,-0.32,0.01,-0.35,3.94,3.69,-1.37,169.1,195.0,0.0,0.0,0.0,0.0
1776452599354440738,26817,0.0,0.2,0.0,1.4,0.02,0.02,29.69,-1.94,3.13,-0.13,-0.14,-0.41,-1.88,2.06,-0.88,164.98,182.0,0.0,0.0,0.0,0.0
1776452599452756663,26917,0.084,1.2,0.068,0.2,0.14,-0.2,29.69,-2.13,3.19,-0.28,-0.1,-0.35,0.88,0.88,-0.5,164.98,192.0,0.0,0.0,0.0,0.0
1776452599555168721,27017,0.0,1.0,0.0,0.9,0.12,-0.08,29.56,-2.19,3.38,-0.21,-0.03,-0.34,0.12,0.19,-1.06,165.15,192.0,0.0,0.0,0.0,0.0
1776452599653469036,27117,0.088,0.2,0.0,1.0,0.0,-0.1,29.5,-2.25,3.38,0.0,-0.08,-0.38,-0.69,-0.06,-0.88,168.58,207.0,0.0,0.0,0.0,0.0
1776452599751751277,27217,0.076,0.1,0.0,1.0,0.12,-0.08,29.37,-2.25,3.31,-0.12,0.04,-0.4,1.06,-0.06,-0.81,164.47,197.0,0.0,0.0,0.0,0.0
1776452599854159038,27317,0.084,0.2,0.0,1.2,0.04,-0.08,29.31,-2.25,3.25,0.34,-0.04,-0.45,-1.88,-0.19,-0.37,165.5,197.0,0.0,0.0,0.0,0.0
1776452599952441539,27418,0.084,0.1,0.0,1.1,0.04,0.06,29.25,-2.25,3.19,0.18,-0.0,-0.36,-0.88,-0.44,-0.94,164.47,183.0,0.0,0.0,0.0,0.0
1776452600054831411,27517,0.084,0.5,0.064,0.3,0.08,0.02,29.19,-2.25,3.19,-0.08,0.02,-0.3,-0.81,0.25,-0.63,168.58,183.0,0.0,0.0,0.0,0.0
1776452600153150631,27618,0.0,0.9,0.056,0.1,0.06,0.04,29.19,-2.31,3.06,0.11,-0.09,-0.36,-1.0,0.06,-0.31,168.76,187.0,0.0,0.0,0.0,0.0
1776452600255549521,27718,0.0,0.7,0.064,0.7,0.04,-0.18,29.19,-2.31,2.94,0.27,-0.0,-0.32,-1.5,-0.37,-0.06,170.13,191.0,0.0,0.0,0.0,0.0
1776452600357914912,27819,0.0,0.2,0.0,1.3,0.04,-0.1,29.19,-2.25,2.75,-0.13,0.05,-0.37,1.5,0.56,-0.12,169.1,191.0,0.0,0.0,0.0,0.0
1776452600456238762,27919,0.084,0.1,0.0,0.2,0.21,-0.12,29.25,-2.31,2.69,0.06,-0.07,-0.33,-2.0,-0.12,1.06,169.1,208.0,0.0,0.0,0.0,0.0
1776452600558649485,28020,0.0,1.5,0.06,0.1,0.12,-0.04,29.44,-2.31,2.56,0.08,0.03,-0.38,0.31,-0.31,2.25,169.27,194.0,0.0,0.0,0.0,0.0
1776452600656889949,28120,0.0,0.3,0.0,1.3,0.21,0.0,29.62,-2.31,2.5,-0.08,-0.07,-0.32,-1.19,-0.0,2.25,169.27,194.0,0.0,0.0,0.0,0.0
1776452600755240742,28220,0.088,0.2,0.0,1.2,-0.08,0.04,29.87,-2.25,2.38,0.07,-0.03,-0.39,-0.81,-0.56,2.56,169.27,193.0,0.0,0.0,0.0,0.0
1776452600857628410,28319,0.0,0.7,0.0,1.3,0.08,-0.06,30.06,-2.25,2.38,-0.02,-0.05,-0.38,-1.69,-0.25,1.69,165.67,198.0,0.0,0.0,0.0,0.0
1776452600955921020,28419,0.084,0.1,0.0,1.5,0.18,-0.04,30.19,-2.25,2.25,-0.08,-0.01,-0.38,-0.88,-0.31,1.5,165.67,198.0,0.0,0.0,0.0,0.0
1776452601064286557,28519,0.088,0.1,0.0,1.4,0.1,-0.16,30.31,-2.25,2.13,-0.03,-0.0,-0.37,-1.19,-0.63,1.44,165.5,192.0,0.0,0.0,0.0,0.0
1776452601156603852,28619,0.0,1.2,0.08,0.2,-0.02,-0.16,30.44,-2.19,2.06,0.01,-0.0,-0.37,-1.06,-0.75,0.69,165.67,175.0,0.0,0.0,0.0,0.0
1776452601254900738,28719,0.0,1.1,0.0,1.0,0.06,-0.02,30.44,-2.19,1.94,0.19,0.01,-0.4,-1.88,-0.63,0.31,165.67,175.0,0.0,0.0,0.0,0.0
1776452601357246110,28819,0.084,0.1,0.0,1.4,0.12,0.02,30.44,-2.19,1.88,-0.07,0.04,-0.38,-0.25,-0.12,-0.12,169.27,209.0,0.0,0.0,0.0,0.0
1776452601455583866,28918,0.088,0.3,0.0,1.1,-0.04,-0.12,30.44,-2.19,1.81,-0.07,-0.01,-0.36,-0.94,-0.37,-0.25,166.01,209.0,0.0,0.0,0.0,0.0
1776452601557980662,29019,0.0,0.2,0.064,0.0,0.0,-0.12,30.44,-2.19,1.81,-0.15,-0.0,-0.36,-0.25,-0.25,-0.81,169.1,196.0,0.0,0.0,0.0,0.0
1776452601656276048,29119,0.0,0.6,0.064,0.5,-0.04,-0.12,30.31,-2.13,1.75,-0.08,0.05,-0.35,-0.0,-0.31,-1.19,169.1,200.0,0.0,0.0,0.0,0.0
1776452601754580916,29218,0.0,1.4,0.064,0.0,0.12,-0.16,30.19,-2.13,1.63,0.39,-0.03,-0.34,-2.56,-0.88,-1.37,169.1,200.0,0.0,0.0,0.0,0.0
1776452601856986323,29318,0.0,0.6,0.0,0.6,0.1,-0.04,30.06,-2.06,1.5,0.07,0.12,-0.35,0.25,-0.25,-1.31,169.79,195.0,0.0,0.0,0.0,0.0
1776452601955265692,29419,0.0,0.7,0.0,1.4,0.0,-0.23,30.0,-2.06,1.31,0.46,-0.0,-0.34,-2.38,-0.75,0.69,169.27,193.0,0.0,0.0,0.0,0.0
1776452602057658265,29518,0.084,0.2,0.0,1.2,0.04,-0.06,30.12,-2.0,1.19,-0.04,0.03,-0.31,0.37,0.5,0.81,169.1,193.0,0.0,0.0,0.0,0.0
1776452602155953299,29619,0.084,0.3,0.0,1.3,-0.02,0.0,30.25,-2.0,1.12,0.02,0.01,-0.3,-1.44,-0.19,2.13,164.98,189.0,0.0,0.0,0.0,0.0
1776452602258357167,29719,0.0,1.1,0.068,0.2,0.08,-0.1,30.5,-2.0,1.0,-0.16,-0.0,-0.33,0.75,0.37,2.06,164.98,202.0,0.0,0.0,0.0,0.0
1776452602356607091,29818,0.0,0.3,0.0,0.1,0.14,-0.04,30.62,-2.0,1.06,-0.14,-0.0,-0.29,-0.88,0.44,1.12,164.98,202.0,0.0,0.0,0.0,0.0
1776452602454896791,29918,0.0,0.9,0.064,0.2,0.16,-0.02,30.75,-2.0,0.94,0.0,0.06,-0.39,0.37,0.06,1.63,164.98,202.0,0.0,0.0,0.0,0.0
1776452602557331103,30018,0.0,0.2,0.0,1.3,0.1,0.04,30.87,-2.06,1.06,-0.32,-0.08,-0.29,-1.44,0.31,1.12,164.98,202.0,0.0,0.0,0.0,0.0
1776452602655634229,30117,0.092,0.2,0.0,1.6,0.12,-0.12,31.06,-2.0,0.81,0.52,0.06,-0.39,-1.06,-0.56,2.0,169.1,194.0,0.0,0.0,0.0,0.0
1776452602758030024,30218,0.0,1.3,0.068,0.5,0.06,0.04,31.19,-2.0,0.88,-0.2,-0.03,-0.28,0.56,-0.06,1.19,164.98,181.0,0.0,0.0,0.0,0.0
1776452602856328132,30318,0.0,1.2,0.0,1.1,0.04,0.1,31.37,-2.0,0.75,0.05,0.02,-0.39,-0.25,-0.37,1.56,164.98,181.0,0.0,0.0,0.0,0.0
1776452602954605721,30418,0.084,0.3,0.0,1.2,0.04,-0.12,31.5,-2.0,0.81,0.0,-0.02,-0.36,-1.5,-0.5,1.12,165.5,197.0,0.0,0.0,0.0,0.0
1776452603057013941,30518,0.084,0.2,0.0,1.0,0.04,-0.14,31.5,-2.0,0.75,0.04,0.01,-0.32,-0.5,-0.19,0.44,161.55,193.0,0.0,0.0,0.0,0.0
1776452603155319825,30618,0.076,0.3,0.0,0.2,0.16,0.0,31.5,-2.0,0.75,-0.25,0.01,-0.33,1.19,0.06,0.06,165.5,193.0,0.0,0.0,0.0,0.0
1776452603257707433,30717,0.0,0.8,0.0,1.4,0.1,-0.08,31.5,-2.0,0.81,0.03,-0.01,-0.33,-1.69,-0.5,-0.12,166.7,200.0,0.0,0.0,0.0,0.0
1776452603355971430,30818,0.0,1.3,0.06,0.6,0.08,0.02,31.5,-2.0,0.63,0.11,0.05,-0.34,0.44,-0.06,-0.25,165.67,199.0,0.0,0.0,0.0,0.0
1776452603458415685,30918,0.0,1.4,0.056,0.4,0.14,-0.06,31.5,-1.94,0.63,0.01,-0.0,-0.35,-0.44,-0.31,0.37,166.7,199.0,0.0,0.0,0.0,0.0
1776452603556695625,31019,0.0,1.3,0.068,0.4,0.16,0.04,31.56,-1.94,0.63,0.02,0.01,-0.32,-0.69,-0.19,0.56,161.55,191.0,0.0,0.0,0.0,0.0
1776452603659085493,31119,0.0,1.3,0.0,1.0,0.1,-0.08,31.62,-1.94,0.56,0.18,-0.0,-0.36,-0.94,-0.44,0.56,165.5,191.0,0.0,0.0,0.0,0.0
1776452603757390043,31219,0.088,0.1,0.0,1.0,0.02,-0.1,31.69,-1.94,0.5,0.06,0.01,-0.29,-0.56,-0.31,0.31,165.5,199.0,0.0,0.0,0.0,0.0
1776452603859780800,31319,0.084,0.3,0.0,1.1,0.18,-0.1,31.69,-1.94,0.37,0.23,0.03,-0.34,-0.56,-0.5,0.0,166.18,202.0,0.0,0.0,0.0,0.0
1776452603958083924,31419,0.0,0.6,0.0,1.5,0.18,-0.14,31.69,-1.94,0.31,0.15,0.05,-0.31,-1.06,-0.44,0.56,162.07,202.0,0.0,0.0,0.0,0.0
1776452604056380438,31519,0.0,1.4,0.068,0.3,0.25,0.02,31.75,-1.88,0.25,-0.04,0.07,-0.34,0.5,-0.06,1.69,166.18,191.0,0.0,0.0,0.0,0.0
1776452604158764897,31619,0.0,1.1,0.06,0.5,0.02,0.04,32.0,-1.88,0.25,-0.17,0.01,-0.33,-0.19,-0.12,2.31,166.18,195.0,0.0,0.0,0.0,0.0
1776452604261178263,31720,0.0,0.1,0.0,1.2,0.02,-0.18,32.19,-1.88,0.31,-0.22,0.01,-0.32,0.5,-0.06,1.44,166.18,195.0,0.0,0.0,0.0,0.0
1776452604359418777,31820,0.084,0.2,0.0,1.1,0.02,0.0,32.25,-1.88,0.5,-0.24,-0.02,-0.29,-0.44,0.19,0.06,166.18,217.0,0.0,0.0,0.0,0.0
1776452604457738252,31920,0.0,0.6,0.064,0.3,0.04,-0.04,32.25,-1.88,0.44,0.07,0.04,-0.38,0.69,-0.56,-0.5,166.18,196.0,0.0,0.0,0.0,0.0
1776452604560155210,32020,0.0,0.9,0.0,1.3,0.21,-0.18,32.13,-1.81,0.37,0.29,0.02,-0.38,-2.75,-1.0,-1.06,162.07,196.0,0.0,0.0,0.0,0.0
1776452604658445223,32120,0.092,0.0,0.0,1.6,0.1,-0.21,32.0,-1.75,0.31,0.09,0.04,-0.28,-0.12,-0.31,-1.37,166.18,198.0,0.0,0.0,0.0,0.0
1776452604760850867,32220,0.084,0.1,0.0,1.3,0.0,-0.04,31.94,-1.75,0.25,0.21,0.09,-0.4,-0.63,-0.56,-0.56,161.9,198.0,0.0,0.0,0.0,0.0
1776452604859147638,32320,0.096,-0.1,0.068,-0.1,0.08,-0.04,31.87,-1.75,0.06,0.1,0.07,-0.38,2.38,1.25,-1.06,166.18,194.0,0.0,0.0,0.0,0.0
1776452604961533949,32420,0.08,0.5,0.06,0.5,0.06,-0.12,31.81,-1.88,0.37,-0.39,-0.01,-0.34,1.06,0.88,0.31,166.18,209.0,0.0,0.0,0.0,0.0
1776452605059836831,32520,0.0,0.6,0.056,0.3,0.02,-0.02,31.94,-1.88,0.37,-0.01,-0.0,-0.35,-0.88,-0.56,1.25,166.18,209.0,0.0,0.0,0.0,0.0
1776452605158124825,32620,0.0,1.3,0.064,0.5,0.27,-0.04,32.0,-1.88,0.37,0.01,0.05,-0.36,0.12,0.19,0.81,166.18,200.0,0.0,0.0,0.0,0.0
1776452605260474839,32719,0.0,1.1,0.072,0.2,0.12,-0.08,32.06,-1.88,0.44,-0.15,-0.01,-0.28,0.44,0.25,0.81,162.07,190.0,0.0,0.0,0.0,0.0
1776452605358805312,32819,0.0,1.3,0.068,0.2,0.12,-0.12,32.13,-1.88,0.44,-0.1,0.04,-0.4,1.06,-0.0,0.63,162.07,190.0,0.0,0.0,0.0,0.0
1776452605467181806,32919,0.0,1.3,0.072,0.3,0.02,0.06,32.19,-1.88,0.56,0.04,-0.02,-0.32,-1.06,-0.12,-0.19,162.07,204.0,0.0,0.0,0.0,0.0
1776452605559554206,33018,0.0,1.0,0.0,0.5,0.1,-0.06,32.19,-1.88,0.31,0.16,0.08,-0.37,0.63,-0.44,-0.44,162.07,194.0,0.0,0.0,0.0,0.0
1776452605657815070,33118,0.0,0.8,0.0,0.3,0.08,0.0,32.13,-1.88,0.44,-0.07,-0.0,-0.32,0.25,0.5,-0.75,162.07,194.0,0.0,0.0,0.0,0.0
1776452605766222100,33218,0.0,1.1,0.072,0.6,0.08,0.02,32.06,-1.88,0.44,0.12,0.03,-0.32,-0.44,-0.25,-0.44,166.18,196.0,0.0,0.0,0.0,0.0
1776452605858482503,33317,0.0,0.9,0.0,1.1,0.23,-0.04,32.06,-1.88,0.31,0.37,-0.02,-0.34,-1.0,-0.44,-0.69,162.58,214.0,0.0,0.0,0.0,0.0
1776452605960882886,33418,0.088,0.4,0.0,0.7,0.04,-0.06,31.94,-1.88,0.0,0.27,0.09,-0.34,0.5,-0.0,-1.94,162.58,214.0,0.0,0.0,0.0,0.0
1776452606059194230,33518,0.092,1.2,0.068,0.1,0.04,-0.1,31.69,-1.81,0.06,-0.05,-0.02,-0.32,3.19,0.5,-2.25,166.7,206.0,0.0,0.0,0.0,0.0
1776452606157495240,33617,0.0,0.4,0.0,0.6,0.02,-0.08,31.5,-1.88,0.37,-0.19,-0.07,-0.34,1.31,0.06,-1.56,166.7,206.0,0.0,0.0,0.0,0.0
1776452606259887493,33717,0.0,0.3,0.0,1.2,0.0,-0.12,31.37,-1.88,0.5,-0.11,0.04,-0.45,1.06,-0.31,-1.12,166.7,190.0,0.0,0.0,0.0,0.0
1776452606358142597,33817,0.088,1.1,0.068,0.5,0.0,-0.02,31.31,-1.88,0.56,0.09,0.02,-0.35,-0.94,-0.12,-0.69,166.7,200.0,0.0,0.0,0.0,0.0
1776452606456462551,33916,0.0,1.2,0.0,0.2,0.12,-0.23,31.31,-1.88,0.69,-0.02,-0.01,-0.36,2.25,0.88,-0.12,166.7,200.0,0.0,0.0,0.0,0.0
1776452606558865729,34016,0.0,0.6,0.0,1.7,-0.08,-0.08,31.31,-1.94,0.94,-0.12,0.01,-0.39,2.0,0.44,0.12,166.18,205.0,0.0,0.0,0.0,0.0
1776452606657175757,34117,0.092,0.3,0.0,1.5,0.08,-0.08,31.31,-2.0,1.12,-0.1,-0.06,-0.34,0.94,0.31,0.06,166.18,202.0,0.0,0.0,0.0,0.0
1776452606765570008,34216,0.088,0.3,0.0,1.6,0.1,-0.16,31.31,-2.0,1.19,0.11,-0.0,-0.38,-0.06,0.19,0.12,166.18,202.0,0.0,0.0,0.0,0.0
1776452606857857798,34317,0.0,1.2,0.0,1.2,0.1,-0.06,31.25,-2.0,1.31,-0.02,-0.01,-0.33,2.44,1.06,0.0,166.18,183.0,0.0,0.0,0.0,0.0
1776452606960260180,34417,0.088,0.2,0.056,0.2,0.02,0.02,31.25,-2.13,1.5,0.04,-0.04,-0.33,1.06,0.63,0.37,165.5,183.0,0.0,0.0,0.0,0.0
1776452607058549264,34516,0.0,0.9,0.06,0.0,0.06,-0.08,31.25,-2.13,1.63,0.0,-0.0,-0.36,2.63,0.63,0.0,165.67,218.0,0.0,0.0,0.0,0.0
1776452607156869013,34616,0.0,0.6,0.068,0.7,0.08,0.0,31.25,-2.19,1.81,-0.01,-0.0,-0.37,2.31,0.81,-0.81,165.5,195.0,0.0,0.0,0.0,0.0
1776452607255095321,34716,0.0,0.6,0.072,0.3,0.1,-0.08,31.19,-2.31,2.13,-0.31,-0.0,-0.34,2.69,1.88,-0.44,165.67,195.0,0.0,0.0,0.0,0.0
1776452607357488961,34816,0.0,-0.2,0.0,1.4,0.2,-0.08,31.19,-2.5,2.38,-0.08,-0.12,-0.32,-0.31,0.37,-0.06,165.67,191.0,0.0,0.0,0.0,0.0
1776452607459935082,34917,0.0,1.1,0.064,0.5,0.12,-0.16,31.19,-2.5,2.38,0.1,0.01,-0.38,0.06,0.25,-0.81,165.5,192.0,0.0,0.0,0.0,0.0
1776452607558218554,35016,0.0,0.3,0.0,1.2,-0.08,-0.02,31.06,-2.56,2.44,-0.08,-0.0,-0.41,2.13,1.19,-1.31,165.5,192.0,0.0,0.0,0.0,0.0
1776452607660640305,35117,0.084,0.3,0.0,1.4,0.08,-0.02,30.87,-2.69,2.63,0.05,-0.13,-0.31,-2.06,-0.19,-1.69,166.7,201.0,0.0,0.0,0.0,0.0
1776452607758927499,35218,0.088,0.2,0.064,0.2,0.14,-0.04,30.69,-2.69,2.5,0.08,0.08,-0.38,1.37,-0.0,-2.63,165.67,196.0,0.0,0.0,0.0,0.0
1776452607857209434,35317,0.0,1.0,0.076,0.2,-0.02,-0.06,30.44,-2.75,2.56,0.03,-0.06,-0.35,-1.12,0.31,-1.94,165.5,196.0,0.0,0.0,0.0,0.0
1776452607959604371,35417,0.088,0.3,0.0,1.1,0.0,-0.12,30.31,-2.75,2.56,0.02,0.02,-0.34,0.12,0.31,-1.0,165.5,216.0,0.0,0.0,0.0,0.0
1776452608057899139,35517,0.0,1.0,0.0,1.5,0.04,-0.02,30.25,-2.75,2.5,0.08,-0.0,-0.37,0.06,0.06,-0.5,165.67,190.0,0.0,0.0,0.0,0.0
1776452608156186610,35616,0.088,0.3,0.0,1.5,0.1,-0.1,30.25,-2.81,2.56,-0.11,-0.02,-0.33,0.69,0.75,0.19,165.67,190.0,0.0,0.0,0.0,0.0
1776452608258576360,35716,0.0,1.4,0.068,0.3,0.06,-0.25,30.25,-2.81,2.5,0.14,-0.04,-0.36,-0.69,-0.19,0.5,165.67,195.0,0.0,0.0,0.0,0.0
1776452608356840314,35817,0.0,1.3,0.0,1.0,0.12,-0.02,30.25,-2.81,2.5,-0.08,-0.0,-0.34,0.44,0.37,0.37,162.07,195.0,0.0,0.0,0.0,0.0
1776452608459274859,35916,0.084,0.1,0.0,1.1,0.1,-0.04,30.25,-2.81,2.44,0.03,-0.02,-0.34,-0.12,0.06,0.69,162.07,200.0,0.0,0.0,0.0,0.0
1776452608557610440,36016,0.088,1.2,0.064,0.3,0.1,-0.12,30.31,-2.81,2.44,0.18,-0.03,-0.36,-0.69,-0.37,0.75,162.07,201.0,0.0,0.0,0.0,0.0
1776452608666011151,36116,0.0,1.3,0.068,0.4,0.08,0.16,30.37,-2.81,2.38,0.02,0.02,-0.3,-0.31,0.31,0.56,166.18,201.0,0.0,0.0,0.0,0.0
1776452608758290957,36215,0.0,0.2,0.0,1.0,0.08,-0.14,30.44,-2.81,2.38,-0.08,-0.03,-0.35,0.69,0.25,0.88,166.18,194.0,0.0,0.0,0.0,0.0
1776452608860681856,36316,0.084,0.4,0.0,1.2,0.16,-0.04,30.5,-2.81,2.38,-0.21,0.01,-0.36,0.88,0.19,1.19,166.18,197.0,0.0,0.0,0.0,0.0
1776452608958963920,36416,0.0,0.1,0.0,1.1,0.08,-0.16,30.62,-2.88,2.44,0.17,-0.09,-0.33,-1.88,-0.44,1.0,166.87,197.0,0.0,0.0,0.0,0.0
1776452609057201336,36516,0.0,0.6,0.0,1.5,0.16,-0.04,30.75,-2.81,2.25,0.26,0.08,-0.35,0.88,-0.31,0.81,166.7,182.0,0.0,0.0,0.0,0.0
1776452609159676583,36617,0.084,1.3,0.0,1.1,0.0,-0.12,30.81,-2.81,2.31,0.23,-0.09,-0.38,-1.81,-0.19,1.06,167.9,199.0,0.0,0.0,0.0,0.0
1776452609262057314,36718,0.0,0.6,0.06,0.5,0.0,-0.08,30.94,-2.81,2.13,0.14,0.01,-0.38,0.88,0.31,2.0,166.7,199.0,0.0,0.0,0.0,0.0
1776452609360320062,36817,0.0,0.7,0.06,0.4,0.16,-0.12,31.12,-2.81,2.19,0.04,-0.08,-0.4,-1.31,-0.19,1.12,166.18,220.0,0.0,0.0,0.0,0.0
1776452609462735626,36918,0.0,1.3,0.068,0.5,0.0,-0.14,31.19,-2.81,2.19,-0.18,-0.05,-0.41,1.12,0.56,0.56,166.18,220.0,0.0,0.0,0.0,0.0
1776452609561036780,37018,0.0,1.2,0.0,1.2,0.08,-0.1,31.19,-2.88,2.25,-0.05,-0.08,-0.34,-0.81,-0.19,-0.81,162.07,186.0,0.0,0.0,0.0,0.0
1776452609663442825,37118,0.0,0.9,0.064,0.5,0.04,0.02,31.06,-2.88,2.19,0.02,-0.0,-0.39,1.12,-0.0,-1.12,162.07,207.0,0.0,0.0,0.0,0.0
1776452609761738980,37219,0.088,0.4,0.0,1.5,0.0,-0.1,30.94,-2.94,2.31,-0.13,-0.06,-0.32,-0.31,-0.06,-1.0,166.18,207.0,0.0,0.0,0.0,0.0
1776452609870159189,37319,0.092,0.1,0.0,1.5,0.02,0.02,30.81,-2.94,2.25,0.1,-0.0,-0.38,0.12,-0.37,-1.25,165.67,206.0,0.0,0.0,0.0,0.0
1776452609962430162,37419,0.092,0.0,0.0,1.6,0.02,-0.16,30.75,-2.94,2.31,-0.16,-0.04,-0.35,0.37,0.12,-1.12,165.67,199.0,0.0,0.0,0.0,0.0
1776452610070852759,37519,0.088,0.1,0.0,1.8,0.14,-0.06,30.62,-3.0,2.44,-0.15,-0.02,-0.36,0.19,-0.12,-0.63,165.5,199.0,0.0,0.0,0.0,0.0
1776452610163124804,37619,0.084,0.2,0.0,1.5,0.1,-0.1,30.62,-3.0,2.44,0.08,-0.02,-0.42,-0.94,-0.5,-0.69,161.9,198.0,0.0,0.0,0.0,0.0
1776452610265603216,37720,0.088,0.3,0.0,1.6,0.12,0.0,30.56,-3.0,2.44,0.07,-0.03,-0.32,-0.44,-0.06,-0.88,161.55,199.0,0.0,0.0,0.0,0.0
1776452610363768707,37820,0.088,0.3,0.06,0.1,-0.02,-0.06,30.44,-3.0,2.38,0.24,-0.01,-0.35,-0.81,-0.19,-1.31,161.38,199.0,0.0,0.0,0.0,0.0
1776452610462065546,37920,0.0,0.2,0.0,0.2,0.06,-0.08,30.31,-3.0,2.13,0.32,0.02,-0.35,-0.19,-0.25,-2.19,161.38,202.0,0.0,0.0,0.0,0.0
1776452610564498330,38020,0.0,0.1,0.0,1.5,0.02,-0.16,30.06,-3.0,2.0,0.03,0.02,-0.35,0.56,-0.37,-2.31,161.38,193.0,0.0,0.0,0.0,0.0
1776452610662739504,38120,0.092,0.1,0.068,0.2,0.06,0.04,29.81,-3.0,1.88,0.27,-0.01,-0.37,-0.75,-0.63,-2.44,161.38,193.0,0.0,0.0,0.0,0.0
1776452610765191454,38220,0.084,0.2,0.0,1.1,0.16,-0.1,29.62,-3.0,1.94,-0.14,0.04,-0.31,0.31,-0.19,-2.13,165.5,197.0,0.0,0.0,0.0,0.0
1776452610863513495,38320,0.088,0.0,0.0,0.2,0.14,-0.04,29.44,-3.0,1.88,0.03,-0.0,-0.36,-0.31,-0.25,-1.37,165.67,197.0,0.0,0.0,0.0,0.0
1776452610961741966,38420,0.0,1.3,0.06,0.1,0.1,0.08,29.31,-3.0,1.88,-0.2,-0.0,-0.35,0.25,0.06,-1.37,161.55,186.0,0.0,0.0,0.0,0.0
1776452611064177101,38519,0.0,1.3,0.06,0.3,0.08,0.0,29.19,-3.0,1.88,0.07,-0.0,-0.37,-1.19,-0.44,-1.37,161.55,195.0,0.0,0.0,0.0,0.0
1776452611162484475,38619,0.0,0.6,0.0,1.0,0.06,-0.04,29.06,-3.0,1.88,-0.11,0.03,-0.32,-0.37,-0.12,-1.12,161.38,195.0,0.0,0.0,0.0,0.0
1776452611264861945,38719,0.088,0.2,0.0,1.1,-0.02,-0.08,29.0,-3.0,1.81,-0.01,0.01,-0.4,-0.19,-0.31,-0.5,161.55,176.0,0.0,0.0,0.0,0.0
1776452611363173337,38819,0.084,0.1,0.0,1.0,0.14,-0.14,29.0,-3.0,1.81,-0.06,-0.01,-0.36,-0.37,-0.25,-0.63,161.38,192.0,0.0,0.0,0.0,0.0
1776452611471485270,38919,0.0,0.9,0.068,0.4,0.0,-0.04,29.0,-3.0,1.81,0.12,0.02,-0.34,-1.31,-0.31,-0.37,161.38,192.0,0.0,0.0,0.0,0.0
1776452611563860681,39019,0.0,0.1,0.0,0.6,0.23,-0.06,29.0,-3.0,1.31,0.59,0.06,-0.41,-0.69,-0.63,0.06,161.38,193.0,0.0,0.0,0.0,0.0
1776452611662145241,39118,0.0,1.2,0.072,0.3,-0.02,-0.08,28.94,-2.94,1.19,-0.4,-0.0,-0.29,-0.25,0.56,0.06,161.38,193.0,0.0,0.0,0.0,0.0
1776452611764549136,39218,0.0,0.5,0.0,1.1,0.25,-0.14,29.0,-2.94,1.0,0.32,0.04,-0.34,-0.81,-0.44,1.19,161.38,198.0,0.0,0.0,0.0,0.0
1776452611862847918,39318,0.072,0.1,0.0,0.3,0.1,0.1,29.12,-2.94,1.0,-0.18,0.01,-0.35,-0.75,0.31,0.69,165.5,194.0,0.0,0.0,0.0,0.0
1776452611961141071,39417,0.0,0.0,0.0,1.6,0.02,0.02,29.25,-2.94,0.88,-0.01,0.05,-0.36,0.12,-0.12,1.44,165.5,194.0,0.0,0.0,0.0,0.0
1776452612063541891,39517,0.076,0.1,0.0,1.6,0.29,0.04,29.37,-2.94,0.88,-0.03,-0.03,-0.36,-1.69,-0.12,1.19,165.5,198.0,0.0,0.0,0.0,0.0
1776452612161828654,39618,0.1,0.5,0.072,0.4,-0.06,-0.14,29.5,-2.94,0.75,0.02,0.02,-0.36,-0.81,-0.25,1.25,165.5,182.0,0.0,0.0,0.0,0.0
1776452612264197789,39718,0.0,0.2,0.0,1.1,0.14,-0.21,29.62,-2.94,0.69,0.05,0.04,-0.35,-1.06,-0.44,1.0,165.5,182.0,0.0,0.0,0.0,0.0
1776452612362484403,39818,0.0,0.6,0.0,1.5,0.14,-0.12,29.69,-2.94,0.69,0.0,0.03,-0.36,-1.12,-0.06,0.94,161.38,183.0,0.0,0.0,0.0,0.0
1776452612460780184,39918,0.0,1.3,0.0,0.4,-0.1,-0.21,29.81,-2.94,0.63,-0.18,0.01,-0.36,-0.0,-0.12,0.88,161.55,202.0,0.0,0.0,0.0,0.0
1776452612563227373,40017,0.0,0.9,0.06,0.2,0.1,-0.06,29.87,-2.94,0.69,-0.13,0.02,-0.36,-0.37,-0.06,0.88,166.7,202.0,0.0,0.0,0.0,0.0
1776452612671601357,40118,0.0,1.5,0.0,0.5,0.06,-0.06,30.0,-2.94,0.63,-0.03,0.01,-0.36,-0.81,-0.44,0.94,165.67,184.0,0.0,0.0,0.0,0.0
1776452612763904289,40218,0.0,0.4,0.0,1.6,0.08,0.0,30.0,-2.94,0.69,-0.09,0.04,-0.36,-0.69,-0.12,0.56,165.67,210.0,0.0,0.0,0.0,0.0
1776452612862199866,40318,0.088,0.2,0.0,1.4,0.1,0.0,30.0,-2.94,0.63,0.05,-0.0,-0.35,-0.56,-0.31,0.25,164.98,210.0,0.0,0.0,0.0,0.0
1776452612964597093,40418,0.084,0.1,0.064,0.2,-0.08,-0.04,30.0,-2.94,0.5,0.19,0.06,-0.36,-0.75,-0.69,-0.19,162.41,185.0,0.0,0.0,0.0,0.0
1776452613062892447,40519,0.088,0.1,0.0,1.2,-0.04,-0.08,30.0,-2.88,0.5,-0.13,0.03,-0.35,0.19,-0.06,0.0,165.67,185.0,0.0,0.0,0.0,0.0
1776452613165298580,40619,0.084,0.2,0.0,0.8,-0.12,-0.18,30.0,-2.88,0.44,0.16,0.07,-0.36,0.19,-0.69,0.19,162.58,190.0,0.0,0.0,0.0,0.0
1776452613263545732,40720,0.0,1.0,0.0,1.2,0.06,-0.12,30.0,-2.88,0.5,-0.19,0.02,-0.39,-0.25,0.31,0.25,165.5,219.0,0.0,0.0,0.0,0.0
1776452613365971105,40819,0.084,0.0,0.0,1.5,0.02,-0.12,30.06,-2.88,0.56,-0.12,0.03,-0.36,-0.56,-0.12,0.63,165.5,219.0,0.0,0.0,0.0,0.0
1776452613464221609,40920,0.0,1.3,0.0,1.3,-0.02,-0.04,30.06,-2.88,0.63,-0.12,0.04,-0.38,-0.25,-0.0,0.37,164.98,199.0,0.0,0.0,0.0,0.0
1776452613566673722,41020,0.092,0.3,0.0,1.1,0.2,-0.1,30.06,-2.88,0.63,-0.02,-0.0,-0.36,-0.63,-0.12,-0.44,164.98,199.0,0.0,0.0,0.0,0.0
1776452613664979223,41120,0.084,0.1,0.0,1.5,0.04,0.0,30.06,-2.88,0.5,0.17,0.04,-0.36,-0.63,-0.37,-0.56,164.98,199.0,0.0,0.0,0.0,0.0
1776452613767373227,41220,0.088,1.2,0.064,0.3,0.14,0.0,30.0,-2.81,0.44,0.22,0.04,-0.38,-0.69,-0.25,-0.69,164.98,187.0,0.0,0.0,0.0,0.0
1776452613865660581,41320,0.0,1.2,0.0,0.8,0.04,-0.08,30.0,-2.81,0.37,0.04,0.03,-0.39,-0.69,-0.0,-0.31,163.78,200.0,0.0,0.0,0.0,0.0
1776452613963911844,41419,0.0,0.3,0.0,1.5,0.14,-0.18,30.0,-2.81,0.37,0.07,0.01,-0.37,-0.75,-0.06,-0.88,164.98,200.0,0.0,0.0,0.0,0.0
1776452614066336679,41520,0.08,0.2,0.0,1.4,0.06,-0.14,29.87,-2.81,0.31,-0.02,0.02,-0.36,-0.12,0.31,-1.37,164.98,204.0,0.0,0.0,0.0,0.0
1776452614164659605,41620,0.084,0.3,0.0,1.5,0.0,-0.06,29.75,-2.81,0.25,0.11,-0.0,-0.39,-0.12,0.06,-1.31,160.87,204.0,0.0,0.0,0.0,0.0
1776452614267053034,41719,0.088,0.1,0.0,1.7,0.04,-0.02,29.62,-2.81,0.25,0.03,0.04,-0.32,-0.69,-0.0,-1.25,160.7,195.0,0.0,0.0,0.0,0.0
1776452614365298685,41819,0.092,0.3,0.0,1.1,0.14,-0.18,29.5,-2.81,0.19,0.03,0.02,-0.37,-0.19,0.25,-1.0,160.87,189.0,0.0,0.0,0.0,0.0
1776452614467691502,41920,0.084,0.3,0.0,1.2,0.04,-0.06,29.37,-2.81,0.19,-0.01,-0.02,-0.36,0.75,-0.06,-0.75,164.81,189.0,0.0,0.0,0.0,0.0
1776452614566018169,42019,0.088,0.3,0.0,0.3,0.04,-0.1,29.31,-2.81,0.19,-0.04,-0.0,-0.32,-0.44,-0.19,-1.06,166.18,173.0,0.0,0.0,0.0,0.0
1776452614668429448,42120,0.0,0.6,0.072,0.6,0.16,0.08,29.19,-2.81,0.19,-0.03,0.03,-0.35,0.06,-0.31,-1.06,164.98,186.0,0.0,0.0,0.0,0.0
1776452614766722523,42221,0.0,1.1,0.0,1.3,0.04,-0.1,29.12,-2.81,0.12,-0.02,0.01,-0.37,0.37,-0.31,-0.88,164.98,186.0,0.0,0.0,0.0,0.0
1776452614869106119,42320,0.092,0.0,0.0,1.7,0.06,0.02,29.06,-2.81,0.19,-0.06,0.01,-0.34,-0.31,-0.19,-0.44,164.98,203.0,0.0,0.0,0.0,0.0
1776452614967408546,42421,0.088,0.9,0.0,0.3,-0.02,-0.08,29.06,-2.81,0.19,-0.01,0.01,-0.33,-0.31,-0.31,-0.56,164.98,179.0,0.0,0.0,0.0,0.0
1776452615069808492,42522,0.0,0.3,0.072,0.1,0.12,-0.04,29.0,-2.81,0.12,0.07,0.05,-0.36,0.19,-0.69,-0.81,165.67,179.0,0.0,0.0,0.0,0.0
1776452615168106306,42621,0.0,1.2,0.068,0.2,0.04,-0.04,28.87,-2.75,0.12,-0.01,0.04,-0.31,0.25,-0.5,-0.88,165.67,202.0,0.0,0.0,0.0,0.0
1776452615270487549,42721,0.0,1.4,0.0,0.3,-0.06,-0.12,28.81,-2.75,0.12,0.0,0.02,-0.36,0.81,-0.5,-0.69,164.64,206.0,0.0,0.0,0.0,0.0
1776452615368749883,42821,0.0,0.9,0.052,0.3,0.12,-0.12,28.75,-2.69,0.19,0.07,0.03,-0.38,-0.75,-0.63,-0.56,164.98,206.0,0.0,0.0,0.0,0.0
1776452615467080974,42921,0.0,0.3,0.0,1.4,0.06,-0.1,28.69,-2.69,0.19,-0.04,0.02,-0.34,0.31,-0.31,-0.75,164.98,191.0,0.0,0.0,0.0,0.0
1776452615569477457,43021,0.088,0.4,0.06,0.2,0.06,-0.2,28.62,-2.69,0.19,-0.13,0.03,-0.33,0.31,-0.25,-0.44,164.98,191.0,0.0,0.0,0.0,0.0
1776452615667788290,43122,0.0,0.4,0.0,1.6,-0.02,-0.06,28.62,-2.69,0.25,-0.07,0.04,-0.38,0.88,-0.37,-0.44,164.98,199.0,0.0,0.0,0.0,0.0
1776452615770173180,43222,0.0,0.3,0.0,1.4,0.02,-0.06,28.62,-2.69,0.37,-0.2,0.01,-0.32,-0.25,-0.25,-0.37,164.98,195.0,0.0,0.0,0.0,0.0
1776452615868474384,43322,0.092,0.4,0.0,1.7,0.08,-0.1,28.62,-2.69,0.25,0.38,0.07,-0.37,-1.0,-0.44,-0.69,164.98,195.0,0.0,0.0,0.0,0.0
1776452615970861941,43422,0.088,0.1,0.0,0.1,0.02,-0.12,28.56,-2.63,0.12,0.13,0.06,-0.32,-0.12,-0.12,-0.06,164.98,192.0,0.0,0.0,0.0,0.0
1776452616069170088,43522,0.0,1.4,0.0,1.0,0.14,0.1,28.56,-2.63,0.0,0.4,0.05,-0.33,-1.12,-0.37,0.56,164.98,201.0,0.0,0.0,0.0,0.0
1776452616171558329,43622,0.08,0.3,0.0,1.4,0.12,-0.1,28.62,-2.56,-0.19,0.04,0.04,-0.4,2.88,-0.37,0.75,166.01,201.0,0.0,0.0,0.0,0.0
1776452616269851976,43723,0.092,-0.1,0.0,1.0,0.1,0.0,28.69,-2.56,0.0,-0.12,0.05,-0.33,0.25,-0.44,0.94,164.98,188.0,0.0,0.0,0.0,0.0
1776452616372200404,43823,0.084,0.5,0.0,1.2,0.04,-0.1,28.75,-2.5,-0.06,0.2,0.08,-0.36,0.12,-0.5,0.88,164.98,188.0,0.0,0.0,0.0,0.0
1776452616470540031,43923,0.088,0.0,0.0,0.3,0.06,-0.06,28.87,-2.5,0.06,0.0,0.07,-0.32,1.81,-0.37,1.63,166.01,205.0,0.0,0.0,0.0,0.0
1776452616578918529,44023,0.0,0.9,0.072,0.5,0.02,-0.08,29.0,-2.5,0.19,-0.08,0.07,-0.38,2.44,-0.31,0.88,169.27,211.0,0.0,0.0,0.0,0.0
1776452616671232585,44123,0.0,0.2,0.0,0.7,0.04,-0.18,29.0,-2.44,0.31,0.31,-0.0,-0.32,-2.19,-1.19,-0.31,164.98,211.0,0.0,0.0,0.0,0.0
1776452616769530250,44223,0.0,1.6,0.0,0.9,0.16,-0.04,28.94,-2.38,0.25,0.2,0.11,-0.38,3.06,-0.37,-1.81,164.98,192.0,0.0,0.0,0.0,0.0
1776452616867830842,44322,0.088,0.3,0.0,1.1,0.06,-0.04,28.75,-2.38,0.56,-0.19,0.11,-0.3,3.25,1.25,-1.31,164.98,197.0,0.0,0.0,0.0,0.0
1776452616970229045,44422,0.0,0.3,0.0,1.6,0.02,0.02,28.69,-2.44,0.81,-0.19,0.06,-0.35,1.88,1.31,0.25,166.01,197.0,0.0,0.0,0.0,0.0
1776452617072619526,44523,0.092,0.7,0.076,0.2,0.04,-0.06,28.75,-2.56,1.0,-0.04,0.07,-0.37,1.31,0.88,1.0,164.98,222.0,0.0,0.0,0.0,0.0
1776452617170921265,44623,0.0,1.4,0.0,1.1,0.08,-0.1,28.87,-2.69,1.25,-0.15,0.03,-0.35,1.88,1.56,1.0,164.3,178.0,0.0,0.0,0.0,0.0
1776452617273275821,44723,0.088,0.3,0.0,1.0,0.14,-0.06,28.94,-2.81,1.56,-0.26,-0.0,-0.27,1.44,1.44,0.25,164.47,178.0,0.0,0.0,0.0,0.0
1776452617371557652,44823,0.0,1.0,0.056,0.3,0.12,-0.23,28.94,-2.88,1.63,0.0,0.04,-0.33,0.31,0.44,-0.75,168.58,189.0,0.0,0.0,0.0,0.0
1776452617469903593,44922,0.0,0.7,0.072,0.3,0.06,-0.02,28.81,-2.94,1.75,-0.07,0.04,-0.35,0.69,1.37,-1.37,168.58,202.0,0.0,0.0,0.0,0.0
1776452617572284611,45022,0.0,0.9,0.068,0.5,0.08,-0.08,28.75,-3.0,1.81,-0.18,0.04,-0.4,1.63,1.25,0.06,164.98,202.0,0.0,0.0,0.0,0.0
1776452617670601089,45123,0.0,0.8,0.072,0.2,0.12,-0.04,28.81,-3.13,2.0,-0.13,-0.02,-0.36,-0.31,0.37,1.5,164.98,197.0,0.0,0.0,0.0,0.0
1776452617772984774,45222,0.0,0.9,0.0,1.6,0.16,-0.16,28.94,-3.13,2.13,-0.11,-0.01,-0.33,-0.0,0.44,1.19,166.01,197.0,0.0,0.0,0.0,0.0
1776452617871285975,45323,0.088,0.3,0.0,1.5,0.0,0.0,29.06,-3.13,2.19,-0.25,-0.0,-0.34,0.37,0.69,0.88,169.1,202.0,0.0,0.0,0.0,0.0
1776452617973686437,45423,0.0,0.9,0.0,1.3,0.06,-0.16,29.12,-3.19,2.25,-0.14,-0.03,-0.36,0.63,0.25,0.44,169.1,213.0,0.0,0.0,0.0,0.0
1776452618071976841,45523,0.084,0.0,0.0,1.2,0.1,0.0,29.12,-3.19,2.19,0.16,0.01,-0.3,-0.5,-0.81,-0.19,164.98,213.0,0.0,0.0,0.0,0.0
1776452618174370339,45623,0.084,0.1,0.056,0.3,0.1,-0.04,29.12,-3.13,2.19,0.12,0.04,-0.34,-0.5,0.06,-0.63,164.98,207.0,0.0,0.0,0.0,0.0
1776452618272667077,45723,0.088,0.1,0.06,0.5,0.04,0.0,29.06,-3.13,1.94,0.36,0.07,-0.34,-0.88,-0.88,-1.0,164.98,183.0,0.0,0.0,0.0,0.0
1776452618370963406,45822,0.0,0.5,0.0,1.2,0.08,-0.04,28.94,-3.06,1.81,0.17,0.01,-0.33,-0.69,0.44,-1.37,164.98,183.0,0.0,0.0,0.0,0.0
1776452618473328053,45923,0.084,0.9,0.064,0.6,0.0,0.0,28.81,-3.06,1.75,0.01,0.1,-0.36,0.63,0.37,-1.25,164.98,193.0,0.0,0.0,0.0,0.0
1776452618571656734,46022,0.0,1.0,0.072,0.6,0.18,0.04,28.69,-3.19,1.88,-0.13,-0.11,-0.31,-0.12,1.19,-0.5,163.95,195.0,0.0,0.0,0.0,0.0
1776452618669938842,46121,0.0,0.7,0.068,0.3,0.04,-0.04,28.69,-3.19,1.88,-0.2,0.06,-0.4,1.81,0.5,-0.44,164.98,195.0,0.0,0.0,0.0,0.0
1776452618772345618,46221,0.084,0.1,0.068,1.2,0.08,0.0,28.69,-3.38,2.06,-0.22,-0.18,-0.34,-0.37,0.75,0.63,164.98,200.0,0.0,0.0,0.0,0.0
1776452618870644485,46321,0.088,0.0,0.064,0.5,0.04,-0.08,28.75,-3.38,2.0,-0.03,0.07,-0.35,0.37,-0.37,0.37,164.98,200.0,0.0,0.0,0.0,0.0
1776452618968933259,46420,0.0,0.6,0.0,1.6,-0.04,0.02,28.75,-3.38,2.0,0.03,-0.0,-0.35,-0.06,0.19,0.31,164.98,191.0,0.0,0.0,0.0,0.0
1776452619071338238,46521,0.088,-0.1,0.0,0.3,-0.02,-0.14,28.75,-3.38,2.0,-0.02,-0.0,-0.35,0.19,0.06,-0.31,164.98,176.0,0.0,0.0,0.0,0.0
1776452619169631641,46621,0.0,1.2,0.068,0.2,0.06,-0.08,28.75,-3.38,1.94,0.13,0.02,-0.32,-0.0,-0.31,-0.94,164.98,176.0,0.0,0.0,0.0,0.0
1776452619271989398,46721,0.0,1.2,0.072,0.3,0.08,-0.12,28.62,-3.38,1.88,0.13,0.08,-0.36,0.06,0.19,-1.5,164.98,206.0,0.0,0.0,0.0,0.0
1776452619370280264,46822,0.0,1.1,0.068,0.4,0.04,-0.06,28.5,-3.38,1.88,0.0,-0.0,-0.36,-0.06,0.37,-0.94,164.98,177.0,0.0,0.0,0.0,0.0
1776452619472722481,46922,0.0,0.9,0.064,0.2,0.14,0.06,28.44,-3.38,1.88,0.11,-0.0,-0.36,-0.37,-0.31,-0.88,164.98,177.0,0.0,0.0,0.0,0.0
1776452619575146829,47023,0.0,0.7,0.064,0.2,0.12,-0.1,28.37,-3.38,1.75,0.05,0.04,-0.36,0.25,0.5,-0.88,164.98,192.0,0.0,0.0,0.0,0.0
1776452619673411751,47124,0.0,0.2,0.0,1.5,-0.02,0.04,28.25,-3.38,1.75,0.06,-0.0,-0.35,0.06,0.19,-1.25,168.58,208.0,0.0,0.0,0.0,0.0
1776452619771711951,47223,0.088,0.6,0.064,0.2,-0.04,0.02,28.12,-3.38,1.69,0.14,-0.0,-0.34,-0.63,-0.12,-1.12,164.98,208.0,0.0,0.0,0.0,0.0
1776452619874076578,47323,0.0,1.4,0.076,0.3,0.02,-0.14,28.0,-3.38,1.63,0.04,-0.0,-0.35,-0.25,0.19,-1.0,164.98,205.0,0.0,0.0,0.0,0.0
1776452619982447851,47423,0.0,1.3,0.064,0.3,0.1,-0.04,28.0,-3.38,1.63,-0.07,0.05,-0.35,0.69,0.5,0.0,166.18,205.0,0.0,0.0,0.0,0.0
1776452620074793328,47524,0.0,0.0,0.0,1.2,0.04,0.0,28.0,-3.44,1.56,0.2,-0.08,-0.35,-2.38,-0.75,-0.37,164.98,166.0,0.0,0.0,0.0,0.0
1776452620173088397,47624,0.088,0.9,0.056,0.3,0.31,0.06,27.87,-3.38,1.5,0.04,0.02,-0.37,0.44,0.12,-1.75,164.98,196.0,0.0,0.0,0.0,0.0
1776452620275450690,47724,0.0,0.9,0.052,0.2,0.08,0.08,27.75,-3.38,1.44,0.03,-0.0,-0.33,-0.0,0.06,-1.25,164.98,196.0,0.0,0.0,0.0,0.0
1776452620373731796,47823,0.0,0.7,0.072,0.5,0.0,-0.16,27.69,-3.38,1.44,-0.04,-0.0,-0.33,-0.06,0.12,0.12,160.87,211.0,0.0,0.0,0.0,0.0
1776452620476132754,47923,0.0,0.2,0.0,1.4,0.04,-0.12,27.69,-3.38,1.31,0.3,0.07,-0.39,-0.56,-0.69,0.81,160.87,196.0,0.0,0.0,0.0,0.0
1776452620574473358,48023,0.0,1.1,0.0,0.5,0.1,-0.16,27.81,-3.38,1.37,-0.12,-0.01,-0.32,0.06,0.63,2.63,160.87,196.0,0.0,0.0,0.0,0.0
1776452620672765501,48122,0.0,0.1,0.0,1.5,0.12,0.08,28.25,-3.38,1.37,0.07,-0.05,-0.39,-0.88,-0.44,4.75,160.7,198.0,0.0,0.0,0.0,0.0
1776452620771028219,48222,0.088,0.0,0.0,1.6,0.14,-0.1,28.69,-3.38,1.44,-0.12,-0.03,-0.34,0.12,-0.0,4.44,161.38,212.0,0.0,0.0,0.0,0.0
1776452620873450436,48322,0.084,0.0,0.0,1.7,-0.1,-0.1,29.06,-3.38,1.37,0.03,-0.0,-0.39,0.75,-0.56,4.06,161.38,212.0,0.0,0.0,0.0,0.0
1776452620971753819,48421,0.092,0.2,0.064,0.4,-0.06,-0.06,29.44,-3.31,1.44,-0.08,-0.01,-0.37,0.25,-0.75,3.38,165.5,202.0,0.0,0.0,0.0,0.0
1776452621074142203,48521,0.0,1.0,0.0,1.4,0.06,0.02,29.75,-3.31,1.44,0.07,-0.04,-0.35,-0.94,-0.94,2.38,165.5,202.0,0.0,0.0,0.0,0.0
1776452621172450696,48621,0.088,0.1,0.068,0.4,0.1,-0.14,29.87,-3.19,1.44,-0.03,-0.03,-0.32,1.06,-1.06,1.19,161.38,195.0,0.0,0.0,0.0,0.0
1776452621270700913,48720,0.096,0.2,0.0,1.3,0.08,0.06,30.0,-3.06,1.5,-0.02,-0.03,-0.37,1.0,-0.81,0.69,161.38,179.0,0.0,0.0,0.0,0.0
1776452621373134277,48820,0.08,0.1,0.0,1.3,0.02,0.04,30.06,-3.0,1.56,0.11,-0.0,-0.31,-1.0,-1.19,0.69,161.38,179.0,0.0,0.0,0.0,0.0
1776452621471432270,48920,0.096,0.3,0.0,1.7,-0.06,-0.2,30.06,-2.88,1.44,0.18,-0.02,-0.4,1.69,-1.06,0.69,165.67,198.0,0.0,0.0,0.0,0.0
1776452621569729967,49019,0.088,0.2,0.0,0.5,0.08,-0.06,30.19,-2.75,1.56,0.17,0.03,-0.32,0.44,-1.25,1.25,161.38,199.0,0.0,0.0,0.0,0.0
1776452621672126313,49119,0.0,1.3,0.068,0.3,0.14,-0.1,30.31,-2.63,1.69,-0.17,-0.03,-0.31,4.63,-1.12,1.88,161.38,199.0,0.0,0.0,0.0,0.0
1776452621770414752,49219,0.0,0.3,0.0,1.3,0.14,0.08,30.44,-2.5,2.0,-0.14,0.01,-0.37,2.5,-1.19,0.81,165.67,185.0,0.0,0.0,0.0,0.0
1776452621868704893,49318,0.084,0.1,0.0,1.2,0.06,-0.04,30.44,-2.44,2.31,-0.2,-0.04,-0.35,0.25,-0.94,-0.63,161.55,204.0,0.0,0.0,0.0,0.0
1776452621971114776,49419,0.08,0.0,0.0,1.1,0.0,-0.18,30.37,-2.38,2.5,-0.15,-0.02,-0.42,1.25,-0.56,-0.94,161.38,204.0,0.0,0.0,0.0,0.0
1776452622069431361,49519,0.084,0.2,0.052,0.2,0.04,-0.04,30.31,-2.38,2.56,0.01,-0.02,-0.36,-0.44,-0.75,-0.94,161.38,190.0,0.0,0.0,0.0,0.0
1776452622171814096,49619,0.0,1.1,0.068,0.1,0.06,-0.14,30.19,-2.38,2.63,0.2,-0.0,-0.31,-2.0,-0.88,-0.81,160.35,204.0,0.0,0.0,0.0,0.0
1776452622274184479,49720,0.0,1.0,0.068,0.4,0.04,0.1,30.12,-2.31,2.5,0.16,0.02,-0.39,2.25,-0.56,-0.63,161.38,204.0,0.0,0.0,0.0,0.0
1776452622372460287,49820,0.0,0.9,0.064,0.3,0.02,0.06,30.06,-2.31,2.63,-0.02,-0.0,-0.37,0.19,-0.69,-0.56,165.5,194.0,0.0,0.0,0.0,0.0
1776452622474850391,49921,0.0,0.2,0.0,1.7,-0.04,-0.04,30.0,-2.25,2.75,-0.16,-0.01,-0.32,0.81,-0.31,-0.75,162.07,194.0,0.0,0.0,0.0,0.0
1776452622573182920,50022,0.0,1.3,0.056,0.2,-0.12,0.1,29.94,-2.25,2.88,-0.11,-0.04,-0.23,-0.94,-0.63,-0.81,162.07,191.0,0.0,0.0,0.0,0.0
1776452622671489671,50121,0.0,0.0,0.0,1.0,0.08,0.06,29.81,-2.19,2.75,0.11,0.08,-0.41,2.5,-0.56,-1.69,161.9,190.0,0.0,0.0,0.0,0.0
1776452622773883442,50222,0.08,0.1,0.0,1.2,0.0,-0.1,29.62,-2.19,2.88,0.07,-0.03,-0.35,-0.56,-0.37,-2.38,166.18,190.0,0.0,0.0,0.0,0.0
1776452622876270769,50322,0.0,0.7,0.0,1.4,-0.02,0.0,29.44,-2.19,2.81,0.12,0.06,-0.35,0.12,-0.06,-1.88,162.07,198.0,0.0,0.0,0.0,0.0
1776452622974572169,50422,0.0,1.1,0.0,1.2,0.06,-0.08,29.25,-2.19,2.94,-0.12,0.04,-0.35,1.19,0.69,-1.19,166.18,179.0,0.0,0.0,0.0,0.0
1776452623076956069,50523,0.088,0.2,0.0,1.0,0.04,0.02,29.19,-2.25,3.0,0.0,-0.04,-0.36,-0.69,-0.06,-0.88,166.18,179.0,0.0,0.0,0.0,0.0
1776452623175270097,50623,0.0,0.6,0.0,1.4,0.18,-0.08,29.06,-2.25,2.94,-0.02,0.01,-0.3,-0.06,-0.0,-1.69,161.9,198.0,0.0,0.0,0.0,0.0
1776452623273531645,50722,0.084,0.3,0.0,1.5,0.18,-0.02,28.87,-2.31,3.0,-0.03,0.02,-0.33,0.56,0.31,-1.63,162.07,205.0,0.0,0.0,0.0,0.0
1776452623375914175,50822,0.088,0.0,0.068,0.1,0.14,0.0,28.75,-2.31,3.0,0.03,-0.0,-0.37,0.25,0.25,-1.25,166.87,205.0,0.0,0.0,0.0,0.0
1776452623474247813,50922,0.0,1.4,0.0,1.1,-0.08,-0.12,28.62,-2.31,3.0,0.0,-0.03,-0.39,0.06,0.44,-0.94,166.87,194.0,0.0,0.0,0.0,0.0
1776452623572598840,51021,0.0,0.9,0.0,1.6,-0.04,-0.04,28.62,-2.31,3.0,-0.02,-0.0,-0.33,-0.06,0.06,-0.31,166.87,194.0,0.0,0.0,0.0,0.0
1776452623674930853,51121,0.084,0.2,0.0,1.3,0.14,-0.04,28.62,-2.31,3.0,-0.05,-0.04,-0.32,0.06,0.44,-0.44,166.7,202.0,0.0,0.0,0.0,0.0
1776452623773232714,51221,0.092,0.2,0.0,1.6,0.1,-0.02,28.62,-2.31,2.94,0.23,-0.04,-0.33,-0.88,-0.44,-0.31,162.07,202.0,0.0,0.0,0.0,0.0
1776452623871514687,51320,0.088,0.1,0.0,1.6,0.14,-0.14,28.62,-2.31,2.81,0.1,0.03,-0.31,0.31,0.56,0.0,162.07,202.0,0.0,0.0,0.0,0.0
1776452623973920531,51421,0.0,1.2,0.0,0.3,-0.08,-0.04,28.69,-2.31,2.63,0.26,0.03,-0.37,0.69,0.31,1.37,162.07,205.0,0.0,0.0,0.0,0.0
1776452624072181060,51521,0.0,0.7,0.056,0.1,0.02,0.0,28.75,-2.44,2.75,-0.17,-0.02,-0.31,0.94,1.88,1.19,162.58,187.0,0.0,0.0,0.0,0.0
1776452624174671123,51621,0.0,0.7,0.052,0.2,0.08,-0.1,28.94,-2.56,2.69,0.35,-0.03,-0.38,-1.5,-0.25,1.88,162.07,187.0,0.0,0.0,0.0,0.0
1776452624277016115,51721,0.0,0.9,0.068,0.0,0.0,-0.14,29.06,-2.56,2.75,-0.09,0.02,-0.36,2.38,1.69,1.0,166.18,180.0,0.0,0.0,0.0,0.0
1776452624375258107,51822,0.0,1.0,0.0,1.7,0.12,-0.06,29.19,-2.75,2.88,-0.11,-0.07,-0.39,0.06,0.75,1.31,166.18,201.0,0.0,0.0,0.0,0.0
1776452624473567245,51921,0.088,0.9,0.064,0.4,0.12,-0.14,29.25,-2.75,2.94,-0.09,-0.06,-0.39,-0.06,0.06,0.5,161.38,201.0,0.0,0.0,0.0,0.0
1776452624575997273,52021,0.0,1.4,0.0,0.2,0.12,-0.04,29.25,-2.75,3.0,0.01,-0.01,-0.35,-0.88,0.06,0.12,162.07,183.0,0.0,0.0,0.0,0.0
1776452624674294744,52121,0.0,0.7,0.064,0.4,0.0,0.0,29.25,-2.75,3.0,-0.07,-0.0,-0.35,0.75,0.37,-0.19,161.38,183.0,0.0,0.0,0.0,0.0
1776452624772595549,52220,0.0,0.0,0.0,1.5,0.12,0.02,29.25,-2.75,3.0,0.11,-0.05,-0.39,-0.94,-0.12,-0.5,161.38,204.0,0.0,0.0,0.0,0.0
1776452624874989467,52320,0.088,0.1,0.076,0.3,0.02,-0.02,29.25,-2.75,3.0,-0.04,-0.0,-0.32,1.0,0.25,-0.63,161.38,204.0,0.0,0.0,0.0,0.0
1776452624973278476,52420,0.0,1.3,0.0,1.2,0.08,0.04,29.19,-2.81,2.94,0.13,-0.03,-0.38,-0.25,-0.25,-0.69,161.38,204.0,0.0,0.0,0.0,0.0
1776452625075689225,52520,0.088,0.3,0.056,0.4,0.02,-0.08,29.12,-2.81,3.0,-0.01,0.01,-0.37,0.19,0.44,-0.63,161.38,195.0,0.0,0.0,0.0,0.0
1776452625173964308,52620,0.0,0.9,0.072,0.1,0.06,-0.2,29.06,-2.81,3.0,0.05,-0.04,-0.39,-0.56,-0.12,-0.44,161.38,200.0,0.0,0.0,0.0,0.0
1776452625272268315,52720,0.0,0.1,0.0,1.3,-0.02,0.02,29.06,-2.81,2.94,0.06,-0.01,-0.39,0.12,-0.19,-0.63,165.67,200.0,0.0,0.0,0.0,0.0
1776452625374640362,52819,0.088,0.3,0.064,0.5,0.08,0.02,29.0,-2.81,3.0,-0.02,-0.05,-0.34,-0.19,-0.19,-0.81,165.5,204.0,0.0,0.0,0.0,0.0
1776452625472963017,52919,0.0,1.3,0.064,0.6,0.1,0.0,28.87,-2.81,2.94,-0.05,-0.02,-0.38,0.37,-0.19,-0.69,161.38,194.0,0.0,0.0,0.0,0.0
1776452625571218211,53019,0.0,1.3,0.0,1.2,0.1,-0.08,28.81,-2.81,2.94,0.1,0.01,-0.39,-0.75,-0.25,-0.69,162.07,194.0,0.0,0.0,0.0,0.0
1776452625673648719,53118,0.088,0.2,0.048,0.6,0.04,-0.1,28.81,-2.81,2.94,-0.01,-0.0,-0.33,-0.19,-0.19,-0.19,161.9,178.0,0.0,0.0,0.0,0.0
1776452625771957763,53218,0.0,0.8,0.06,0.4,0.0,-0.08,28.81,-2.81,2.94,-0.02,-0.03,-0.34,-0.19,-0.19,-0.56,162.07,178.0,0.0,0.0,0.0,0.0
1776452625874355216,53319,0.092,0.0,0.0,1.7,0.02,-0.1,28.81,-2.81,2.88,0.12,0.02,-0.39,-0.56,-0.5,-0.5,162.07,196.0,0.0,0.0,0.0,0.0
1776452625972632502,53419,0.084,1.1,0.06,0.3,0.16,-0.08,28.75,-2.81,2.88,0.13,0.01,-0.38,-0.37,-0.63,-1.12,161.9,205.0,0.0,0.0,0.0,0.0
1776452626075036140,53519,0.0,1.5,0.056,0.7,0.0,0.06,28.62,-2.75,2.88,0.16,0.05,-0.37,-0.31,-0.75,-1.19,162.07,205.0,0.0,0.0,0.0,0.0
1776452626173331128,53619,0.0,1.4,0.0,1.1,-0.08,-0.2,28.5,-2.75,2.88,0.05,0.02,-0.38,0.31,-0.25,-1.0,166.18,205.0,0.0,0.0,0.0,0.0
1776452626275734339,53719,0.0,-0.1,0.0,1.7,0.06,-0.02,28.5,-2.75,3.0,-0.24,-0.0,-0.38,1.75,-0.06,-0.19,166.18,201.0,0.0,0.0,0.0,0.0
1776452626373999662,53820,0.0,1.1,0.0,1.2,0.08,0.08,28.5,-2.75,3.13,-0.05,-0.03,-0.38,-0.25,-0.25,-0.44,166.18,201.0,0.0,0.0,0.0,0.0
1776452626476410187,53920,0.0,0.3,0.0,1.2,0.2,-0.08,28.5,-2.81,3.19,-0.12,-0.0,-0.38,0.63,-0.5,-0.63,163.1,205.0,0.0,0.0,0.0,0.0
1776452626574710435,54021,0.0,1.1,0.052,0.3,0.08,-0.14,28.37,-2.81,3.25,0.04,0.02,-0.36,0.12,-0.5,-1.31,166.18,194.0,0.0,0.0,0.0,0.0
1776452626677105591,54121,0.0,0.2,0.0,1.3,0.02,-0.1,28.25,-2.81,3.25,0.1,0.02,-0.36,-0.75,-0.44,-1.75,163.1,194.0,0.0,0.0,0.0,0.0
1776452626775398523,54222,0.08,0.1,0.0,1.2,-0.02,0.0,28.06,-2.75,3.19,0.1,0.03,-0.36,0.25,-0.69,-2.0,161.9,205.0,0.0,0.0,0.0,0.0
1776452626877795624,54322,0.0,0.9,0.0,0.7,0.06,0.08,27.87,-2.75,3.13,0.22,0.06,-0.37,-0.12,-0.44,-1.63,162.07,205.0,0.0,0.0,0.0,0.0
1776452626976082483,54423,0.0,1.3,0.064,0.4,0.0,-0.16,27.69,-2.75,3.13,0.15,0.04,-0.37,0.37,-0.56,-1.37,161.9,192.0,0.0,0.0,0.0,0.0
1776452627078482878,54522,0.0,0.0,0.072,0.3,0.25,-0.12,27.62,-2.63,3.06,0.12,0.1,-0.38,0.69,-0.81,-1.25,162.07,199.0,0.0,0.0,0.0,0.0
1776452627176736645,54623,0.0,1.0,0.072,0.3,0.14,-0.06,27.5,-2.63,3.19,-0.11,0.03,-0.36,1.63,-0.37,-1.0,161.9,199.0,0.0,0.0,0.0,0.0
1776452627279162502,54723,0.0,0.9,0.0,0.3,0.0,-0.04,27.37,-2.63,3.25,-0.02,0.01,-0.36,-0.12,-0.37,-0.75,161.9,204.0,0.0,0.0,0.0,0.0
1776452627377439453,54823,0.0,1.1,0.056,0.1,0.08,-0.02,27.37,-2.63,3.25,-0.08,0.02,-0.33,1.31,-0.12,-0.69,165.5,201.0,0.0,0.0,0.0,0.0
1776452627479866329,54923,0.0,1.2,0.072,0.6,0.14,-0.14,27.25,-2.63,3.31,-0.05,0.03,-0.34,-0.06,-0.37,-1.0,165.5,201.0,0.0,0.0,0.0,0.0
1776452627578161872,55023,0.0,1.3,0.072,0.4,0.08,-0.06,27.19,-2.63,3.31,0.03,0.02,-0.38,-0.63,-0.31,-1.19,161.38,187.0,0.0,0.0,0.0,0.0
1776452627680571711,55123,0.0,0.4,0.0,1.4,-0.08,-0.1,27.06,-2.63,3.31,-0.03,0.07,-0.41,0.06,-0.25,-0.88,162.41,198.0,0.0,0.0,0.0,0.0
1776452627778828126,55224,0.08,0.3,0.0,0.7,0.14,-0.06,27.06,-2.63,3.38,-0.1,0.07,-0.34,-0.37,-0.56,0.19,161.38,198.0,0.0,0.0,0.0,0.0
1776452627881264002,55325,0.0,-0.1,0.0,1.6,0.08,0.02,27.06,-2.63,3.31,0.03,0.07,-0.33,0.63,-0.19,0.19,169.61,186.0,0.0,0.0,0.0,0.0
1776452627979551656,55425,0.088,0.3,0.0,1.5,-0.02,-0.06,27.06,-2.63,3.31,0.07,0.09,-0.36,0.12,-0.31,0.31,165.5,186.0,0.0,0.0,0.0,0.0
1776452628081947310,55525,0.0,1.3,0.0,1.1,-0.02,0.02,27.06,-2.63,3.31,0.12,0.06,-0.39,-1.0,-0.44,0.19,161.38,198.0,0.0,0.0,0.0,0.0
1776452628180256259,55625,0.084,0.3,0.068,0.3,0.06,-0.2,27.06,-2.63,3.25,-0.06,0.1,-0.38,0.31,-0.0,-0.12,164.98,195.0,0.0,0.0,0.0,0.0
1776452628282638376,55726,0.0,0.6,0.0,1.3,-0.06,-0.1,27.06,-2.63,3.25,-0.08,0.03,-0.34,-0.69,-0.0,-0.06,164.98,195.0,0.0,0.0,0.0,0.0
1776452628380899770,55826,0.084,0.4,0.0,1.5,0.18,-0.2,27.06,-2.63,3.19,0.07,0.03,-0.4,-0.94,-0.56,-0.12,164.98,198.0,0.0,0.0,0.0,0.0
1776452628483326386,55926,0.088,0.1,0.0,1.3,0.21,0.12,27.06,-2.63,3.19,0.18,0.04,-0.39,-0.63,-0.31,0.25,164.98,183.0,0.0,0.0,0.0,0.0
1776452628581623150,56026,0.088,1.0,0.072,0.5,-0.04,-0.06,27.12,-2.56,3.0,0.5,0.09,-0.39,-2.19,-0.69,1.81,161.38,183.0,0.0,0.0,0.0,0.0
1776452628684034081,56126,0.0,1.3,0.072,0.4,0.04,-0.02,27.31,-2.5,2.81,-0.22,0.05,-0.32,1.12,0.56,1.44,164.98,204.0,0.0,0.0,0.0,0.0
1776452628782315605,56226,0.0,1.1,0.052,0.5,0.02,-0.16,27.5,-2.44,2.63,0.39,0.07,-0.36,-2.38,-1.19,2.75,161.38,201.0,0.0,0.0,0.0,0.0
1776452628890657479,56326,0.0,1.2,0.0,1.3,0.0,-0.04,27.75,-2.38,2.44,0.0,0.1,-0.35,0.31,0.19,2.13,165.67,201.0,0.0,0.0,0.0,0.0
1776452628983006782,56426,0.0,1.0,0.0,1.5,0.08,-0.04,27.87,-2.31,2.38,0.07,0.05,-0.3,-1.69,-0.69,1.63,161.38,202.0,0.0,0.0,0.0,0.0
1776452629081303379,56525,0.0,0.3,0.0,1.2,0.1,-0.1,28.0,-2.31,2.31,-0.12,0.03,-0.33,-0.69,-0.12,0.69,161.38,168.0,0.0,0.0,0.0,0.0
1776452629183713457,56626,0.084,0.3,0.0,0.6,0.0,0.0,28.12,-2.25,2.19,-0.15,0.04,-0.33,-0.63,-0.63,1.19,165.5,168.0,0.0,0.0,0.0,0.0
1776452629281956740,56726,0.0,0.7,0.048,0.5,0.02,-0.04,28.25,-2.25,2.25,-0.14,0.04,-0.34,-1.5,-0.12,1.69,162.07,208.0,0.0,0.0,0.0,0.0
1776452629384355541,56826,0.0,0.2,0.0,1.4,0.02,-0.06,28.44,-2.19,2.13,0.0,0.05,-0.33,-1.0,-0.19,2.31,166.18,208.0,0.0,0.0,0.0,0.0
1776452629482680229,56926,0.0,1.3,0.0,1.1,0.1,-0.04,28.62,-2.19,2.06,0.03,-0.0,-0.34,-1.81,-0.37,1.31,161.9,213.0,0.0,0.0,0.0,0.0
1776452629580993158,57026,0.0,0.4,0.0,1.6,0.12,-0.1,28.75,-2.13,1.88,0.13,0.08,-0.38,-0.37,-0.37,0.75,166.7,177.0,0.0,0.0,0.0,0.0
1776452629683379256,57125,0.088,0.3,0.0,1.5,-0.02,-0.02,28.75,-2.13,1.94,-0.29,0.02,-0.37,-0.06,0.5,-0.12,166.7,177.0,0.0,0.0,0.0,0.0
1776452629781654019,57226,0.096,0.1,0.0,1.7,0.06,-0.02,28.75,-2.13,2.0,0.0,0.04,-0.39,-1.69,-0.31,0.63,166.87,188.0,0.0,0.0,0.0,0.0
1776452629884076912,57326,0.092,0.3,0.072,0.6,0.16,-0.02,28.75,-2.13,2.0,-0.29,0.08,-0.37,1.0,1.06,0.31,166.7,207.0,0.0,0.0,0.0,0.0
1776452629982353935,57425,0.0,1.2,0.06,0.4,0.04,0.02,28.81,-2.19,2.19,-0.19,-0.02,-0.4,-0.56,0.25,0.94,166.7,207.0,0.0,0.0,0.0,0.0
1776452630084764623,57525,0.0,0.8,0.06,0.1,-0.02,0.04,28.87,-2.19,2.25,0.0,0.01,-0.34,-0.81,-0.12,0.12,166.87,187.0,0.0,0.0,0.0,0.0
1776452630183071737,57626,0.0,0.9,0.0,0.3,0.12,-0.06,28.87,-2.19,2.19,0.03,0.03,-0.29,-0.88,-0.37,-0.56,166.87,195.0,0.0,0.0,0.0,0.0
1776452630281385905,57725,0.0,1.3,0.076,0.5,0.1,-0.02,28.75,-2.19,2.0,0.34,0.03,-0.37,-1.25,-0.81,-1.5,166.18,195.0,0.0,0.0,0.0,0.0
1776452630383705708,57825,0.0,1.1,0.0,1.1,-0.02,-0.16,28.56,-2.13,1.88,0.25,-0.0,-0.28,-1.56,-0.25,-2.19,162.07,203.0,0.0,0.0,0.0,0.0
1776452630482029710,57926,0.0,0.1,0.08,0.4,0.02,-0.12,28.37,-2.06,1.44,0.24,0.14,-0.35,0.63,-0.19,-1.69,161.9,203.0,0.0,0.0,0.0,0.0
1776452630584451046,58025,0.028,0.3,0.0,0.1,-0.1,-0.14,28.31,-2.06,1.44,-0.09,0.03,-0.38,0.37,0.25,-0.31,161.9,190.0,0.0,0.0,0.0,0.0
1776452630682734919,58126,0.0,0.7,0.0,0.5,0.12,-0.08,28.31,-2.06,1.5,0.01,-0.07,-0.36,-2.06,-0.25,0.63,165.5,195.0,0.0,0.0,0.0,0.0
1776452630785126145,58226,0.088,0.4,0.0,1.4,0.14,-0.14,28.37,-2.0,1.44,0.02,0.07,-0.38,0.25,0.19,0.31,161.38,195.0,0.0,0.0,0.0,0.0
1776452630883426870,58327,0.088,0.1,0.0,0.5,0.2,-0.16,28.37,-2.06,1.44,-0.01,0.05,-0.34,0.19,0.63,0.31,161.38,207.0,0.0,0.0,0.0,0.0
1776452630985815781,58427,0.0,0.2,0.0,1.7,-0.08,-0.1,28.37,-2.13,1.37,0.03,-0.04,-0.31,-1.44,-0.0,0.37,161.38,187.0,0.0,0.0,0.0,0.0
1776452631084123172,58527,0.0,1.5,0.0,1.3,0.04,-0.12,28.37,-2.19,1.44,-0.21,-0.07,-0.34,0.19,1.37,-0.63,164.98,187.0,0.0,0.0,0.0,0.0
1776452631186526600,58627,0.08,0.1,0.064,0.3,0.16,0.0,28.37,-2.25,1.5,-0.25,-0.0,-0.41,0.63,0.5,-0.31,160.87,196.0,0.0,0.0,0.0,0.0
1776452631284783955,58728,0.0,0.2,0.068,0.3,0.14,-0.1,28.37,-2.25,1.5,-0.11,-0.07,-0.39,-0.44,0.44,0.0,164.98,219.0,0.0,0.0,0.0,0.0
1776452631383028643,58827,0.0,1.2,0.068,0.3,0.04,-0.14,28.44,-2.25,1.37,0.25,0.03,-0.32,-1.63,0.31,1.31,161.38,219.0,0.0,0.0,0.0,0.0
1776452631485512273,58927,0.0,1.3,0.064,0.3,0.04,-0.14,28.56,-2.25,1.44,-0.25,0.02,-0.31,1.5,0.69,2.19,161.38,183.0,0.0,0.0,0.0,0.0
1776452631583781960,59027,0.0,1.2,0.06,0.5,0.02,-0.18,28.87,-2.31,1.5,0.06,-0.0,-0.34,-2.38,-0.56,3.38,165.5,191.0,0.0,0.0,0.0,0.0
1776452631686191722,59127,0.0,1.1,0.072,0.3,0.02,-0.08,29.19,-2.31,1.31,0.11,0.03,-0.32,-0.63,-0.06,3.5,162.07,191.0,0.0,0.0,0.0,0.0
1776452631784532833,59227,0.0,0.6,0.0,1.5,0.1,-0.16,29.5,-2.31,1.31,0.01,-0.01,-0.34,-0.63,0.06,2.81,161.9,197.0,0.0,0.0,0.0,0.0
1776452631886879411,59327,0.096,0.1,0.068,0.5,-0.04,-0.04,29.75,-2.25,1.25,0.04,-0.01,-0.33,-1.5,-0.69,2.13,166.18,197.0,0.0,0.0,0.0,0.0
1776452631985185320,59428,0.0,1.2,0.0,1.1,-0.14,0.0,29.94,-2.19,1.19,0.08,-0.04,-0.33,-1.37,-1.19,0.94,166.7,191.0,0.0,0.0,0.0,0.0
1776452632087570915,59528,0.0,0.7,0.064,0.3,0.1,-0.1,29.94,-2.06,1.19,-0.08,-0.04,-0.3,0.44,-1.44,0.19,166.7,200.0,0.0,0.0,0.0,0.0
1776452632185884008,59628,0.0,0.9,0.056,0.5,0.04,-0.2,29.87,-1.94,1.0,0.29,-0.0,-0.37,-0.25,-1.37,-1.0,166.87,200.0,0.0,0.0,0.0,0.0
1776452632284083623,59727,0.0,0.9,0.0,1.6,-0.02,-0.02,29.81,-1.81,1.06,-0.03,0.01,-0.31,1.0,-1.5,-0.81,170.99,192.0,0.0,0.0,0.0,0.0
1776452632386569362,59827,0.092,0.1,0.068,0.2,0.21,-0.08,29.75,-1.75,1.06,0.0,0.02,-0.35,0.44,-0.69,-0.5,171.5,208.0,0.0,0.0,0.0,0.0
1776452632484860715,59927,0.0,0.2,0.0,1.1,0.2,-0.04,29.69,-1.63,1.06,0.07,-0.02,-0.33,0.12,-0.81,-1.37,166.7,208.0,0.0,0.0,0.0,0.0
1776452632587224718,60027,0.088,0.3,0.0,1.3,0.06,-0.12,29.44,-1.63,1.12,0.11,-0.0,-0.4,1.44,-0.56,-3.19,166.7,195.0,0.0,0.0,0.0,0.0
1776452632685536014,60127,0.088,-0.1,0.0,1.2,-0.06,-0.2,29.06,-1.56,1.12,0.35,-0.04,-0.37,-1.5,-1.0,-4.19,166.7,195.0,0.0,0.0,0.0,0.0
1776452632793895717,60227,0.088,0.2,0.0,1.0,0.04,-0.02,28.62,-1.56,1.31,0.01,-0.0,-0.32,5.25,0.69,-4.88,166.18,195.0,0.0,0.0,0.0,0.0
1776452632886236202,60326,0.0,1.1,0.076,0.3,0.0,-0.02,28.19,-1.69,1.63,-0.04,0.01,-0.32,2.5,1.12,-3.56,166.18,195.0,0.0,0.0,0.0,0.0
1776452632988685849,60427,0.0,0.6,0.064,0.1,0.0,-0.06,28.0,-1.81,1.81,0.03,0.01,-0.31,1.75,1.56,-1.06,166.18,195.0,0.0,0.0,0.0,0.0
1776452633086934481,60527,0.096,0.0,0.0,1.5,0.04,0.02,28.0,-1.94,1.94,0.0,0.06,-0.4,2.63,1.56,0.81,165.67,182.0,0.0,0.0,0.0,0.0
1776452633185210629,60627,0.088,0.2,0.0,1.2,0.06,-0.02,28.06,-2.13,2.31,-0.29,-0.02,-0.33,2.19,2.69,0.75,165.5,203.0,0.0,0.0,0.0,0.0
1776452633287573020,60727,0.084,0.3,0.0,1.1,0.1,-0.02,28.12,-2.31,2.44,-0.05,-0.02,-0.37,0.19,0.75,0.25,165.5,203.0,0.0,0.0,0.0,0.0
1776452633385913352,60828,0.088,0.3,0.064,0.3,0.06,-0.08,28.06,-2.44,2.56,-0.05,-0.09,-0.33,-0.88,0.75,-1.63,165.5,191.0,0.0,0.0,0.0,0.0
1776452633488316519,60928,0.0,0.0,0.0,1.4,0.08,-0.08,27.94,-2.44,2.56,0.01,-0.0,-0.33,0.12,0.25,-0.81,161.38,187.0,0.0,0.0,0.0,0.0
1776452633590737166,61029,0.092,0.3,0.0,1.4,-0.08,-0.14,27.94,-2.44,2.44,0.39,-0.0,-0.36,-2.19,-0.94,-0.12,165.5,187.0,0.0,0.0,0.0,0.0
1776452633689009426,61129,0.088,0.5,0.0,1.1,0.06,-0.18,27.94,-2.44,2.38,-0.1,-0.0,-0.34,0.5,1.25,-0.06,165.5,191.0,0.0,0.0,0.0,0.0
1776452633791402871,61229,0.088,0.2,0.068,0.5,0.18,-0.08,27.94,-2.56,2.38,-0.03,-0.07,-0.33,-1.0,0.12,0.25,165.5,203.0,0.0,0.0,0.0,0.0
1776452633889679650,61330,0.084,0.2,0.0,1.1,0.1,0.0,27.94,-2.56,2.31,0.06,-0.01,-0.34,-0.37,-0.25,-0.25,165.67,203.0,0.0,0.0,0.0,0.0
1776452633998054314,61430,0.088,0.1,0.072,0.1,0.04,-0.12,27.94,-2.56,2.31,-0.06,0.01,-0.35,-0.5,-0.31,0.63,165.67,202.0,0.0,0.0,0.0,0.0
1776452634090376723,61530,0.0,0.3,0.0,1.5,-0.02,0.02,28.12,-2.5,2.25,0.18,-0.02,-0.26,-3.31,-0.94,2.44,161.38,202.0,0.0,0.0,0.0,0.0
1776452634188689555,61630,0.092,0.3,0.0,1.5,0.02,-0.2,28.44,-2.44,2.06,-0.04,-0.0,-0.39,2.19,-0.19,3.75,164.98,191.0,0.0,0.0,0.0,0.0
1776452634286967295,61729,0.088,0.2,0.0,0.3,0.08,-0.06,28.75,-2.38,2.25,-0.3,-0.01,-0.35,-1.37,-0.88,3.19,165.67,188.0,0.0,0.0,0.0,0.0
1776452634389324407,61829,0.0,0.1,0.0,0.1,0.04,-0.04,29.12,-2.31,2.13,0.15,-0.0,-0.37,-1.56,-0.63,4.13,162.41,188.0,0.0,0.0,0.0,0.0
1776452634497713162,61930,0.0,0.3,0.0,1.4,0.06,0.02,29.5,-2.25,2.06,0.06,0.02,-0.35,-0.0,-0.88,3.0,161.38,197.0,0.0,0.0,0.0,0.0
1776452634590067107,62029,0.084,0.2,0.0,1.6,0.02,-0.08,29.75,-2.19,2.06,-0.06,0.01,-0.35,0.19,-0.69,2.63,161.38,190.0,0.0,0.0,0.0,0.0
1776452634692452644,62130,0.084,1.2,0.076,0.1,0.21,-0.1,30.0,-2.13,2.13,-0.14,0.01,-0.29,-0.5,-0.88,2.75,161.38,190.0,0.0,0.0,0.0,0.0
1776452634790753847,62230,0.0,1.5,0.056,0.5,0.0,-0.04,30.31,-2.0,2.06,0.11,0.02,-0.34,-0.37,-0.63,3.38,161.38,189.0,0.0,0.0,0.0,0.0
1776452634889053660,62329,0.0,1.6,0.068,0.3,0.14,-0.14,30.62,-2.0,2.06,-0.08,0.01,-0.31,0.44,-0.75,2.75,161.38,194.0,0.0,0.0,0.0,0.0
1776452634991443141,62430,0.0,1.3,0.06,0.4,0.04,0.14,30.81,-1.94,2.13,-0.1,0.01,-0.35,0.25,-0.37,1.88,161.38,194.0,0.0,0.0,0.0,0.0
1776452635089745065,62530,0.0,0.2,0.06,0.3,0.06,-0.1,30.94,-1.94,2.13,0.1,0.04,-0.36,-0.69,-0.44,1.0,161.38,222.0,0.0,0.0,0.0,0.0
1776452635192101417,62630,0.0,0.9,0.064,0.2,0.12,0.02,31.0,-1.94,2.19,-0.08,-0.02,-0.41,1.19,0.12,0.31,161.38,222.0,0.0,0.0,0.0,0.0
1776452635290395656,62730,0.0,0.8,0.0,1.4,0.23,-0.04,31.0,-1.94,2.25,-0.08,0.01,-0.33,-0.56,-0.31,0.12,161.38,205.0,0.0,0.0,0.0,0.0
1776452635388651636,62830,0.096,0.1,0.0,1.4,0.14,0.0,31.0,-1.94,2.31,-0.1,-0.01,-0.36,0.88,-0.19,0.37,164.98,192.0,0.0,0.0,0.0,0.0
1776452635491123336,62929,0.088,0.3,0.0,0.4,0.14,0.04,31.0,-1.94,2.31,-0.08,0.02,-0.35,-0.19,-0.44,0.12,164.98,192.0,0.0,0.0,0.0,0.0
1776452635589464018,63029,0.0,0.6,0.06,0.4,0.12,-0.04,31.0,-1.94,2.31,0.01,0.02,-0.34,-0.0,-0.37,0.06,164.98,189.0,0.0,0.0,0.0,0.0
1776452635697765645,63129,0.0,0.7,0.06,0.5,0.12,-0.27,31.0,-1.88,2.25,0.32,0.03,-0.32,-1.5,-0.88,-0.06,165.5,183.0,0.0,0.0,0.0,0.0
1776452635790119090,63228,0.0,0.9,0.0,1.5,0.0,0.08,31.0,-1.81,1.88,0.21,0.02,-0.31,1.25,-0.56,-0.56,164.98,183.0,0.0,0.0,0.0,0.0
1776452635892508848,63329,0.088,-0.2,0.0,1.5,0.1,-0.04,30.94,-1.75,1.88,0.22,0.01,-0.29,-0.69,-1.0,-0.5,164.81,202.0,0.0,0.0,0.0,0.0
1776452635990806827,63429,0.0,0.4,0.0,1.2,0.04,-0.06,30.94,-1.63,1.69,0.2,0.07,-0.32,1.31,-1.0,-0.63,160.87,198.0,0.0,0.0,0.0,0.0
1776452636089102232,63529,0.0,0.8,0.068,0.5,0.02,-0.04,30.87,-1.56,1.69,0.12,0.06,-0.31,1.25,-0.37,-0.19,160.87,198.0,0.0,0.0,0.0,0.0
1776452636191495229,63629,0.0,0.5,0.0,1.5,0.16,-0.2,31.0,-1.56,1.81,-0.03,0.07,-0.33,1.37,0.88,1.81,161.9,197.0,0.0,0.0,0.0,0.0
1776452636289773116,63730,0.088,0.4,0.0,1.0,-0.04,-0.12,31.19,-1.63,1.94,-0.12,0.02,-0.38,0.88,0.63,2.5,160.7,208.0,0.0,0.0,0.0,0.0
1776452636392147151,63830,0.0,0.6,0.0,1.6,0.18,0.0,31.44,-1.63,2.13,-0.23,-0.01,-0.35,0.25,0.31,2.19,166.01,208.0,0.0,0.0,0.0,0.0
1776452636490448592,63931,0.092,0.9,0.076,0.2,0.12,-0.04,31.62,-1.63,2.19,-0.02,0.01,-0.37,-0.88,-0.06,1.63,161.38,195.0,0.0,0.0,0.0,0.0
1776452636592868608,64030,0.0,1.4,0.06,0.3,0.04,-0.14,31.75,-1.63,2.25,-0.23,0.03,-0.33,0.81,0.5,1.06,161.38,195.0,0.0,0.0,0.0,0.0
1776452636691136346,64131,0.0,1.2,0.0,1.0,0.08,0.06,31.87,-1.63,2.25,-0.09,0.03,-0.34,-0.44,-0.56,1.06,161.38,202.0,0.0,0.0,0.0,0.0
1776452636793575398,64231,0.0,0.9,0.064,0.2,0.02,-0.14,31.87,-1.63,2.31,-0.11,-0.03,-0.32,-0.19,-0.37,0.12,162.41,198.0,0.0,0.0,0.0,0.0
1776452636891865081,64331,0.0,0.9,0.064,0.5,0.02,-0.02,31.81,-1.63,2.31,0.01,-0.0,-0.32,0.12,-0.25,-1.31,161.38,198.0,0.0,0.0,0.0,0.0
1776452636994252412,64431,0.0,0.7,0.0,1.7,0.14,0.02,31.69,-1.63,2.31,0.0,0.03,-0.32,0.31,0.06,-1.12,161.38,212.0,0.0,0.0,0.0,0.0
1776452637092555611,64532,0.092,0.0,0.0,1.3,0.14,-0.06,31.62,-1.63,2.25,0.13,0.07,-0.38,0.25,0.37,0.5,166.18,194.0,0.0,0.0,0.0,0.0
1776452637194947664,64631,0.088,0.3,0.0,0.2,-0.06,-0.12,31.75,-1.69,2.44,-0.06,-0.01,-0.22,-0.88,0.75,1.56,165.5,194.0,0.0,0.0,0.0,0.0
1776452637293196198,64732,0.0,-0.1,0.0,1.4,-0.02,0.0,32.0,-1.69,2.44,-0.01,0.1,-0.3,2.0,1.0,2.38,165.5,201.0,0.0,0.0,0.0,0.0
1776452637395601639,64832,0.092,0.4,0.072,0.5,0.14,-0.04,32.25,-1.75,2.31,0.26,0.05,-0.33,-0.69,-0.0,3.44,165.5,201.0,0.0,0.0,0.0,0.0
1776452637493925708,64933,0.0,0.4,0.0,1.1,-0.08,0.02,32.56,-1.69,2.0,0.49,0.05,-0.33,-1.81,0.12,3.81,161.9,185.0,0.0,0.0,0.0,0.0
1776452637596335723,65033,0.0,0.6,0.06,0.3,0.06,0.1,32.94,-1.69,1.69,0.14,0.1,-0.41,1.75,2.19,3.25,165.5,185.0,0.0,0.0,0.0,0.0
1776452637694608905,65134,0.0,0.3,0.0,1.3,0.1,-0.06,33.31,-1.94,1.94,-0.27,0.02,-0.32,0.88,2.81,4.5,161.38,185.0,0.0,0.0,0.0,0.0
1776452637797026919,65233,0.088,0.2,0.0,1.3,0.06,-0.14,33.75,-2.06,1.94,-0.03,-0.0,-0.41,-1.19,0.37,4.25,161.38,187.0,0.0,0.0,0.0,0.0
1776452637895314971,65334,0.088,0.8,0.0,1.1,-0.02,0.0,34.06,-2.13,1.94,-0.16,-0.05,-0.36,-0.63,0.56,2.38,161.38,191.0,0.0,0.0,0.0,0.0
1776452637997729189,65434,0.08,0.1,0.0,1.1,0.16,-0.1,34.19,-2.19,2.31,-0.39,-0.05,-0.38,-1.56,0.31,0.31,161.38,191.0,0.0,0.0,0.0,0.0
1776452638096007593,65534,0.084,0.2,0.052,0.4,0.12,-0.18,34.19,-2.25,2.44,-0.28,-0.08,-0.36,-1.37,0.31,-0.63,165.5,208.0,0.0,0.0,0.0,0.0
1776452638198407366,65634,0.0,1.0,0.064,0.4,0.18,0.04,34.06,-2.25,2.44,-0.15,-0.06,-0.38,-1.31,-0.31,-1.12,166.7,181.0,0.0,0.0,0.0,0.0
1776452638296709509,65735,0.0,0.7,0.068,0.4,0.12,0.0,34.0,-2.31,2.5,-0.29,-0.03,-0.35,-0.44,0.19,-0.81,165.5,181.0,0.0,0.0,0.0,0.0
1776452638399069376,65835,0.0,0.1,0.0,1.6,0.02,-0.02,34.0,-2.25,2.38,0.25,-0.0,-0.35,-2.31,-0.88,-0.25,164.98,183.0,0.0,0.0,0.0,0.0
1776452638497371019,65936,0.088,0.2,0.0,1.6,0.23,0.0,33.94,-2.25,2.25,0.16,-0.05,-0.31,-2.19,-0.31,-1.5,164.98,209.0,0.0,0.0,0.0,0.0
1776452638599797069,66035,0.08,0.0,0.064,0.3,0.02,-0.12,33.75,-2.19,1.94,0.22,0.05,-0.32,0.37,-0.37,-2.44,164.98,209.0,0.0,0.0,0.0,0.0
1776452638698069584,66136,0.0,1.3,0.0,1.2,0.1,-0.06,33.5,-2.19,1.81,0.16,-0.0,-0.35,-1.12,-0.37,-1.75,164.98,193.0,0.0,0.0,0.0,0.0
1776452638800486116,66236,0.0,0.7,0.064,0.3,-0.02,-0.08,33.44,-2.19,1.69,-0.02,0.07,-0.34,-0.75,-0.12,-0.06,164.47,186.0,0.0,0.0,0.0,0.0
1776452638898765704,66335,0.0,0.6,0.06,0.2,0.06,0.0,33.44,-2.19,1.75,-0.15,-0.02,-0.29,-1.56,-0.0,1.0,161.38,186.0,0.0,0.0,0.0,0.0
1776452639001167866,66435,0.0,0.1,0.0,1.4,-0.08,-0.12,33.63,-2.13,1.56,0.04,-0.0,-0.34,-1.0,-0.31,1.88,161.38,200.0,0.0,0.0,0.0,0.0
1776452639099470749,66536,0.088,0.3,0.0,1.2,0.02,-0.1,33.75,-2.13,1.5,-0.03,-0.02,-0.33,-1.12,-0.44,1.12,165.5,200.0,0.0,0.0,0.0,0.0
1776452639201857855,66636,0.0,0.4,0.072,0.2,0.06,-0.02,33.81,-2.13,1.44,-0.12,0.02,-0.38,0.19,-0.06,0.06,164.98,185.0,0.0,0.0,0.0,0.0
1776452639300108369,66737,0.0,0.9,0.0,1.3,0.12,-0.06,33.81,-2.13,1.44,0.04,-0.01,-0.36,-1.0,-0.69,-0.37,165.67,200.0,0.0,0.0,0.0,0.0
1776452639408463324,66837,0.088,0.3,0.0,1.5,0.12,-0.12,33.81,-2.06,1.31,0.2,0.04,-0.36,-0.75,-0.56,0.0,165.5,200.0,0.0,0.0,0.0,0.0
1776452639500835191,66936,0.088,0.0,0.0,1.5,0.27,0.02,33.81,-2.06,1.19,0.26,0.05,-0.33,-1.0,-0.37,1.19,161.38,217.0,0.0,0.0,0.0,0.0
1776452639599133833,67036,0.088,0.1,0.0,1.0,0.12,-0.2,34.0,-2.0,0.88,0.21,0.09,-0.39,1.19,0.5,1.94,161.38,182.0,0.0,0.0,0.0,0.0
1776452639701535957,67136,0.08,0.0,0.0,1.1,0.04,-0.08,34.19,-2.13,1.19,-0.42,-0.06,-0.27,0.75,1.69,2.38,162.41,182.0,0.0,0.0,0.0,0.0
1776452639799830655,67236,0.088,0.1,0.0,1.4,-0.02,-0.12,34.56,-2.13,1.06,0.34,0.1,-0.32,-0.75,-0.88,5.38,161.38,185.0,0.0,0.0,0.0,0.0
1776452639902225316,67336,0.0,0.2,0.0,1.2,-0.12,-0.04,35.06,-2.06,0.94,0.18,0.07,-0.32,1.69,1.44,4.44,164.98,185.0,0.0,0.0,0.0,0.0
1776452640000521366,67436,0.092,0.3,0.0,0.6,0.04,-0.23,35.5,-2.19,1.06,0.1,0.07,-0.35,2.63,1.44,5.56,160.7,195.0,0.0,0.0,0.0,0.0
1776452640108881653,67536,0.0,0.5,0.0,1.1,0.0,-0.08,36.06,-2.38,1.31,-0.02,0.01,-0.37,3.63,1.81,5.25,164.81,194.0,0.0,0.0,0.0,0.0
1776452640201214261,67637,0.088,0.3,0.0,1.2,0.06,-0.21,36.5,-2.5,1.63,0.04,-0.08,-0.37,0.31,0.88,3.44,164.3,194.0,0.0,0.0,0.0,0.0
1776452640303600181,67737,0.088,0.1,0.0,1.1,0.06,-0.14,36.75,-2.56,1.75,0.06,0.06,-0.32,1.81,1.44,1.56,164.3,192.0,0.0,0.0,0.0,0.0
1776452640401860175,67837,0.0,0.9,0.0,1.4,0.1,-0.1,36.94,-2.69,2.0,-0.13,0.01,-0.36,4.31,1.63,1.63,168.58,176.0,0.0,0.0,0.0,0.0
1776452640510284479,67937,0.088,0.2,0.0,1.4,0.1,-0.02,37.19,-2.81,2.31,-0.26,-0.06,-0.38,0.5,0.31,4.0,163.78,176.0,0.0,0.0,0.0,0.0
1776452640602596346,68037,0.088,0.3,0.0,1.5,0.1,-0.06,37.63,-2.81,2.56,-0.14,-0.01,-0.35,-0.56,-0.31,5.19,163.78,200.0,0.0,0.0,0.0,0.0
1776452640700883858,68137,0.0,1.2,0.072,0.5,0.2,-0.08,38.06,-2.81,2.63,-0.05,-0.0,-0.37,-0.19,-0.19,2.94,167.9,192.0,0.0,0.0,0.0,0.0
1776452640803288759,68237,0.0,1.3,0.072,0.3,-0.02,-0.08,38.25,-2.75,2.63,-0.08,-0.03,-0.33,0.06,-0.63,0.88,167.9,192.0,0.0,0.0,0.0,0.0
1776452640901577401,68337,0.0,1.3,0.0,1.2,0.21,-0.02,38.25,-2.69,2.63,-0.08,0.03,-0.34,0.31,-0.56,-0.06,167.9,190.0,0.0,0.0,0.0,0.0
1776452641003966821,68438,0.084,0.1,0.064,0.6,0.04,-0.02,38.25,-2.69,2.63,0.08,0.04,-0.34,-0.19,-0.5,1.0,167.9,176.0,0.0,0.0,0.0,0.0
1776452641106361647,68539,0.0,0.7,0.056,0.2,0.14,0.0,38.38,-2.63,2.5,0.31,0.05,-0.35,-1.88,-0.69,1.69,168.58,176.0,0.0,0.0,0.0,0.0
1776452641204679305,68639,0.0,1.2,0.06,0.3,0.1,0.02,38.56,-2.56,2.38,0.05,0.03,-0.36,1.44,-0.31,1.63,167.9,189.0,0.0,0.0,0.0,0.0
1776452641302953594,68739,0.0,0.6,0.06,0.0,-0.02,-0.23,38.69,-2.5,2.38,0.07,0.04,-0.37,-0.75,-1.19,1.25,164.47,189.0,0.0,0.0,0.0,0.0
1776452641405315162,68839,0.0,0.6,0.0,1.5,0.02,-0.08,38.75,-2.44,2.5,-0.15,-0.02,-0.29,0.81,-0.88,0.19,168.41,188.0,0.0,0.0,0.0,0.0
1776452641503653857,68938,0.092,0.3,0.0,1.7,0.14,-0.08,38.75,-2.25,2.38,0.25,0.08,-0.4,-0.06,-1.56,-0.37,168.58,195.0,0.0,0.0,0.0,0.0
1776452641601951072,69038,0.084,0.2,0.0,1.3,0.02,-0.1,38.81,-2.13,2.5,-0.02,0.01,-0.31,-0.25,-1.31,2.31,164.98,195.0,0.0,0.0,0.0,0.0
1776452641704316751,69139,0.088,0.3,0.0,1.3,0.27,-0.14,39.19,-2.0,2.56,-0.12,-0.08,-0.35,0.94,-0.81,4.69,164.98,186.0,0.0,0.0,0.0,0.0
1776452641802673426,69238,0.084,1.4,0.072,0.1,0.1,0.0,39.69,-1.88,2.56,-0.05,-0.0,-0.33,0.19,-1.37,5.0,164.98,195.0,0.0,0.0,0.0,0.0
1776452641905040254,69339,0.0,0.4,0.068,0.3,-0.06,-0.02,40.06,-1.75,2.63,-0.01,0.01,-0.33,0.37,-1.0,3.13,168.58,195.0,0.0,0.0,0.0,0.0
1776452642003333505,69439,0.0,0.8,0.0,1.6,0.08,0.02,40.31,-1.63,2.63,-0.08,-0.01,-0.37,1.25,-0.81,2.13,166.01,192.0,0.0,0.0,0.0,0.0
1776452642105723923,69539,0.084,0.1,0.0,1.7,0.06,0.02,40.5,-1.56,2.75,-0.23,0.01,-0.33,0.69,-1.0,1.94,160.87,189.0,0.0,0.0,0.0,0.0
1776452642204023970,69639,0.076,0.2,0.0,1.4,0.04,-0.12,40.69,-1.44,2.94,-0.23,-0.0,-0.39,-0.63,-0.94,2.81,164.98,189.0,0.0,0.0,0.0,0.0
1776452642306374352,69740,0.08,0.1,0.0,0.6,0.12,0.0,41.0,-1.44,3.06,-0.12,-0.0,-0.3,-1.37,-0.37,3.69,164.81,190.0,0.0,0.0,0.0,0.0
1776452642404733416,69839,0.0,1.3,0.068,0.3,0.18,-0.02,41.5,-1.37,2.94,0.0,0.03,-0.37,1.0,0.19,5.38,164.98,190.0,0.0,0.0,0.0,0.0
1776452642507121223,69940,0.0,1.3,0.076,0.5,-0.08,-0.1,42.0,-1.31,3.0,0.05,0.01,-0.36,-1.37,-0.37,5.5,164.98,196.0,0.0,0.0,0.0,0.0
1776452642605408733,70040,0.0,1.3,0.072,0.3,0.04,-0.04,42.56,-1.31,2.88,0.14,-0.0,-0.35,-0.69,-0.25,5.94,164.98,195.0,0.0,0.0,0.0,0.0
1776452642707812336,70140,0.0,1.2,0.072,0.3,0.02,-0.06,43.06,-1.25,2.75,0.25,0.02,-0.34,-1.56,-0.63,4.44,164.81,195.0,0.0,0.0,0.0,0.0
1776452642806093939,70240,0.0,1.2,0.0,1.4,0.04,-0.04,43.38,-1.25,2.69,0.24,-0.0,-0.33,-1.75,-0.44,3.25,164.98,199.0,0.0,0.0,0.0,0.0
1776452642904359413,70340,0.088,0.4,0.0,0.4,0.1,-0.16,43.69,-1.19,2.44,0.19,0.01,-0.35,-0.06,-0.37,2.69,164.98,207.0,0.0,0.0,0.0,0.0
1776452643006812366,70439,0.0,0.5,0.0,0.2,-0.02,0.08,43.94,-1.12,2.38,0.1,0.04,-0.33,-0.25,-0.37,2.13,164.98,207.0,0.0,0.0,0.0,0.0
1776452643105080228,70539,0.0,1.2,0.072,0.5,0.02,-0.14,44.13,-1.12,2.38,-0.05,0.04,-0.34,-0.37,-0.44,2.88,164.98,178.0,0.0,0.0,0.0,0.0
1776452643203335646,70639,0.0,1.2,0.068,0.6,0.0,0.0,44.44,-1.12,2.38,0.0,0.02,-0.34,-1.75,-0.31,3.19,164.98,185.0,0.0,0.0,0.0,0.0
1776452643305804079,70738,0.0,1.3,0.064,0.5,0.06,-0.08,44.75,-1.06,2.06,0.32,0.09,-0.36,-0.44,-0.37,3.63,164.81,185.0,0.0,0.0,0.0,0.0
1776452643404029868,70838,0.0,0.3,0.0,0.4,0.06,0.02,45.06,-1.06,2.13,-0.16,0.03,-0.32,-0.37,-0.12,2.88,164.98,197.0,0.0,0.0,0.0,0.0
1776452643506474691,70938,0.0,0.1,0.0,1.5,0.08,-0.16,45.38,-1.0,1.94,0.16,0.04,-0.39,-1.19,-0.63,4.06,164.98,200.0,0.0,0.0,0.0,0.0
1776452643604782292,71037,0.088,0.1,0.0,1.3,0.2,-0.08,45.81,-1.0,1.94,-0.22,0.02,-0.3,-1.56,-0.5,4.31,161.55,200.0,0.0,0.0,0.0,0.0
1776452643703027581,71137,0.0,1.3,0.072,0.6,0.06,-0.04,46.31,-0.94,1.81,0.12,0.06,-0.35,-0.5,-0.44,5.69,164.98,202.0,0.0,0.0,0.0,0.0
1776452643805468996,71238,0.0,1.0,0.068,0.3,0.16,-0.08,46.88,-0.88,1.75,0.05,0.05,-0.35,-0.75,-0.37,6.5,166.53,202.0,0.0,0.0,0.0,0.0
1776452643907910430,71339,0.0,1.1,0.068,0.2,0.0,-0.02,47.56,-0.81,1.69,0.0,0.05,-0.35,0.12,-0.94,7.13,161.38,206.0,0.0,0.0,0.0,0.0
1776452644006150904,71439,0.0,1.3,0.0,1.3,0.18,-0.16,48.19,-0.69,1.69,-0.2,-0.01,-0.37,0.56,-0.81,5.81,165.5,208.0,0.0,0.0,0.0,0.0
1776452644104461393,71539,0.088,-0.1,0.0,0.9,-0.12,0.0,48.63,-0.63,1.88,-0.33,0.04,-0.39,0.37,-0.37,3.69,165.5,208.0,0.0,0.0,0.0,0.0
1776452644206841199,71640,0.084,0.7,0.052,0.6,0.06,-0.14,48.94,-0.56,2.31,-0.31,0.01,-0.34,-0.56,0.19,2.69,162.07,189.0,0.0,0.0,0.0,0.0
1776452644305100523,71740,0.0,0.2,0.0,1.4,0.14,-0.16,49.25,-0.5,2.38,-0.05,0.02,-0.33,-1.0,0.06,3.38,166.18,199.0,0.0,0.0,0.0,0.0
1776452644407480847,71839,0.092,-0.1,0.0,1.5,0.02,-0.12,49.69,-0.5,2.19,0.22,0.16,-0.33,-0.06,0.37,5.75,166.18,199.0,0.0,0.0,0.0,0.0
1776452644505808484,71939,0.088,0.0,0.0,1.7,0.18,-0.08,50.31,-0.56,2.13,0.17,0.01,-0.33,-1.0,1.19,7.44,166.01,201.0,0.0,0.0,0.0,0.0
1776452644608241491,72039,0.0,1.3,0.072,0.5,0.02,-0.08,51.19,-0.63,2.06,0.24,0.02,-0.3,-1.69,1.0,9.0,166.18,201.0,0.0,0.0,0.0,0.0
1776452644706521592,72139,0.0,0.2,0.0,0.4,0.25,0.02,52.06,-0.63,1.75,0.33,0.02,-0.31,-1.0,1.12,9.38,166.18,187.0,0.0,0.0,0.0,0.0
1776452644804791379,72239,0.0,0.7,0.0,1.5,0.0,0.0,53.0,-0.69,1.56,0.06,0.09,-0.34,2.25,2.19,8.13,166.18,204.0,0.0,0.0,0.0,0.0
1776452644907212461,72339,0.088,0.1,0.0,1.4,0.1,-0.12,53.75,-0.88,1.63,0.02,-0.01,-0.4,0.25,1.5,7.81,166.01,204.0,0.0,0.0,0.0,0.0
1776452645005577726,72439,0.0,1.6,0.06,0.5,0.0,0.0,54.38,-1.0,1.69,-0.08,-0.0,-0.36,-0.12,1.69,6.31,165.5,201.0,0.0,0.0,0.0,0.0
1776452645107917754,72539,0.0,1.3,0.076,0.5,-0.02,-0.08,54.94,-1.12,1.69,-0.01,-0.0,-0.34,0.44,1.63,6.31,165.5,186.0,0.0,0.0,0.0,0.0
1776452645206165004,72639,0.0,1.2,0.0,1.0,-0.04,0.0,55.63,-1.31,1.69,0.0,0.05,-0.36,0.31,1.88,7.38,165.5,186.0,0.0,0.0,0.0,0.0
1776452645308545290,72739,0.084,0.1,0.0,1.1,0.04,0.02,56.38,-1.44,1.75,0.14,0.02,-0.41,-0.25,1.75,8.44,164.98,187.0,0.0,0.0,0.0,0.0
1776452645406870852,72839,0.084,0.2,0.0,1.2,0.0,-0.1,57.19,-1.56,1.75,0.09,0.07,-0.37,1.12,1.69,7.88,164.98,195.0,0.0,0.0,0.0,0.0
1776452645515239041,72939,0.084,0.1,0.0,1.1,0.08,-0.04,57.94,-1.69,1.75,0.16,0.02,-0.45,0.75,1.0,7.13,164.98,195.0,0.0,0.0,0.0,0.0
1776452645607598551,73039,0.084,0.1,0.0,1.3,0.04,0.18,58.63,-1.81,1.88,0.09,-0.02,-0.32,-1.63,1.06,7.5,164.98,189.0,0.0,0.0,0.0,0.0
1776452645709975244,73140,0.088,0.4,0.0,1.0,0.12,-0.02,59.38,-1.88,1.88,0.0,0.18,-0.39,1.31,2.5,8.38,164.98,186.0,0.0,0.0,0.0,0.0
1776452645808284362,73240,0.08,0.2,0.0,1.0,-0.02,-0.04,60.25,-2.13,2.06,-0.31,0.02,-0.38,1.69,3.25,10.0,164.81,186.0,0.0,0.0,0.0,0.0
1776452645906571592,73339,0.08,0.2,0.0,1.0,0.04,-0.1,61.31,-2.31,2.31,-0.2,-0.02,-0.36,-0.88,1.19,10.88,164.98,189.0,0.0,0.0,0.0,0.0
1776452646008981970,73439,0.0,0.6,0.0,1.5,0.02,-0.08,62.31,-2.38,2.38,-0.23,0.03,-0.36,0.88,1.31,9.56,164.98,189.0,0.0,0.0,0.0,0.0
1776452646107263755,73539,0.08,0.2,0.0,1.7,0.02,-0.04,63.19,-2.56,2.94,-0.51,-0.03,-0.36,0.75,2.0,8.19,164.81,191.0,0.0,0.0,0.0,0.0
1776452646205535725,73639,0.08,0.1,0.0,0.5,0.0,0.02,63.94,-2.75,3.5,-0.44,-0.08,-0.36,0.31,1.0,7.81,164.98,185.0,0.0,0.0,0.0,0.0
1776452646307940102,73739,0.0,0.0,0.0,1.7,0.14,-0.04,64.69,-2.75,3.69,-0.17,-0.02,-0.34,-0.5,0.25,7.56,165.5,185.0,0.0,0.0,0.0,0.0
1776452646406205239,73839,0.08,0.2,0.0,1.4,0.06,0.08,65.5,-2.69,3.69,0.12,0.04,-0.34,-1.37,0.06,8.44,161.38,192.0,0.0,0.0,0.0,0.0
1776452646508600616,73938,0.08,0.2,0.0,1.2,0.16,-0.18,66.44,-2.69,3.56,0.22,0.05,-0.29,-1.12,1.06,11.0,165.5,192.0,0.0,0.0,0.0,0.0
1776452646606914677,74039,0.088,-0.1,0.0,1.4,0.0,-0.16,67.87,-2.56,3.25,0.73,0.22,-0.32,-3.56,0.31,19.44,166.18,192.0,0.0,0.0,0.0,0.0
1776452646709334887,74140,0.08,0.2,0.0,0.5,0.06,-0.02,70.12,-2.5,3.13,0.05,-0.01,-0.35,2.56,2.75,23.0,165.5,187.0,0.0,0.0,0.0,0.0
1776452646807614061,74240,0.0,1.4,0.068,0.2,0.12,-0.14,72.19,-2.56,3.25,-0.06,-0.14,-0.4,-1.63,0.25,21.0,165.5,191.0,0.0,0.0,0.0,0.0
1776452646910014586,74340,0.0,1.3,0.0,1.1,0.18,0.0,74.06,-2.5,3.25,0.03,-0.04,-0.38,-1.56,0.37,18.31,165.67,191.0,0.0,0.0,0.0,0.0
1776452647008309833,74440,0.08,0.1,0.0,1.3,0.02,-0.06,75.62,-2.5,3.38,-0.25,-0.16,-0.32,0.19,1.37,13.25,164.98,192.0,0.0,0.0,0.0,0.0
1776452647110708728,74540,0.088,0.1,0.0,1.1,0.0,-0.12,76.87,-2.5,3.31,0.2,0.01,-0.38,-2.0,-0.25,13.0,164.98,192.0,0.0,0.0,0.0,0.0
1776452647209023492,74640,0.084,0.2,0.0,0.3,0.0,-0.04,78.19,-2.44,3.19,0.07,0.05,-0.37,0.25,0.88,13.81,164.98,191.0,0.0,0.0,0.0,0.0
1776452647307256407,74740,0.0,0.9,0.064,0.7,0.2,-0.04,79.56,-2.44,3.13,0.11,-0.0,-0.44,-0.88,0.5,14.81,161.38,193.0,0.0,0.0,0.0,0.0
1776452647409655043,74840,0.0,0.9,0.056,0.2,0.0,-0.04,80.94,-2.5,3.25,-0.07,-0.03,-0.28,-2.5,1.19,13.75,165.5,193.0,0.0,0.0,0.0,0.0
1776452647518072358,74941,0.0,1.4,0.064,0.3,0.08,-0.02,82.69,-2.38,3.0,0.33,0.2,-0.37,-1.31,0.75,21.69,165.5,188.0,0.0,0.0,0.0,0.0
1776452647610422848,75040,0.0,0.9,0.06,0.4,0.12,-0.02,84.81,-2.44,3.06,-0.35,-0.13,-0.35,1.44,2.06,20.19,164.98,189.0,0.0,0.0,0.0,0.0
1776452647708650967,75140,0.0,0.8,0.076,0.0,0.0,-0.12,86.5,-2.56,3.5,-0.52,-0.15,-0.34,-0.19,0.88,13.81,164.98,189.0,0.0,0.0,0.0,0.0
1776452647811083249,75240,0.0,0.5,0.0,1.6,0.18,-0.02,87.56,-2.69,3.88,-0.28,-0.08,-0.35,-0.94,0.25,9.13,164.98,187.0,0.0,0.0,0.0,0.0
1776452647909382422,75339,0.0,1.4,0.06,0.5,0.02,-0.08,88.19,-2.69,3.94,-0.16,-0.1,-0.38,-0.25,0.63,5.5,160.87,181.0,0.0,0.0,0.0,0.0
1776452648007677575,75439,0.0,1.3,0.084,0.5,0.02,0.0,88.5,-2.75,4.13,-0.23,-0.19,-0.31,0.31,0.37,-0.06,164.98,181.0,0.0,0.0,0.0,0.0
1776452648110063007,75539,0.0,0.9,0.068,0.6,0.16,-0.2,88.5,-2.75,4.06,0.24,0.17,-0.31,-0.12,-0.25,0.12,165.5,190.0,0.0,0.0,0.0,0.0
1776452648208410658,75639,0.0,0.9,0.0,1.4,0.14,-0.08,88.62,-2.75,3.94,0.39,0.07,-0.35,-1.69,0.88,3.94,161.38,190.0,0.0,0.0,0.0,0.0
1776452648310729295,75739,0.092,0.0,0.0,1.5,0.12,-0.12,89.37,-2.69,3.63,0.25,0.09,-0.27,-0.06,1.0,10.5,161.38,194.0,0.0,0.0,0.0,0.0
1776452648409022133,75839,0.0,1.3,0.068,0.3,0.1,-0.08,91.12,-2.56,3.25,0.55,0.17,-0.38,-1.5,0.56,24.69,161.38,187.0,0.0,0.0,0.0,0.0
1776452648507307009,75939,0.0,1.3,0.072,0.4,0.14,-0.18,93.5,-2.56,3.31,-0.1,-0.09,-0.29,-1.69,1.25,23.62,164.98,187.0,0.0,0.0,0.0,0.0
1776452648609760697,76039,0.0,1.2,0.064,0.2,0.02,-0.16,96.0,-2.44,3.13,0.11,0.06,-0.33,-1.19,0.5,25.75,164.98,184.0,0.0,0.0,0.0,0.0
1776452648708043684,76139,0.0,1.4,0.072,0.2,0.04,0.04,98.31,-2.38,3.13,0.05,-0.04,-0.34,-2.81,0.31,23.0,164.98,190.0,0.0,0.0,0.0,0.0
1776452648810467873,76239,0.0,0.1,0.0,1.3,0.12,-0.08,100.62,-2.25,2.88,0.23,-0.0,-0.34,-1.75,-0.19,24.31,164.98,190.0,0.0,0.0,0.0,0.0
1776452648908729823,76339,0.088,0.2,0.0,0.2,0.04,-0.08,102.87,-2.13,2.69,0.15,-0.05,-0.35,-3.13,-0.81,22.31,164.98,185.0,0.0,0.0,0.0,0.0
1776452649011128254,76440,0.0,1.3,0.0,1.1,-0.04,-0.12,104.81,-2.0,2.63,-0.09,-0.03,-0.33,-1.31,-0.0,17.87,164.98,195.0,0.0,0.0,0.0,0.0
1776452649109406851,76539,0.092,0.3,0.0,1.7,-0.02,-0.06,106.44,-1.94,2.5,0.09,0.04,-0.36,-1.94,-0.56,16.62,164.98,195.0,0.0,0.0,0.0,0.0
1776452649211782004,76639,0.092,0.3,0.0,1.7,0.1,-0.08,108.0,-1.88,2.5,-0.28,-0.01,-0.23,-0.81,0.63,14.81,164.98,181.0,0.0,0.0,0.0,0.0
1776452649310074027,76740,0.092,0.2,0.0,1.4,0.0,-0.08,109.56,-1.75,2.38,0.11,0.1,-0.36,-1.63,-0.75,17.94,164.98,181.0,0.0,0.0,0.0,0.0
1776452649408339180,76839,0.0,1.3,0.072,0.4,0.1,-0.16,111.37,-1.69,2.25,0.18,0.04,-0.34,-2.69,-0.19,19.06,161.38,190.0,0.0,0.0,0.0,0.0
1776452649510802756,76940,0.088,0.3,0.0,0.8,0.16,-0.14,113.12,-1.63,2.25,-0.26,-0.02,-0.37,1.56,0.5,16.5,160.87,189.0,0.0,0.0,0.0,0.0
1776452649609114074,77040,0.0,0.9,0.052,0.3,0.04,0.08,114.62,-1.56,2.56,-0.27,-0.01,-0.34,-0.63,-0.44,14.56,165.5,189.0,0.0,0.0,0.0,0.0
1776452649711477024,77139,0.0,0.8,0.064,0.2,-0.02,-0.06,116.0,-1.5,2.56,-0.06,0.06,-0.39,-1.0,-0.12,14.25,161.9,189.0,0.0,0.0,0.0,0.0
1776452649809773787,77240,0.0,1.0,0.0,1.4,0.06,-0.04,117.31,-1.44,2.69,-0.21,-0.0,-0.33,1.5,0.75,12.75,161.38,187.0,0.0,0.0,0.0,0.0
1776452649912201845,77340,0.084,0.3,0.0,1.6,0.04,-0.2,118.44,-1.5,2.94,-0.3,-0.02,-0.39,0.44,0.63,10.38,165.5,187.0,0.0,0.0,0.0,0.0
1776452650010484127,77440,0.096,0.0,0.0,1.5,0.1,0.04,119.31,-1.5,3.38,-0.33,-0.02,-0.27,-0.44,0.69,8.94,161.38,183.0,0.0,0.0,0.0,0.0
1776452650108772260,77540,0.088,0.3,0.0,1.7,0.0,-0.12,120.37,-1.44,3.19,0.23,0.13,-0.35,-1.94,-0.44,11.88,161.38,191.0,0.0,0.0,0.0,0.0
1776452650211187782,77639,0.092,1.0,0.072,0.1,-0.04,-0.12,121.37,-1.44,3.19,-0.02,0.03,-0.34,-0.06,1.44,11.56,161.38,191.0,0.0,0.0,0.0,0.0
1776452650313627450,77740,0.0,1.2,0.068,0.6,0.0,-0.06,122.5,-1.44,3.13,0.16,0.04,-0.33,-2.31,0.37,12.19,161.9,186.0,0.0,0.0,0.0,0.0
1776452650411861066,77840,0.0,1.3,0.06,0.3,0.06,-0.06,123.75,-1.44,3.06,-0.06,0.04,-0.32,1.19,1.19,10.38,162.07,188.0,0.0,0.0,0.0,0.0
1776452650510157440,77939,0.0,1.2,0.0,1.1,0.1,-0.04,124.69,-1.44,3.0,0.15,0.03,-0.38,-1.63,-0.25,11.19,162.07,188.0,0.0,0.0,0.0,0.0
1776452650612559906,78040,0.0,0.6,0.08,0.4,0.04,0.02,125.69,-1.44,3.13,-0.25,0.01,-0.3,0.44,1.12,8.06,162.07,186.0,0.0,0.0,0.0,0.0
1776452650710855909,78140,0.0,-0.1,0.028,0.4,0.06,-0.02,126.31,-1.44,3.13,-0.07,0.01,-0.35,-0.5,0.25,5.63,162.07,186.0,0.0,0.0,0.0,0.0
1776452650813253208,78240,0.0,1.6,0.06,0.3,0.18,-0.14,126.75,-1.5,3.25,-0.21,-0.06,-0.34,0.5,0.56,3.56,166.18,186.0,0.0,0.0,0.0,0.0
1776452650911548767,78340,0.0,1.3,0.076,0.3,-0.02,-0.08,127.12,-1.5,3.38,-0.17,-0.0,-0.32,-0.19,-0.06,3.0,162.07,186.0,0.0,0.0,0.0,0.0
1776452651013949288,78441,0.0,1.3,0.08,0.0,0.16,-0.12,127.37,-1.5,3.31,0.05,-0.02,-0.3,-1.37,-0.25,3.06,161.9,186.0,0.0,0.0,0.0,0.0
1776452651112241198,78541,0.0,1.2,0.072,0.1,0.02,-0.04,127.69,-1.5,3.31,-0.19,0.03,-0.36,3.44,0.81,2.19,165.67,191.0,0.0,0.0,0.0,0.0
1776452651214636682,78641,0.0,1.4,0.072,0.3,0.1,-0.14,127.87,-1.56,3.44,-0.07,0.02,-0.38,-1.12,-0.25,2.06,161.38,187.0,0.0,0.0,0.0,0.0
1776452651312891334,78741,0.0,1.4,0.072,0.3,-0.04,-0.1,128.13,-1.5,3.44,0.06,0.04,-0.35,-1.44,0.31,2.69,161.38,187.0,0.0,0.0,0.0,0.0
1776452651411177151,78840,0.0,0.6,0.068,0.2,0.2,-0.1,128.38,-1.56,3.44,-0.21,0.03,-0.36,2.25,1.37,2.75,161.38,190.0,0.0,0.0,0.0,0.0
1776452651513630559,78940,0.0,1.0,0.0,0.2,0.14,0.0,128.75,-1.69,3.56,0.0,-0.0,-0.3,-1.81,0.81,5.38,161.38,186.0,0.0,0.0,0.0,0.0
1776452651611920228,79041,0.0,0.3,0.0,1.4,0.08,-0.02,129.44,-1.63,3.44,0.03,0.03,-0.36,-0.06,0.56,7.63,166.18,186.0,0.0,0.0,0.0,0.0
1776452651710169269,79140,0.056,0.5,0.064,0.3,0.08,-0.1,130.13,-1.69,3.63,-0.27,-0.04,-0.36,0.75,0.63,6.0,161.38,190.0,0.0,0.0,0.0,0.0
1776452651812612400,79240,0.0,0.0,0.0,1.4,0.16,-0.14,130.63,-1.69,3.81,-0.15,-0.01,-0.36,-1.25,-0.25,4.31,161.38,190.0,0.0,0.0,0.0,0.0
1776452651910906495,79340,0.06,0.2,0.0,1.7,-0.04,-0.1,131.0,-1.69,3.69,0.02,0.02,-0.33,-1.31,-0.0,3.63,165.5,194.0,0.0,0.0,0.0,0.0
1776452652013306256,79439,0.0,1.4,0.076,0.7,0.0,-0.08,131.44,-1.63,3.56,0.25,0.07,-0.36,-1.94,-0.12,5.44,161.38,182.0,0.0,0.0,0.0,0.0
1776452652111579925,79539,0.0,1.2,0.06,0.3,0.04,-0.08,132.0,-1.69,3.63,-0.23,-0.0,-0.28,0.81,1.75,5.75,161.38,182.0,0.0,0.0,0.0,0.0
1776452652209867501,79639,0.0,1.2,0.084,0.3,-0.06,-0.12,132.69,-1.69,3.56,0.0,0.01,-0.33,-0.88,0.5,8.19,161.38,190.0,0.0,0.0,0.0,0.0
1776452652312266169,79739,0.0,1.3,0.0,1.0,-0.08,0.0,133.56,-1.69,3.56,0.05,0.01,-0.28,-0.5,1.5,10.25,161.38,194.0,0.0,0.0,0.0,0.0
1776452652420609760,79839,0.088,0.4,0.0,1.4,0.08,-0.16,134.69,-1.69,3.31,0.35,-0.0,-0.34,-1.56,0.06,11.56,162.41,194.0,0.0,0.0,0.0,0.0
1776452652512976689,79940,0.092,0.2,0.0,1.3,0.08,-0.1,135.69,-1.63,3.19,0.12,-0.05,-0.32,0.12,0.88,9.19,164.98,191.0,0.0,0.0,0.0,0.0
1776452652611293172,80039,0.0,0.9,0.072,0.3,0.21,-0.12,136.5,-1.63,3.06,0.17,-0.04,-0.39,-0.06,-0.44,7.5,164.98,186.0,0.0,0.0,0.0,0.0
1776452652713674988,80140,0.0,0.9,0.068,0.3,0.08,-0.2,137.06,-1.63,3.13,-0.01,-0.08,-0.33,-0.88,-0.19,4.94,164.98,186.0,0.0,0.0,0.0,0.0
1776452652811963897,80240,0.0,1.1,0.072,0.2,0.0,-0.16,137.5,-1.63,3.06,-0.04,-0.0,-0.33,-0.44,-0.12,3.81,164.98,193.0,0.0,0.0,0.0,0.0
1776452652910231678,80339,0.0,0.6,0.068,0.5,-0.08,-0.02,137.75,-1.56,3.0,-0.03,-0.0,-0.35,0.12,0.25,2.44,164.81,193.0,0.0,0.0,0.0,0.0
1776452653012662048,80439,0.0,0.6,0.06,0.5,0.12,0.02,138.0,-1.56,3.0,-0.05,-0.04,-0.31,-1.0,-0.81,2.31,164.98,193.0,0.0,0.0,0.0,0.0
1776452653110953438,80540,0.0,0.8,0.06,0.3,0.12,-0.1,138.19,-1.5,2.94,-0.05,0.04,-0.29,-0.19,0.06,1.75,164.3,191.0,0.0,0.0,0.0,0.0
1776452653213363346,80640,0.0,0.9,0.0,1.4,0.02,-0.1,138.31,-1.5,2.81,0.0,-0.01,-0.39,0.5,-0.0,0.56,164.3,191.0,0.0,0.0,0.0,0.0
1776452653315688978,80741,0.08,0.1,0.0,1.7,0.06,-0.06,138.31,-1.56,2.75,0.08,0.02,-0.42,-2.44,-0.25,-0.44,164.47,185.0,0.0,0.0,0.0,0.0
1776452653413990608,80840,0.0,1.3,0.06,0.3,0.04,-0.04,138.31,-1.56,2.69,-0.06,-0.01,-0.33,-1.88,-0.12,1.5,164.3,186.0,0.0,0.0,0.0,0.0
1776452653516429033,80941,0.0,1.6,0.068,0.2,0.04,-0.1,138.56,-1.56,2.5,-0.12,0.02,-0.47,-0.19,-0.25,3.56,164.3,186.0,0.0,0.0,0.0,0.0
1776452653614769255,81042,0.0,1.4,0.08,0.4,0.1,0.0,138.94,-1.56,2.63,-0.33,-0.03,-0.27,-3.38,-0.69,4.69,164.47,185.0,0.0,0.0,0.0,0.0
1776452653713037145,81141,0.0,1.4,0.072,0.4,0.04,-0.02,139.44,-1.44,2.38,-0.11,0.06,-0.4,0.56,-0.44,4.56,164.98,195.0,0.0,0.0,0.0,0.0
1776452653815420572,81241,0.0,1.3,0.072,0.2,0.08,0.06,139.81,-1.44,2.75,-0.5,-0.02,-0.26,0.12,-0.19,3.31,164.81,195.0,0.0,0.0,0.0,0.0
1776452653913716202,81341,0.0,1.2,0.08,0.5,0.08,0.04,140.13,-1.37,2.94,-0.22,0.07,-0.37,-0.63,-0.44,3.38,164.98,181.0,0.0,0.0,0.0,0.0
1776452654016114592,81441,0.0,1.3,0.076,0.2,0.0,-0.08,140.44,-1.31,3.13,-0.15,-0.02,-0.32,-1.69,-0.81,2.81,164.81,181.0,0.0,0.0,0.0,0.0
1776452654114401184,81541,0.0,1.3,0.076,0.4,0.18,0.02,140.69,-1.25,3.0,0.03,-0.0,-0.34,-0.75,-0.63,2.81,164.98,190.0,0.0,0.0,0.0,0.0
1776452654216788444,81641,0.0,1.4,0.06,0.0,0.1,-0.16,141.0,-1.19,2.88,0.21,0.03,-0.38,-1.06,-0.81,4.13,164.98,194.0,0.0,0.0,0.0,0.0
1776452654315083777,81741,0.0,1.1,0.068,0.3,0.23,-0.02,141.5,-1.12,2.69,0.28,-0.0,-0.32,-1.94,-0.75,5.31,161.38,194.0,0.0,0.0,0.0,0.0
1776452654417457796,81841,0.0,1.2,0.072,0.7,0.06,-0.18,142.13,-1.06,2.31,0.28,0.09,-0.37,0.12,-0.12,7.81,161.38,196.0,0.0,0.0,0.0,0.0
1776452654515788350,81941,0.0,1.2,0.0,1.1,0.02,-0.16,143.0,-1.0,2.25,0.1,-0.02,-0.28,-0.88,-0.19,10.69,165.5,193.0,0.0,0.0,0.0,0.0
1776452654614122126,82041,0.084,0.5,0.0,1.6,0.06,0.0,144.25,-0.94,1.94,0.45,0.03,-0.35,-1.81,-0.63,13.69,165.15,193.0,0.0,0.0,0.0,0.0
1776452654716500090,82141,0.092,0.2,0.0,1.5,0.1,-0.08,145.56,-0.81,1.81,0.18,-0.02,-0.36,2.69,-0.75,13.06,165.5,191.0,0.0,0.0,0.0,0.0
1776452654814777016,82241,0.088,0.1,0.0,1.5,0.14,-0.04,146.63,-0.69,2.13,0.03,-0.02,-0.3,1.94,-1.5,9.5,164.98,184.0,0.0,0.0,0.0,0.0
1776452654913058553,82340,0.0,1.2,0.072,0.3,0.12,-0.08,147.31,-0.5,2.19,0.26,0.04,-0.36,1.19,-1.06,5.0,164.98,184.0,0.0,0.0,0.0,0.0
1776452655015472053,82440,0.0,0.1,0.0,1.2,0.0,-0.1,147.63,-0.37,2.38,0.02,-0.0,-0.41,6.75,-1.19,1.12,164.98,186.0,0.0,0.0,0.0,0.0
1776452655113745034,82541,0.084,0.3,0.0,1.2,-0.06,-0.1,147.63,-0.19,3.06,-0.55,0.07,-0.27,5.19,-1.63,0.63,160.87,184.0,0.0,0.0,0.0,0.0
1776452655216209605,82640,0.088,0.3,0.0,1.2,0.18,-0.08,147.81,-0.06,3.56,-0.12,0.1,-0.36,-1.81,-0.06,3.38,164.98,184.0,0.0,0.0,0.0,0.0
1776452655314451439,82740,0.0,1.0,0.072,0.3,-0.08,-0.16,148.25,-0.06,3.75,-0.39,-0.0,-0.39,1.94,0.5,4.25,164.98,197.0,0.0,0.0,0.0,0.0
1776452655412736808,82840,0.0,1.2,0.08,0.5,0.14,-0.25,148.69,-0.06,4.13,-0.23,-0.06,-0.32,-0.63,-0.06,5.44,164.98,197.0,0.0,0.0,0.0,0.0
1776452655515140659,82939,0.0,0.8,0.072,0.3,0.1,-0.02,149.19,-0.0,4.19,-0.09,-0.0,-0.33,0.75,0.31,3.94,164.98,196.0,0.0,0.0,0.0,0.0
1776452655613450472,83039,0.0,0.6,0.072,0.2,0.0,-0.12,149.44,-0.0,4.19,0.27,-0.07,-0.34,-2.19,-0.31,1.44,164.98,199.0,0.0,0.0,0.0,0.0
1776452655715824453,83140,0.0,1.0,0.068,0.6,0.08,-0.06,149.5,-0.0,3.88,0.08,-0.0,-0.34,1.31,0.69,-0.63,164.98,199.0,0.0,0.0,0.0,0.0
1776452655814141767,83239,0.0,1.0,0.06,0.4,0.1,-0.1,149.38,-0.12,4.0,0.02,-0.17,-0.28,-1.12,0.37,-1.75,164.98,187.0,0.0,0.0,0.0,0.0
1776452655916523377,83339,0.0,0.7,0.068,0.2,0.12,-0.08,149.13,-0.19,3.88,0.07,-0.08,-0.35,1.12,-0.12,-3.13,160.87,196.0,0.0,0.0,0.0,0.0
1776452656014830338,83439,0.0,0.0,0.0,1.5,0.1,-0.08,148.75,-0.19,3.88,0.08,-0.0,-0.41,-0.25,0.19,-4.25,164.98,196.0,0.0,0.0,0.0,0.0
1776452656113117078,83538,0.08,0.2,0.0,1.5,0.08,-0.12,148.38,-0.25,3.94,-0.16,-0.0,-0.37,-0.19,1.12,-3.0,164.98,188.0,0.0,0.0,0.0,0.0
1776452656215525890,83638,0.0,0.2,0.0,1.1,0.12,-0.1,148.25,-0.37,4.13,-0.35,0.03,-0.31,0.94,1.12,0.06,164.98,188.0,0.0,0.0,0.0,0.0
1776452656313785908,83738,0.068,0.3,0.0,1.0,0.14,0.0,148.38,-0.44,4.31,-0.21,-0.02,-0.35,-0.63,0.75,2.06,164.98,189.0,0.0,0.0,0.0,0.0
1776452656412077147,83837,0.068,0.3,0.0,0.3,0.12,-0.04,148.63,-0.5,4.38,-0.21,-0.06,-0.37,-0.5,0.19,2.75,161.38,183.0,0.0,0.0,0.0,0.0
1776452656514510237,83937,0.0,0.6,0.076,0.3,0.06,-0.12,148.88,-0.5,4.44,-0.04,-0.08,-0.36,-1.88,-0.25,1.69,162.58,183.0,0.0,0.0,0.0,0.0
1776452656612792661,84038,0.0,0.7,0.0,-0.1,-0.04,-0.14,149.06,-0.44,4.25,0.29,-0.0,-0.35,-0.88,-0.06,2.0,162.41,186.0,0.0,0.0,0.0,0.0
1776452656715196363,84139,0.0,0.4,0.0,1.0,-0.2,0.0,149.25,-0.44,4.13,0.11,-0.0,-0.34,-0.0,0.56,1.88,166.01,192.0,0.0,0.0,0.0,0.0
1776452656817617082,84240,0.08,0.2,0.0,0.9,0.14,-0.14,149.5,-0.44,4.0,0.3,-0.06,-0.32,-2.25,-0.31,4.0,164.98,192.0,0.0,0.0,0.0,0.0
1776452656915872063,84341,0.084,0.1,0.0,1.1,0.02,-0.04,150.06,-0.37,3.25,0.69,0.04,-0.36,-2.31,-0.5,7.44,161.38,191.0,0.0,0.0,0.0,0.0
1776452657018284561,84442,0.092,0.2,0.0,1.1,0.0,0.1,150.94,-0.31,2.94,0.08,-0.03,-0.36,1.19,0.88,9.44,165.5,185.0,0.0,0.0,0.0,0.0
1776452657120673003,84543,0.08,0.1,0.0,1.1,0.04,-0.06,151.94,-0.31,2.88,0.07,-0.02,-0.34,-1.56,-0.12,11.38,161.38,185.0,0.0,0.0,0.0,0.0
1776452657219016036,84642,0.0,1.0,0.068,0.1,0.06,-0.02,153.06,-0.25,2.81,0.0,-0.03,-0.39,0.81,0.06,11.13,161.38,203.0,0.0,0.0,0.0,0.0
1776452657317218240,84742,0.0,1.0,0.0,1.6,-0.08,-0.16,154.0,-0.19,2.88,-0.14,-0.02,-0.38,-0.5,-0.56,8.25,164.98,197.0,0.0,0.0,0.0,0.0
1776452657419630866,84842,0.084,1.2,0.068,0.1,0.1,-0.04,154.63,-0.06,2.88,-0.01,-0.0,-0.36,0.63,-0.94,4.81,164.98,197.0,0.0,0.0,0.0,0.0
1776452657517954196,84942,0.0,1.3,0.0,1.3,0.06,-0.14,155.0,-0.0,3.06,-0.18,-0.06,-0.37,1.5,-0.88,2.75,164.98,194.0,0.0,0.0,0.0,0.0
1776452657620347823,85042,0.072,0.2,0.068,0.3,-0.02,-0.14,155.19,0.06,3.19,-0.07,-0.0,-0.33,-0.75,-1.56,2.19,163.95,204.0,0.0,0.0,0.0,0.0
1776452657718657209,85142,0.0,1.0,0.064,0.6,0.0,0.08,155.44,0.19,3.19,0.04,0.07,-0.4,1.94,-0.37,2.5,165.5,204.0,0.0,0.0,0.0,0.0
1776452657816951040,85241,0.0,1.0,0.08,0.5,-0.12,-0.06,155.75,0.19,3.63,-0.29,-0.0,-0.32,2.63,0.06,4.25,165.5,188.0,0.0,0.0,0.0,0.0
1776452657919360018,85341,0.0,0.7,0.088,0.3,0.25,-0.08,156.25,0.25,3.94,-0.22,-0.01,-0.34,1.69,0.31,6.38,165.67,188.0,0.0,0.0,0.0,0.0
1776452658017638497,85441,0.0,1.0,0.0,1.4,0.04,-0.08,156.94,0.31,4.19,-0.13,-0.01,-0.39,1.69,-0.37,6.69,165.67,190.0,0.0,0.0,0.0,0.0
1776452658115942105,85540,0.072,0.4,0.0,1.4,0.02,-0.21,157.44,0.31,4.38,-0.11,-0.02,-0.34,1.06,-0.44,3.13,165.5,188.0,0.0,0.0,0.0,0.0
1776452658218332564,85641,0.08,0.3,0.0,0.3,0.04,-0.2,157.5,0.31,4.5,-0.14,-0.03,-0.31,1.56,-0.56,-1.88,164.98,188.0,0.0,0.0,0.0,0.0
1776452658316611247,85741,0.0,1.2,0.084,0.3,0.0,-0.04,157.13,0.37,4.56,0.04,-0.06,-0.38,1.06,-0.81,-4.31,164.98,197.0,0.0,0.0,0.0,0.0
1776452658418986670,85840,0.0,1.5,0.08,0.3,0.1,-0.1,156.75,0.44,4.63,0.18,-0.04,-0.33,0.06,-0.94,-3.5,165.67,198.0,0.0,0.0,0.0,0.0
1776452658517324220,85940,0.0,1.3,0.068,0.2,0.06,0.0,156.56,0.44,4.63,0.23,0.02,-0.37,1.5,-0.44,-1.06,164.98,198.0,0.0,0.0,0.0,0.0
1776452658615578237,86040,0.0,0.8,0.0,0.1,0.1,-0.1,156.56,0.44,4.75,-0.02,0.01,-0.34,2.75,-0.0,1.31,164.98,212.0,0.0,0.0,0.0,0.0
1776452658718000547,86140,0.0,1.0,0.0,1.2,-0.06,-0.12,156.75,0.44,5.13,-0.51,-0.0,-0.3,2.13,0.37,3.06,164.98,212.0,0.0,0.0,0.0,0.0
1776452658816300248,86240,0.0,0.6,0.072,0.4,0.02,-0.25,157.19,0.5,5.44,-0.13,-0.04,-0.37,-0.94,-0.37,5.81,164.98,182.0,0.0,0.0,0.0,0.0
1776452658918693559,86340,0.0,1.0,0.064,0.3,0.12,-0.1,157.81,0.5,5.56,-0.23,-0.04,-0.3,-0.44,-0.37,5.69,168.58,169.0,0.0,0.0,0.0,0.0
1776452659017007518,86440,0.0,0.1,0.0,1.5,-0.04,0.0,158.25,0.56,5.69,-0.28,-0.0,-0.34,0.88,-0.25,2.94,164.3,169.0,0.0,0.0,0.0,0.0
1776452659119395365,86540,0.076,0.2,0.0,1.6,0.14,0.02,158.44,0.56,5.81,-0.1,-0.02,-0.32,-0.81,-0.63,2.19,167.9,203.0,0.0,0.0,0.0,0.0
1776452659217698787,86640,0.08,0.1,0.0,0.4,-0.02,0.0,158.63,0.69,5.81,-0.01,-0.0,-0.27,-0.94,-0.81,0.94,168.07,184.0,0.0,0.0,0.0,0.0
1776452659315974598,86739,0.06,0.4,0.0,0.4,0.18,-0.12,158.63,0.69,5.75,0.11,-0.0,-0.29,-0.06,-0.63,-0.37,168.58,184.0,0.0,0.0,0.0,0.0
1776452659418347539,86839,0.0,0.9,0.0,1.4,-0.06,0.04,158.56,0.75,5.5,0.36,-0.0,-0.32,-1.12,-0.63,-0.75,168.58,189.0,0.0,0.0,0.0,0.0
1776452659516687663,86939,0.0,0.4,0.072,0.0,0.14,0.06,158.44,0.75,5.31,0.3,0.01,-0.32,-0.75,-0.69,-1.12,168.58,199.0,0.0,0.0,0.0,0.0
1776452659614990529,87038,0.088,0.2,0.0,0.6,0.08,0.02,158.44,0.81,5.25,0.25,-0.0,-0.26,-1.44,-0.31,0.5,168.07,199.0,0.0,0.0,0.0,0.0
1776452659717368581,87138,0.0,1.4,0.064,0.3,0.0,-0.12,158.63,0.81,4.81,0.4,0.03,-0.36,-0.81,-0.25,3.5,164.47,204.0,0.0,0.0,0.0,0.0
1776452659815718427,87239,0.0,1.2,0.08,0.4,0.2,-0.08,159.13,0.88,4.75,0.02,-0.02,-0.27,-0.69,-0.56,5.56,163.27,202.0,0.0,0.0,0.0,0.0
1776452659918047258,87339,0.0,1.4,0.076,0.8,0.08,0.0,159.75,1.0,4.63,-0.08,-0.01,-0.32,0.5,-0.44,6.31,168.58,202.0,0.0,0.0,0.0,0.0
1776452660016349013,87439,0.0,1.4,0.088,0.6,0.2,-0.12,160.25,1.12,4.69,-0.17,0.02,-0.32,-1.94,-0.75,4.94,168.58,205.0,0.0,0.0,0.0,0.0
1776452660124715651,87539,0.0,0.6,0.088,0.2,0.06,0.02,160.69,1.19,4.56,-0.07,-0.0,-0.3,-1.44,-0.81,4.81,164.98,205.0,0.0,0.0,0.0,0.0
1776452660217050243,87639,0.0,0.3,0.0,1.5,-0.04,-0.1,161.19,1.31,4.44,0.07,0.01,-0.35,-1.88,-0.69,5.0,165.67,202.0,0.0,0.0,0.0,0.0
1776452660319395832,87740,0.088,0.4,0.0,1.5,-0.04,0.02,161.63,1.44,4.44,-0.23,-0.01,-0.3,1.12,-0.75,4.0,164.98,196.0,0.0,0.0,0.0,0.0
1776452660417757658,87839,0.0,1.4,0.0,1.4,-0.1,-0.14,162.0,1.56,4.5,-0.02,-0.0,-0.33,-1.31,-0.37,4.69,164.98,196.0,0.0,0.0,0.0,0.0
1776452660515989544,87939,0.084,0.4,0.0,1.1,-0.02,-0.18,162.44,1.56,4.38,0.07,-0.0,-0.3,-0.19,-0.25,3.5,164.98,200.0,0.0,0.0,0.0,0.0
1776452660618446000,88039,0.068,0.2,0.0,1.0,0.14,0.06,162.75,1.63,4.44,-0.27,0.07,-0.31,1.06,-0.19,2.94,168.58,199.0,0.0,0.0,0.0,0.0
1776452660716710274,88138,0.0,1.0,0.068,0.5,0.18,0.08,163.0,1.69,4.56,0.1,-0.06,-0.32,-3.13,-0.37,2.31,168.58,199.0,0.0,0.0,0.0,0.0
1776452660819160267,88239,0.0,0.2,0.0,1.5,0.02,-0.04,163.19,1.75,4.5,-0.11,0.03,-0.31,1.81,-0.0,1.81,164.47,215.0,0.0,0.0,0.0,0.0
1776452660927471167,88340,0.084,0.0,0.0,1.6,-0.02,-0.14,163.44,1.75,4.38,0.17,0.03,-0.32,0.63,-0.69,2.44,164.47,215.0,0.0,0.0,0.0,0.0
1776452661019852905,88440,0.064,0.3,0.068,0.0,0.06,-0.08,163.69,1.81,4.38,0.06,0.02,-0.29,-1.81,-0.19,3.0,168.58,197.0,0.0,0.0,0.0,0.0
1776452661118112345,88540,0.0,1.2,0.0,1.2,0.14,-0.14,163.94,1.81,4.38,-0.23,0.06,-0.25,0.81,-0.06,2.0,168.58,187.0,0.0,0.0,0.0,0.0
1776452661220507894,88640,0.084,-0.1,0.0,1.3,0.04,-0.06,164.13,1.88,4.25,0.24,0.01,-0.31,-2.5,-0.75,1.75,168.58,187.0,0.0,0.0,0.0,0.0
1776452661318753446,88741,0.088,0.1,0.056,0.3,0.06,-0.1,164.25,1.94,4.06,0.14,0.07,-0.3,-0.06,0.56,1.63,164.98,198.0,0.0,0.0,0.0,0.0
1776452661421155736,88841,0.0,0.7,0.068,0.3,0.08,-0.12,164.5,1.88,4.06,-0.09,-0.0,-0.26,0.25,0.75,3.06,168.58,202.0,0.0,0.0,0.0,0.0
1776452661519490562,88941,0.0,0.9,0.072,0.0,0.0,-0.14,164.81,1.88,3.94,-0.03,-0.05,-0.29,-1.31,0.19,4.06,168.58,202.0,0.0,0.0,0.0,0.0
1776452661617776390,89040,0.0,0.9,0.0,1.5,0.1,-0.04,165.19,1.94,3.88,0.0,0.03,-0.31,-0.88,0.12,3.0,164.3,205.0,0.0,0.0,0.0,0.0
1776452661720180236,89140,0.088,0.1,0.0,1.5,0.04,-0.04,165.38,1.94,3.75,0.07,-0.02,-0.33,-1.63,0.44,1.12,164.3,177.0,0.0,0.0,0.0,0.0
1776452661818481934,89240,0.08,0.1,0.076,0.3,0.27,-0.1,165.38,1.88,3.69,-0.02,0.02,-0.3,-0.44,0.94,-0.81,164.3,177.0,0.0,0.0,0.0,0.0
1776452661920858243,89339,0.0,1.3,0.088,0.2,0.08,-0.02,165.38,1.81,3.75,-0.13,-0.09,-0.33,-1.25,0.37,-0.12,164.3,194.0,0.0,0.0,0.0,0.0
1776452665484578775,89440,0.0,1.1,0.06,0.1,0.06,0.0,165.31,1.88,3.56,0.08,-0.0,-0.32,-1.12,-0.56,-0.81,164.3,193.0,0.0,0.0,0.0,0.0
1776452665490276280,89540,0.0,1.2,0.0,1.1,-0.12,-0.08,165.25,1.88,3.38,0.22,-0.0,-0.3,-2.13,-0.12,-0.69,168.58,193.0,0.0,0.0,0.0,0.0
1776452665494843764,89640,0.088,0.2,0.0,1.3,0.12,-0.16,165.25,1.88,3.31,-0.11,0.02,-0.29,-0.88,0.94,-0.19,164.3,181.0,0.0,0.0,0.0,0.0
1776452665500244889,89740,0.0,0.7,0.0,1.2,0.08,-0.1,165.31,1.75,3.13,0.22,-0.05,-0.3,-2.0,0.31,1.19,168.58,181.0,0.0,0.0,0.0,0.0
1776452665504523068,89840,0.088,0.2,0.0,1.2,-0.02,-0.14,165.44,1.75,2.88,0.15,-0.03,-0.32,-0.94,0.56,1.75,168.58,210.0,0.0,0.0,0.0,0.0
1776452665521034026,89939,0.088,-0.1,0.0,1.6,0.2,-0.06,165.69,1.75,2.75,0.12,-0.04,-0.3,-2.44,0.19,3.06,168.58,216.0,0.0,0.0,0.0,0.0
1776452665529320189,90039,0.084,0.3,0.06,0.5,0.18,-0.12,166.0,1.75,2.5,0.08,-0.05,-0.34,-1.0,-0.0,3.69,165.67,216.0,0.0,0.0,0.0,0.0
1776452665542839056,90140,0.0,1.3,0.08,0.5,0.16,-0.14,166.31,1.81,2.44,-0.1,-0.07,-0.26,-1.75,-0.5,1.94,164.98,208.0,0.0,0.0,0.0,0.0
1776452665554793769,90240,0.0,1.4,0.0,1.2,0.29,-0.04,166.38,1.81,2.25,-0.01,-0.02,-0.31,-1.0,-0.25,0.69,168.58,187.0,0.0,0.0,0.0,0.0
1776452665623414461,90341,0.064,0.1,0.0,1.1,0.0,-0.04,166.44,1.81,2.13,-0.01,-0.02,-0.32,-1.69,-0.37,0.37,164.98,187.0,0.0,0.0,0.0,0.0
1776452665635868029,90441,0.088,0.1,0.0,1.6,0.02,-0.23,166.44,1.81,2.0,0.16,-0.03,-0.28,-2.0,-0.12,0.56,164.98,198.0,0.0,0.0,0.0,0.0
1776452665649427117,90541,0.0,1.3,0.064,0.0,-0.06,0.0,166.44,1.81,1.94,-0.05,-0.02,-0.27,-0.12,-0.56,0.31,164.98,180.0,0.0,0.0,0.0,0.0
1776452666331854048,90641,0.0,1.2,0.08,0.4,0.12,0.0,166.44,1.81,1.88,-0.03,-0.02,-0.32,-0.56,-0.37,0.12,164.98,180.0,0.0,0.0,0.0,0.0
1776452666334659144,90741,0.0,0.3,0.06,0.2,0.0,-0.08,166.5,1.81,1.81,0.27,-0.01,-0.33,-2.31,-0.63,0.94,164.98,195.0,0.0,0.0,0.0,0.0
1776452666347542087,90841,0.0,0.9,0.064,0.1,0.02,-0.12,166.63,1.88,1.56,0.18,-0.06,-0.34,-0.31,-0.88,2.38,165.15,195.0,0.0,0.0,0.0,0.0
1776452666360826665,90941,0.0,0.1,0.0,1.7,0.18,0.06,166.88,1.94,1.5,-0.01,-0.0,-0.26,-0.25,-0.94,2.75,164.98,202.0,0.0,0.0,0.0,0.0
1776452666426172368,91040,0.076,0.1,0.0,1.5,0.04,-0.04,167.13,2.0,1.44,0.08,-0.0,-0.36,-0.19,-0.69,2.13,161.55,178.0,0.0,0.0,0.0,0.0
1776452666439225139,91141,0.0,1.1,0.0,1.3,0.0,-0.06,167.38,2.13,1.37,0.0,-0.04,-0.32,-0.94,-0.88,3.63,165.67,178.0,0.0,0.0,0.0,0.0
1776452666451140168,91241,0.08,0.1,0.0,0.2,0.02,-0.04,167.75,2.19,1.31,-0.08,-0.03,-0.32,-0.25,-1.06,3.19,161.38,200.0,0.0,0.0,0.0,0.0
1776452666524480599,91340,0.0,0.1,0.0,1.4,0.18,0.02,167.94,2.31,1.19,0.19,-0.03,-0.33,-2.56,-1.5,-0.06,166.18,210.0,0.0,0.0,0.0,0.0
1776452666536952777,91440,0.08,0.0,0.0,1.4,0.02,-0.14,167.75,2.38,1.31,-0.23,-0.0,-0.24,1.44,0.31,-2.19,166.18,210.0,0.0,0.0,0.0,0.0
1776452666549931310,91541,0.084,0.0,0.0,1.4,0.02,-0.14,167.56,2.38,1.06,0.46,0.03,-0.35,-1.37,-0.5,-2.0,166.18,197.0,0.0,0.0,0.0,0.0
1776452666562931212,91640,0.088,1.2,0.088,0.6,0.12,-0.1,167.31,2.31,1.19,-0.19,0.17,-0.27,3.31,3.13,-2.88,166.18,189.0,0.0,0.0,0.0,0.0
1776452666626865830,91741,0.0,0.3,0.0,0.4,0.08,0.0,167.25,2.06,1.12,0.5,-0.03,-0.35,-3.44,0.5,0.94,166.18,189.0,0.0,0.0,0.0,0.0
1776452666640100632,91841,0.0,0.6,0.088,0.2,0.16,-0.14,167.31,1.88,1.31,-0.24,0.21,-0.31,5.56,5.0,0.44,166.01,203.0,0.0,0.0,0.0,0.0
1776452666652467943,91940,0.0,1.1,0.0,1.3,0.06,-0.18,167.38,1.25,1.81,-0.25,-0.15,-0.34,1.31,5.25,1.63,166.18,203.0,0.0,0.0,0.0,0.0
1776452667361355880,92041,0.092,0.1,0.0,1.6,0.06,-0.23,167.63,0.88,2.06,-0.23,-0.08,-0.32,2.13,3.0,2.13,166.18,203.0,0.0,0.0,0.0,0.0
1776452667425649617,92141,0.084,0.3,0.0,0.9,-0.04,-0.02,167.69,0.56,2.25,-0.13,-0.03,-0.36,1.81,2.69,-0.81,165.5,197.0,0.0,0.0,0.0,0.0
1776452667438438396,92241,0.0,1.4,0.064,0.2,0.04,-0.1,167.5,0.31,2.38,0.13,-0.07,-0.33,-0.81,1.94,-2.69,165.67,197.0,0.0,0.0,0.0,0.0
1776452667451672512,92341,0.0,1.2,0.072,0.4,0.02,0.08,167.25,0.06,2.5,-0.16,0.04,-0.33,2.25,3.0,-2.0,161.38,183.0,0.0,0.0,0.0,0.0
