timestamp_ns,time_ms,voltage_left,current_left_ma,voltage_right,current_right_ma,motor_current_left,motor_current_right,euler_x,euler_y,euler_z,acc_lin_x,acc_lin_y,acc_lin_z,gyro_x,gyro_y,gyro_z,sonar_mm,tof_mm,rpm_left,rpm_right,rotations_left,rotations_right
1776370067512333743,48821,0.004,0.3,0.0,0.3,0.0,-0.04,161.88,-1.56,13.5,0.02,-0.04,-0.21,-1.37,-0.06,0.37,859.21,2308.0,0.0,0.0,0.0,
1776370067606376512,1893,0.012,0.2,0.0,0.4,-0.02,0.0,2.5,-1.25,8.56,0.32,0.16,-0.73,-4.19,2.0,4.81,873.79,1370.0,0.0,0.0,0.0,0.0
1776370068021435428,1993,0.008,0.1,0.0,0.7,-0.08,-0.2,3.0,-1.44,8.44,0.19,-0.21,-0.4,1.5,2.88,2.44,897.8,3129.0,0.0,0.0,0.0,0.0
1776370068037864000,2094,0.0,0.4,0.0,0.6,-0.02,-0.04,2.88,-1.56,8.56,0.0,-0.05,-0.34,2.06,-1.81,-2.44,972.23,3129.0,0.0,0.0,0.0,0.0
1776370068093894070,2194,0.0,0.4,0.0,0.7,0.02,-0.02,2.69,-1.44,8.63,0.09,0.11,-0.19,-2.44,0.12,-1.19,902.95,1616.0,0.0,0.0,0.0,0.0
1776370068107465515,2293,0.0,0.1,0.0,0.5,-0.14,-0.02,2.63,-1.5,8.31,0.09,-0.01,-0.37,-2.31,1.0,-1.0,11932.28,1974.0,0.0,0.0,0.0,0.0
1776370068119771881,2393,0.0,0.9,0.0,0.8,-0.06,-0.1,2.44,-1.5,8.13,0.18,-0.01,-0.38,-1.75,-2.13,-2.5,11927.48,1189.0,0.0,0.0,0.0,0.0
1776370068204416577,2493,0.04,0.2,0.0,0.4,-0.04,0.04,2.19,-1.37,8.0,0.3,-0.0,-0.42,1.25,0.12,-2.88,948.39,1189.0,0.0,0.0,0.0,0.0
1776370068306880828,2593,0.0,0.7,0.0,0.3,0.08,0.02,1.88,-1.56,8.25,-0.23,0.04,-0.22,1.5,1.19,-4.0,891.97,1261.0,0.0,0.0,0.0,0.0
1776370068405199000,2693,0.028,0.3,0.0,0.1,-0.02,-0.14,1.63,-1.56,8.13,0.18,0.05,-0.26,-3.19,-0.19,-1.75,897.63,1261.0,0.0,0.0,0.0,0.0
1776370068507604947,2793,0.016,0.2,0.0,0.8,-0.06,-0.06,1.5,-1.56,7.88,0.71,0.05,-0.28,0.69,0.37,-0.56,898.15,1100.0,0.0,0.0,0.0,0.0
1776370068605900321,2893,0.012,0.3,0.004,0.9,-0.06,-0.04,1.63,-1.44,7.81,-0.64,0.17,-0.12,1.44,-0.88,1.69,911.52,2329.0,0.0,0.0,0.0,0.0
1776370068708348922,2993,0.004,0.2,0.0,0.5,-0.06,-0.06,1.81,-1.44,7.31,-0.24,-0.05,-0.09,-8.0,1.69,-1.31,900.72,2329.0,0.0,0.0,0.0,0.0
1776370068806649703,3093,0.0,0.3,0.0,0.7,0.0,-0.12,1.31,-1.63,6.88,-0.06,-0.25,-0.27,0.19,-1.44,-6.81,925.07,1222.0,0.0,0.0,0.0,0.0
1776370068904980673,3192,0.0,0.2,0.0,0.8,-0.14,0.04,0.88,-1.25,7.13,-0.4,-0.09,0.0,1.88,-9.38,-0.63,903.46,1222.0,0.0,0.0,0.0,0.0
1776370069007372488,3292,0.004,0.5,0.0,1.2,0.1,-0.02,0.75,-0.25,7.31,-0.24,0.21,-0.52,-0.37,-7.69,-1.56,948.39,1525.0,0.0,0.0,0.0,0.0
1776370069105685186,3392,0.004,0.1,0.0,1.2,0.06,-0.18,0.56,-0.37,7.06,0.2,0.12,-0.57,-4.56,11.88,-3.38,928.16,1444.0,0.0,0.0,0.0,0.0
1776370069204063632,3491,0.04,0.3,0.0,0.5,0.02,0.0,0.75,-1.69,6.56,0.07,-0.41,-0.3,-5.44,10.44,6.88,938.96,1444.0,0.0,0.0,0.0,0.0
1776370069306403859,3591,0.036,0.3,0.0,0.5,-0.06,-0.1,2.0,-1.94,6.06,-0.2,-0.13,-0.32,-8.25,-3.06,17.94,944.79,2175.0,0.0,0.0,0.0,0.0
1776370069404709647,3691,0.028,0.3,0.0,0.4,-0.02,-0.08,3.44,-1.69,5.25,-0.03,0.12,-0.64,-9.06,0.63,9.56,968.46,2074.0,0.0,0.0,0.0,0.0
1776370069507156332,3791,0.0,0.4,0.0,1.1,0.02,-0.23,4.19,-1.81,4.5,0.79,0.19,-0.84,-0.69,5.63,3.19,994.53,2074.0,0.0,0.0,0.0,0.0
1776370069605393983,3891,0.0,0.4,0.0,1.0,0.08,-0.04,4.38,-2.31,5.44,0.25,-0.02,-0.57,18.44,3.06,0.37,11929.54,1070.0,0.0,0.0,0.0,0.0
1776370069703723571,3991,0.0,0.0,0.0,0.7,0.0,-0.12,4.31,-2.44,6.88,0.15,-0.03,-0.31,5.06,-0.19,-2.44,1050.78,1070.0,0.0,0.0,0.0,0.0
1776370069865439582,4090,0.0,0.2,0.0,0.7,-0.08,-0.2,4.06,-2.25,6.94,0.08,0.19,0.01,-0.25,-1.81,-2.38,950.28,1063.0,0.0,0.0,0.0,0.0
1776370069904492306,4190,0.0,0.1,0.0,0.8,0.0,-0.14,3.88,-2.44,7.0,-0.17,0.04,-0.49,1.06,3.56,-1.94,948.22,1561.0,0.0,0.0,0.0,0.0
1776370070002769221,4290,0.0,0.4,0.0,0.4,-0.04,0.0,3.75,-2.63,7.13,-0.38,-0.09,-0.22,-1.56,0.69,-1.12,962.46,1561.0,0.0,0.0,0.0,0.0
1776370070105201768,4389,0.0,0.2,0.0,0.6,-0.02,-0.16,3.88,-2.56,7.31,0.47,-0.0,-0.22,5.06,-0.0,2.44,1042.03,2146.0,0.0,0.0,0.0,0.0
1776370070211422699,4489,0.028,0.2,0.0,0.8,-0.06,-0.08,3.88,-2.75,7.63,0.24,-0.07,-0.44,5.38,1.12,-1.31,11929.71,637.0,0.0,0.0,0.0,0.0
1776370070305940151,4589,0.032,0.3,0.0,0.2,-0.18,-0.08,3.88,-2.56,8.19,0.03,0.03,-0.2,5.88,-2.38,2.38,937.76,637.0,0.0,0.0,0.0,0.0
1776370070404244403,4689,0.02,0.5,0.004,0.6,0.02,-0.06,4.19,-2.44,8.5,0.08,0.07,0.17,-0.44,0.75,3.69,958.69,1321.0,0.0,0.0,0.0,0.0
1776370070506617119,4790,0.004,0.5,0.008,0.6,0.04,-0.06,4.56,-2.5,8.0,-0.09,-0.02,-0.36,-8.13,0.56,3.81,950.97,1198.0,0.0,0.0,0.0,0.0
1776370070617014990,4891,0.0,0.5,0.0,1.1,0.0,-0.16,4.94,-2.56,7.31,0.19,-0.08,-0.52,-5.31,1.44,3.06,11928.17,1294.0,0.0,0.0,0.0,0.0
1776370070707383949,4992,0.0,0.3,0.0,1.2,-0.02,-0.02,5.0,-2.75,6.94,0.12,-0.17,-0.43,-0.81,0.06,-1.31,1025.91,1294.0,0.0,0.0,0.0,0.0
1776370070805681274,5092,0.0,0.2,0.0,0.7,0.14,-0.14,4.81,-2.75,6.88,0.14,-0.08,-0.36,-0.94,-0.75,-2.63,957.48,1921.0,0.0,0.0,0.0,0.0
1776370070916025398,5191,0.0,0.7,0.0,0.7,0.1,0.04,4.63,-2.75,6.81,0.16,-0.02,-0.27,-0.19,0.19,-1.63,11929.03,1871.0,0.0,0.0,0.0,0.0
1776370071014361099,5292,0.0,0.0,0.0,0.1,-0.08,0.04,4.5,-2.81,6.75,0.01,-0.02,-0.34,-1.06,-0.37,-0.94,11931.6,1871.0,0.0,0.0,0.0,0.0
1776370071116836973,5392,0.0,0.1,0.0,0.5,-0.14,-0.04,4.44,-2.81,6.69,0.09,-0.01,-0.38,-1.06,1.25,-0.88,11928.85,1488.0,0.0,0.0,0.0,0.0
1776370071207127683,5492,0.032,-0.1,0.0,0.9,0.16,-0.2,4.38,-2.88,6.63,0.07,0.01,-0.47,0.37,-0.0,-0.44,942.91,1488.0,0.0,0.0,0.0,0.0
1776370071309541067,5593,0.028,0.2,0.0,0.9,0.2,-0.1,4.38,-2.94,6.69,0.05,-0.0,-0.35,1.75,1.81,0.25,953.54,492.0,0.0,0.0,0.0,0.0
1776370071407861331,5694,0.02,1.0,0.008,0.3,-0.12,-0.02,4.38,-3.06,6.81,0.05,-0.03,-0.27,0.69,-0.25,0.44,948.39,492.0,0.0,0.0,0.0,0.0
1776370071510219820,5793,0.0,0.3,0.0,0.1,-0.14,0.0,4.38,-3.06,6.81,0.15,-0.08,-0.38,-0.37,-0.44,-0.19,940.33,2545.0,0.0,0.0,0.0,0.0
1776370071618601484,5894,0.0,0.3,0.0,1.0,0.06,0.08,4.38,-3.06,6.81,0.42,-0.06,-0.5,2.69,-0.12,0.81,940.16,1605.0,0.0,0.0,0.0,0.0
1776370071719022009,5995,0.0,0.5,0.0,0.2,-0.02,-0.02,4.5,-3.0,6.88,0.55,0.05,-0.49,11.38,-2.25,1.5,11928.0,2642.0,0.0,0.0,0.0,0.0
1776370071813424305,6095,0.008,0.1,0.0,0.7,0.12,-0.1,4.56,-3.06,8.13,-0.56,0.17,-0.37,10.88,4.44,-0.31,987.67,2642.0,0.0,0.0,0.0,0.0
1776370071911701341,6196,0.0,0.1,0.0,0.9,-0.12,-0.06,4.56,-3.63,8.19,-0.58,-0.04,-0.1,-9.63,5.69,0.19,932.96,891.0,0.0,0.0,0.0,0.0
1776370072022066266,6297,0.004,-0.2,0.0,1.1,-0.06,0.04,4.75,-3.94,6.94,0.24,-0.16,-0.08,-13.13,1.12,2.25,11927.31,1049.0,0.0,0.0,0.0,0.0
1776370072114452964,6397,0.0,0.1,0.0,0.9,-0.04,0.06,5.06,-3.88,6.38,0.23,-0.11,-0.46,0.06,0.06,2.38,11928.68,1049.0,0.0,0.0,0.0,0.0
1776370072214886875,6497,0.044,0.4,0.0,1.2,0.04,0.04,5.13,-3.88,6.69,-0.16,-0.21,-0.54,4.5,-2.31,0.44,970.35,1049.0,0.0,0.0,0.0,0.0
1776370072313147080,6597,0.036,0.2,0.0,1.1,-0.25,0.0,4.94,-3.94,7.13,-0.01,-0.26,-0.62,1.0,-2.44,-2.5,931.76,848.0,0.0,0.0,0.0,0.0
1776370072411443696,6696,0.0,0.9,0.0,1.0,-0.04,0.02,5.06,-3.5,7.0,0.02,0.02,-0.34,-1.06,-8.38,4.63,992.47,1645.0,0.0,0.0,0.0,0.0
1776370072513837085,6796,0.0,0.4,0.0,1.0,-0.12,0.02,5.69,-2.75,6.94,0.02,0.53,0.02,0.75,-1.75,9.56,920.95,1645.0,0.0,0.0,0.0,0.0
1776370072612188949,6896,0.008,0.6,0.0,0.9,-0.08,0.04,6.56,-2.88,7.25,-0.1,0.1,-0.61,1.56,3.25,5.69,913.92,1877.0,0.0,0.0,0.0,0.0
1776370072710504956,6995,0.004,0.1,0.0,1.1,0.18,-0.04,7.06,-2.38,7.38,-0.18,0.18,-0.35,1.0,-7.38,6.25,950.8,1264.0,0.0,0.0,0.0,0.0
1776370072812900494,7095,0.0,0.4,0.0,0.5,0.1,-0.16,7.88,-1.75,7.81,-0.25,0.15,-0.51,4.38,0.44,9.13,918.38,1264.0,0.0,0.0,0.0,0.0
1776370072911219409,7195,0.0,0.2,0.0,1.0,0.0,-0.02,8.5,-1.81,8.38,-0.12,-0.07,-0.43,3.19,-0.25,5.0,929.19,1582.0,0.0,0.0,0.0,0.0
1776370073019598717,7294,0.0,1.0,0.0,0.9,-0.06,0.1,8.94,-1.63,8.69,0.12,0.04,-0.12,2.56,-1.5,2.81,909.64,925.0,0.0,0.0,0.0,0.0
1776370073111945313,7395,0.0,0.2,0.0,0.6,-0.08,-0.04,9.0,-1.56,8.88,0.0,-0.07,0.16,1.5,-0.12,-0.75,908.26,925.0,0.0,0.0,0.0,0.0
1776370073214351444,7495,0.04,0.5,0.028,0.2,0.0,-0.18,9.0,-1.56,8.88,-0.07,-0.06,0.08,-1.94,0.75,-0.63,941.88,1554.0,0.0,0.0,0.0,0.0
1776370073312636776,7596,0.036,0.3,0.0,1.1,-0.1,0.04,8.81,-1.63,8.63,0.05,-0.02,0.0,-2.44,-0.88,-2.31,11927.83,2367.0,0.0,0.0,0.0,0.0
1776370073415014867,7696,0.02,0.2,0.0,0.9,0.02,-0.06,8.56,-1.63,8.44,-0.02,-0.03,-0.03,-0.44,-0.06,-2.88,11925.77,1533.0,0.0,0.0,0.0,0.0
1776370073513388321,7796,0.0,1.0,0.0,0.5,0.06,-0.12,8.31,-1.69,8.44,-0.03,-0.03,0.1,-0.06,0.06,-2.13,980.47,1533.0,0.0,0.0,0.0,0.0
1776370073615794174,7896,0.016,0.3,0.0,0.9,0.02,-0.06,8.13,-1.69,8.44,0.0,-0.0,0.05,-1.0,-0.25,-2.5,994.36,1533.0,0.0,0.0,0.0,0.0
1776370073714111621,7996,0.004,0.1,0.0,0.6,0.16,-0.08,7.88,-1.69,8.31,0.04,-0.01,-0.03,-0.75,-0.56,-1.69,974.29,282.0,0.0,0.0,0.0,0.0
1776370073812418622,8096,0.008,0.5,0.0,0.2,-0.04,0.0,7.81,-1.69,8.31,-0.04,-0.04,0.04,0.81,-0.94,-0.44,969.32,1078.0,0.0,0.0,0.0,0.0
1776370073914845941,8196,0.0,0.9,0.0,0.9,0.2,-0.06,7.81,-1.63,8.31,0.08,-0.02,0.07,-0.69,0.44,-0.94,960.4,1078.0,0.0,0.0,0.0,0.0
1776370074013138996,8296,0.0,0.3,0.0,0.5,0.0,-0.02,7.88,-1.69,8.25,0.38,0.07,0.13,0.25,3.88,4.56,947.71,1820.0,0.0,0.0,0.0,0.0
1776370074111453725,8395,0.0,0.2,0.0,0.5,-0.08,-0.14,8.25,-2.38,8.19,0.06,-0.52,0.64,1.06,7.56,2.5,915.98,1333.0,0.0,0.0,0.0,0.0
1776370074213858478,8495,0.0,0.9,0.0,0.7,0.1,-0.1,8.38,-2.63,8.0,0.54,-0.18,0.35,3.63,-5.13,-1.0,960.57,1333.0,0.0,0.0,0.0,0.0
1776370074312186078,8595,0.036,0.1,0.024,1.0,-0.02,-0.04,8.0,-2.06,8.13,-0.02,-0.12,0.04,-0.25,-7.31,-3.56,941.36,1180.0,0.0,0.0,0.0,0.0
1776370074410428836,8694,0.0,0.4,0.016,0.3,0.06,-0.1,7.69,-1.81,7.5,0.22,0.02,-0.11,-8.13,0.19,-3.06,926.96,1180.0,0.0,0.0,0.0,0.0
1776370074512848720,8794,0.0,0.7,0.0,1.0,0.02,-0.14,7.38,-2.31,6.69,0.39,-0.41,-0.34,-5.0,2.31,-4.31,984.41,1282.0,0.0,0.0,0.0,0.0
1776370074611190896,8895,0.008,0.2,0.0,1.0,-0.08,0.0,6.94,-2.69,6.06,0.43,-0.35,-0.42,2.06,-5.63,-1.81,957.66,1416.0,0.0,0.0,0.0,0.0
1776370074713651508,8994,0.0,1.1,0.0,0.9,0.1,-0.16,6.94,-2.25,6.0,0.37,-0.1,-0.39,3.75,-8.56,2.94,968.12,1416.0,0.0,0.0,0.0,0.0
1776370074811924861,9094,0.004,0.2,0.0,0.6,0.02,-0.1,7.25,-1.69,6.19,0.23,-0.12,-0.37,3.06,-2.31,5.0,995.56,1295.0,0.0,0.0,0.0,0.0
1776370074914334541,9195,0.0,0.1,0.0,1.0,0.02,-0.08,8.13,-1.63,6.38,-0.25,-0.1,0.18,2.19,0.19,11.56,928.16,1074.0,0.0,0.0,0.0,0.0
1776370075014583256,9295,0.004,0.3,0.0,0.8,0.06,0.02,9.25,-1.63,7.06,-0.07,0.05,0.13,9.38,1.88,10.56,11930.57,1752.0,0.0,0.0,0.0,0.0
1776370075115057351,9395,0.004,0.0,0.0,1.1,-0.02,-0.02,10.25,-1.63,8.31,-0.46,0.48,0.37,13.75,3.38,11.0,933.65,1752.0,0.0,0.0,0.0,0.0
1776370075213384707,9495,0.0,0.3,0.0,0.7,0.0,-0.06,11.56,-1.69,9.69,-0.71,0.5,0.19,6.63,4.88,13.56,948.22,915.0,0.0,0.0,0.0,0.0
1776370075311674521,9594,0.036,0.3,0.0,0.9,0.12,0.1,12.63,-1.31,10.75,-0.97,0.28,0.51,-7.06,6.38,4.94,908.09,915.0,0.0,0.0,0.0,0.0
1776370075414039957,9694,0.028,0.2,0.02,1.1,-0.04,-0.21,12.69,-1.31,10.31,-0.66,0.31,0.47,-12.44,-0.31,-5.31,11929.03,2249.0,0.0,0.0,0.0,0.0
1776370075512345014,9794,0.0,0.6,0.0,1.2,-0.02,-0.04,11.38,-1.19,9.38,-0.15,0.18,0.16,-6.56,-3.69,-18.81,948.05,3040.0,0.0,0.0,0.0,0.0
1776370075620786127,9894,0.0,1.1,0.0,0.4,-0.02,-0.12,9.88,-0.63,8.94,-0.29,0.15,0.1,-6.63,-12.38,-11.88,983.72,3040.0,0.0,0.0,0.0,0.0
1776370075713120500,9994,0.0,1.0,0.0,0.9,-0.18,-0.1,9.13,0.19,8.31,0.36,0.43,-0.19,-5.5,-2.88,-3.25,952.68,1348.0,0.0,0.0,0.0,0.0
1776370075813397258,10093,0.004,0.0,0.0,1.2,-0.06,-0.18,8.63,0.19,7.88,0.83,0.05,-0.78,-4.06,-4.06,-10.44,11927.65,1817.0,0.0,0.0,0.0,0.0
1776370075913856610,10193,0.0,0.3,0.0,0.9,0.08,-0.14,7.25,1.12,6.56,0.81,0.24,-0.62,-6.44,-13.13,-12.19,991.27,1817.0,0.0,0.0,0.0,0.0
1776370076012145472,10293,0.0,0.3,0.004,0.5,-0.1,0.1,6.56,1.63,6.0,0.7,0.38,-0.34,5.31,10.31,-1.81,957.83,837.0,0.0,0.0,0.0,0.0
1776370076114562332,10393,0.0,0.0,0.0,1.1,0.06,0.0,6.5,-0.0,6.19,0.04,-0.19,0.08,6.75,23.62,-3.69,943.25,837.0,0.0,0.0,0.0,0.0
1776370076214813087,10493,0.04,0.7,0.0,0.8,0.0,0.04,6.44,-1.75,6.56,-0.73,-0.37,0.63,-0.31,9.19,0.37,11927.83,1880.0,0.0,0.0,0.0,0.0
1776370076311198645,10593,0.032,0.2,0.0,0.5,-0.12,0.02,6.19,-2.0,6.75,-0.48,-0.15,0.37,-4.0,-6.88,-8.75,1012.88,2531.0,0.0,0.0,0.0,0.0
1776370076413549794,10693,0.0,0.1,0.0,0.8,-0.14,-0.14,4.63,-1.63,6.88,-0.49,-0.43,0.4,-3.63,-10.06,-16.69,942.74,2531.0,0.0,0.0,0.0,0.0
1776370076511879859,10792,0.016,0.4,0.024,0.2,-0.08,-0.08,3.5,-1.0,7.06,-0.11,0.01,-0.01,2.38,-8.0,-6.56,966.57,1622.0,0.0,0.0,0.0,0.0
1776370076614304035,10892,0.0,0.3,0.0,0.8,-0.02,-0.08,2.81,-0.94,7.31,-0.05,0.01,-0.38,1.31,4.5,-8.31,962.29,1622.0,0.0,0.0,0.0,0.0
1776370076712622099,10992,0.008,0.2,0.0,1.0,0.04,-0.08,2.38,-1.5,7.13,-0.01,-0.21,-0.29,-4.81,1.56,-0.44,949.25,2571.0,0.0,0.0,0.0,0.0
1776370076810940903,11091,0.0,0.2,0.0,0.9,0.02,-0.12,2.56,-1.31,6.88,0.33,-0.12,-0.16,0.44,-4.94,2.63,997.1,1575.0,0.0,0.0,0.0,0.0
1776370076921343094,11192,0.0,0.3,0.008,0.4,0.02,-0.2,2.81,-0.5,6.38,0.73,0.11,-0.51,-2.75,-9.19,3.38,11928.68,1265.0,0.0,0.0,0.0,0.0
1776370077011651388,11292,0.0,0.7,0.0,0.1,-0.12,-0.1,3.06,-0.0,5.0,0.62,-0.2,-0.3,-8.81,-2.13,3.44,952.17,1265.0,0.0,0.0,0.0,0.0
1776370077114061750,11392,0.004,0.1,0.0,1.1,-0.04,-0.12,3.88,-0.0,4.0,-0.39,0.02,0.32,-4.5,-0.31,12.13,932.96,2337.0,0.0,0.0,0.0,0.0
1776370077212364252,11492,0.044,0.4,0.0,1.1,0.02,-0.14,5.0,-0.56,4.06,-0.83,-0.18,0.18,3.44,10.0,11.06,945.31,2337.0,0.0,0.0,0.0,0.0
1776370077314767503,11593,0.0,0.1,0.0,0.6,0.14,-0.12,6.06,-0.94,4.88,-0.93,-0.17,0.57,7.0,-2.44,10.13,968.63,1622.0,0.0,0.0,0.0,0.0
1776370077413061615,11694,0.024,0.2,0.0,0.8,0.08,-0.06,7.0,-0.37,6.13,-0.86,0.33,0.25,11.06,-3.19,8.19,946.51,1143.0,0.0,0.0,0.0,0.0
1776370077515461587,11794,0.0,0.2,0.0,0.9,0.06,-0.06,7.31,-0.12,7.38,-0.25,-0.04,-0.03,1.06,0.37,-0.81,956.11,1143.0,0.0,0.0,0.0,0.0
1776370077613768460,11894,0.0,0.4,0.0,0.7,0.0,-0.04,7.31,0.06,7.19,0.34,0.02,-0.08,-1.69,-6.06,2.81,979.44,1630.0,0.0,0.0,0.0,0.0
1776370077716216030,11994,0.0,0.3,0.0,0.8,-0.1,-0.18,7.56,0.75,7.06,0.13,0.2,-0.24,-0.06,-3.94,0.12,1064.84,1051.0,0.0,0.0,0.0,0.0
1776370077814518885,12095,0.004,0.2,0.0,0.6,-0.06,0.04,7.19,0.63,6.75,0.15,-0.09,-0.07,-5.5,4.44,-3.94,1004.99,1051.0,0.0,0.0,0.0,0.0
1776370077916936192,12194,0.004,0.1,0.0,0.7,-0.06,-0.18,7.19,0.12,6.0,0.61,0.04,-0.41,-8.88,2.75,-0.56,993.67,982.0,0.0,0.0,0.0,0.0
1776370078015246787,12295,0.004,0.2,0.0,0.9,0.06,0.0,6.94,-0.0,4.88,0.11,0.44,-0.3,-12.06,2.25,-3.13,974.81,982.0,0.0,0.0,0.0,0.0
1776370078117649235,12395,0.0,0.2,0.0,1.0,-0.14,-0.1,6.44,-0.44,3.69,0.07,-0.04,0.3,-7.81,9.0,-7.5,989.55,3003.0,0.0,0.0,0.0,0.0
1776370078223869853,12494,0.036,0.5,0.0,1.0,-0.04,-0.14,5.5,-0.44,4.44,-0.25,-0.14,0.59,18.31,-10.25,-10.44,11928.51,2271.0,0.0,0.0,0.0,0.0
1776370078314281066,12594,0.0,0.3,0.0,0.5,0.06,-0.1,4.5,0.25,5.81,-0.5,-0.04,-0.1,10.56,-5.63,-14.81,959.89,2271.0,0.0,0.0,0.0,0.0
1776370078416639101,12694,0.0,0.6,0.028,0.2,-0.12,-0.04,3.13,0.44,6.56,-0.5,-0.17,0.41,3.31,-3.88,-10.81,990.93,2012.0,0.0,0.0,0.0,0.0
1776370078514958628,12794,0.0,0.3,0.0,0.8,-0.02,-0.1,2.5,0.5,6.94,-0.3,-0.21,0.53,3.06,1.81,-2.25,948.57,1420.0,0.0,0.0,0.0,0.0
1776370078617380837,12895,0.012,0.1,0.0,0.8,-0.06,-0.06,2.69,-0.0,7.13,-0.04,-0.29,-0.25,-1.5,8.06,3.75,1055.58,1420.0,0.0,0.0,0.0,0.0
1776370078715646970,12996,0.008,0.2,0.0,0.2,0.08,-0.06,3.25,-0.69,6.81,-0.04,-0.28,-0.31,-5.25,3.63,6.38,968.46,2174.0,0.0,0.0,0.0,0.0
1776370078818104886,13096,0.0,0.4,0.0,0.2,-0.1,-0.1,3.69,-0.81,6.38,0.31,-0.21,-0.47,-3.06,-6.13,1.88,1012.54,2453.0,0.0,0.0,0.0,0.0
1776370078920508463,13197,0.0,0.3,0.0,0.3,0.04,-0.18,3.63,-0.31,6.06,0.77,-0.19,-0.44,-1.69,-5.56,-0.12,985.61,2453.0,0.0,0.0,0.0,0.0
1776370079026727672,13297,0.004,0.2,0.0,0.9,-0.06,0.0,3.88,-0.06,4.94,0.38,-0.09,-0.09,-7.56,-1.06,7.69,11931.6,2892.0,0.0,0.0,0.0,0.0
1776370079121238626,13398,0.0,1.0,0.0,0.8,-0.14,0.02,4.81,-0.0,3.94,-0.41,0.3,0.85,-8.69,3.5,9.31,968.29,2892.0,0.0,0.0,0.0,0.0
1776370079219563593,13498,0.04,0.3,0.0,1.1,0.06,-0.18,6.06,-0.56,3.88,-0.76,-0.12,0.7,8.19,6.38,11.81,996.41,974.0,0.0,0.0,0.0,0.0
1776370079317874744,13597,0.0,0.7,0.028,0.8,-0.1,0.02,6.75,-0.56,4.94,-0.88,0.06,0.18,11.06,-5.56,2.5,980.81,1169.0,0.0,0.0,0.0,0.0
1776370079420235078,13697,0.0,0.3,0.0,0.2,0.06,-0.1,6.56,0.19,6.69,-0.58,0.1,-0.07,4.19,-8.31,-8.06,965.2,1169.0,0.0,0.0,0.0,0.0
1776370079518534431,13797,0.0,0.7,0.0,1.3,-0.1,0.0,5.63,1.0,6.63,-0.34,0.02,-0.04,-8.0,-7.81,-5.75,1040.15,1360.0,0.0,0.0,0.0,0.0
1776370079620948215,13897,0.008,0.2,0.0,0.9,-0.06,0.0,5.31,1.25,5.81,0.0,0.17,-0.08,-6.81,2.13,-1.19,994.36,1001.0,0.0,0.0,0.0,0.0
1776370079719307018,13998,0.004,0.2,0.0,0.8,0.14,0.0,5.13,0.88,5.25,-0.01,-0.08,-0.25,-6.69,3.88,-3.44,1029.69,1001.0,0.0,0.0,0.0,0.0
1776370079821711857,14098,0.0,0.2,0.0,0.5,0.1,0.02,4.75,0.69,4.38,0.22,0.06,-0.53,-9.5,0.12,-5.0,1000.87,1686.0,0.0,0.0,0.0,0.0
1776370079920008210,14197,0.004,0.0,0.0,1.0,0.02,-0.1,4.19,0.69,3.44,0.49,0.21,-0.7,-2.88,6.75,-7.25,987.5,3027.0,0.0,0.0,0.0,0.0
1776370080022426290,14298,0.0,0.0,0.0,1.1,-0.06,-0.06,3.5,0.12,2.81,0.57,0.13,-0.18,5.44,5.19,-7.94,998.13,3027.0,0.0,0.0,0.0,0.0
1776370080120734147,14398,0.0,0.4,0.0,1.0,0.06,-0.08,2.5,-0.0,3.19,-0.22,-0.24,0.68,6.31,-3.13,-11.75,962.8,926.0,0.0,0.0,0.0,0.0
1776370080229098727,14498,0.0,0.5,0.0,0.9,-0.04,0.02,1.12,0.75,3.81,-0.85,-0.23,0.97,6.44,-11.0,-18.31,995.04,1627.0,0.0,0.0,0.0,0.0
1776370080321472800,14599,0.036,0.3,0.0,1.0,0.04,0.0,-0.56,1.19,4.25,-1.21,-0.29,0.0,-0.06,-0.81,-14.19,1015.28,1627.0,0.0,0.0,0.0,0.0
1776370080423813014,14700,0.0,0.1,0.0,0.8,0.02,0.1,-1.31,0.88,4.75,-0.75,-0.18,0.16,-2.13,-0.81,-1.25,973.43,1869.0,0.0,0.0,0.0,0.0
1776370080522133557,14799,0.0,0.4,0.0,1.1,-0.02,0.02,-1.12,0.56,5.0,-0.14,-0.03,-0.03,3.88,5.88,4.25,1073.59,1869.0,0.0,0.0,0.0,0.0
1776370080624569428,14899,0.012,0.1,0.0,1.0,0.04,-0.08,-1.06,-0.12,5.31,0.0,-0.32,-0.15,0.75,7.5,-1.69,978.06,543.0,0.0,0.0,0.0,0.0
1776370080722888305,15000,0.012,0.0,0.0,0.3,-0.06,-0.14,-1.12,-0.31,5.13,0.19,-0.28,-0.35,-1.44,-5.31,0.81,997.44,1186.0,0.0,0.0,0.0,0.0
1776370080821205996,15099,0.004,0.5,0.0,1.1,-0.14,0.02,-1.06,0.31,5.06,0.41,-0.05,-0.36,-0.37,-7.69,0.5,1012.36,1186.0,0.0,0.0,0.0,0.0
1776370080929574835,15199,0.0,0.5,0.0,1.1,-0.08,-0.06,-1.0,0.75,4.31,0.51,-0.01,-0.33,-8.06,0.37,2.81,992.13,1197.0,0.0,0.0,0.0,0.0
1776370081021911032,15298,0.0,0.6,0.0,0.5,-0.12,0.1,-0.19,0.5,3.13,-0.01,-0.11,0.09,-9.13,2.81,12.13,953.88,1195.0,0.0,0.0,0.0,0.0
1776370081120190434,15398,0.0,0.4,0.0,0.9,0.0,-0.08,1.06,-0.0,3.0,-0.88,-0.08,1.03,6.88,9.06,10.19,954.91,1195.0,0.0,0.0,0.0,0.0
1776370081222619934,15499,0.0,0.8,0.0,0.5,-0.06,0.0,1.81,-0.25,4.25,-0.4,-0.18,0.09,14.31,-0.81,7.13,1036.03,1401.0,0.0,0.0,0.0,0.0
1776370081320914319,15598,0.0,0.3,0.028,0.5,-0.04,-0.1,2.88,-0.0,5.0,-0.75,0.26,-0.02,1.25,-2.0,13.13,972.06,1401.0,0.0,0.0,0.0,0.0
1776370081423306390,15698,0.0,0.5,0.0,1.0,-0.12,-0.1,3.75,0.12,5.0,-0.29,-0.02,0.56,-1.31,0.69,3.25,1013.91,2373.0,0.0,0.0,0.0,0.0
1776370081521644057,15798,0.012,-0.1,0.0,1.1,-0.08,-0.04,3.44,0.5,5.06,0.06,0.07,-0.44,1.25,-8.94,-5.0,1006.7,1295.0,0.0,0.0,0.0,0.0
1776370081621897425,15898,0.0,0.9,0.004,0.6,-0.14,-0.08,3.0,1.31,5.19,-0.21,0.36,-0.44,-0.19,-4.63,-5.13,11925.77,1566.0,0.0,0.0,0.0,0.0
1776370081722379092,15998,0.0,0.3,0.0,0.8,-0.02,-0.06,2.56,1.44,5.25,0.23,0.12,-0.47,0.5,4.38,-1.06,976.86,1566.0,0.0,0.0,0.0,0.0
1776370081820692979,16098,0.004,0.3,0.0,0.8,-0.04,-0.1,2.56,1.19,4.94,0.39,0.09,-0.23,-3.63,3.69,-1.75,1001.39,595.0,0.0,0.0,0.0,0.0
1776370081923102848,16198,0.0,0.3,0.0,1.0,-0.04,0.04,2.06,0.69,4.0,0.32,0.26,0.04,-11.25,9.25,-8.5,1009.11,595.0,0.0,0.0,0.0,0.0
1776370082021418327,16297,0.0,0.4,0.0,0.6,0.02,-0.04,1.44,-0.0,2.75,0.18,0.07,0.02,-5.94,7.88,-5.88,963.49,1838.0,0.0,0.0,0.0,0.0
1776370082129791035,16398,0.0,0.2,0.0,0.6,-0.1,-0.02,0.69,-0.25,2.69,-0.22,-0.26,0.69,5.38,-4.31,-9.5,1000.36,1280.0,0.0,0.0,0.0,0.0
1776370082230054047,16497,0.0,0.1,0.032,0.7,-0.02,-0.1,-0.37,0.56,3.13,-0.79,-0.44,0.49,1.69,-12.31,-11.25,11927.48,728.0,0.0,0.0,0.0,0.0
1776370082320450460,16596,0.0,0.6,0.0,0.4,-0.04,-0.04,-1.56,1.37,3.38,-0.93,-0.18,0.13,-4.19,-5.94,-11.06,1012.36,728.0,0.0,0.0,0.0,0.0
1776370082418692507,16696,0.024,0.2,0.0,0.8,-0.04,0.02,-2.0,1.06,3.75,-0.54,-0.26,-0.12,-1.12,4.94,1.63,999.84,2093.0,0.0,0.0,0.0,0.0
1776370082527079587,16795,0.012,0.2,0.0,0.9,0.1,-0.23,-1.69,-0.0,4.25,-0.29,-0.44,-0.21,1.37,9.31,4.25,1046.66,2093.0,0.0,0.0,0.0,0.0
1776370082619512114,16894,0.012,0.1,0.0,0.5,0.08,-0.08,-1.25,-0.94,4.38,-0.06,-0.39,-0.63,-2.81,0.69,4.19,1003.1,839.0,0.0,0.0,0.0,0.0
1776370082727838595,16995,0.004,0.5,0.0,0.7,0.18,-0.08,-0.88,-0.75,4.0,0.38,0.03,-0.68,-3.25,-3.75,3.13,1009.79,839.0,0.0,0.0,0.0,0.0
1776370082820164446,17095,0.004,0.4,0.0,1.1,0.0,-0.12,-0.56,-0.56,3.75,0.45,-0.0,-0.09,1.88,-0.0,4.88,1041.18,2460.0,0.0,0.0,0.0,0.0
1776370082928497947,17196,0.004,0.0,0.0,0.1,-0.04,-0.1,0.19,-0.69,4.0,0.57,-0.05,0.21,4.75,2.0,10.19,980.47,1415.0,0.0,0.0,0.0,0.0
1776370083020877312,17296,0.0,0.3,0.0,1.2,0.0,-0.1,1.37,-0.56,3.75,-0.05,0.09,0.77,-2.69,-2.81,14.75,1003.1,1415.0,0.0,0.0,0.0,0.0
1776370083119134258,17396,0.0,0.1,0.0,0.6,-0.12,-0.04,3.19,-0.75,3.88,-0.31,-0.09,0.7,5.81,6.88,21.12,967.95,1436.0,0.0,0.0,0.0,0.0
1776370083221652736,17497,0.04,0.1,0.0,1.2,0.0,-0.08,4.63,-0.75,4.81,-0.61,-0.12,-0.17,9.0,-4.88,8.75,978.24,1019.0,0.0,0.0,0.0,0.0
1776370083319880493,17597,0.032,0.0,0.0,1.1,0.04,-0.12,5.13,0.31,5.5,-0.64,0.2,0.2,-0.88,-10.63,4.38,971.2,1019.0,0.0,0.0,0.0,0.0
1776370083422307240,17696,0.0,1.0,0.004,1.0,-0.08,-0.18,5.44,1.06,5.13,0.02,0.09,0.26,-4.13,-5.81,3.0,11929.37,1812.0,0.0,0.0,0.0,0.0
1776370083522441170,17796,0.016,0.2,0.0,1.2,-0.02,-0.02,5.5,1.44,4.88,-0.1,0.25,-0.73,-1.31,-0.25,3.31,11928.51,1480.0,0.0,0.0,0.0,0.0
1776370083623019232,17896,0.012,0.3,0.0,0.5,-0.06,-0.08,6.0,1.25,4.81,0.07,0.22,-0.94,-0.63,7.63,4.06,1040.83,1480.0,0.0,0.0,0.0,0.0
1776370083721340831,17996,0.004,0.5,0.0,0.9,0.02,-0.02,6.06,0.31,4.88,0.93,-0.21,0.1,2.5,8.5,-5.5,1005.16,1034.0,0.0,0.0,0.0,0.0
1776370083819626761,18096,0.004,0.1,0.0,0.8,-0.08,0.02,5.44,-0.12,4.88,0.58,0.12,0.3,-2.56,2.63,-5.94,970.69,1034.0,0.0,0.0,0.0,0.0
1776370083922051545,18196,0.0,0.2,0.0,0.8,-0.02,-0.2,4.94,-0.81,4.13,0.14,0.28,0.1,-11.38,11.94,-7.69,977.04,2064.0,0.0,0.0,0.0,0.0
1776370084020362201,18296,0.004,0.3,0.0,0.2,0.0,0.02,4.06,-1.63,3.63,0.45,-0.19,0.48,10.25,-2.44,-11.0,996.07,1370.0,0.0,0.0,0.0,0.0
1776370084130709151,18396,0.0,0.2,0.0,0.9,-0.08,0.08,2.69,-1.12,5.06,-0.38,0.18,0.48,10.63,0.31,-15.69,11928.51,702.0,0.0,0.0,0.0,0.0
1776370084221074954,18496,0.048,0.2,0.036,0.5,-0.04,-0.08,1.31,-1.63,5.44,-0.73,-0.34,-0.04,1.44,4.56,-12.19,1003.79,702.0,0.0,0.0,0.0,0.0
1776370084319379918,18595,0.036,0.3,0.0,0.8,-0.04,0.0,0.63,-2.0,5.81,-0.21,-0.19,0.07,5.13,0.37,-3.38,1063.99,1606.0,0.0,0.0,0.0,0.0
1776370084421779521,18696,0.0,0.5,0.0,1.2,-0.08,-0.1,0.75,-2.0,6.56,-0.06,-0.1,0.2,8.81,1.12,5.19,994.36,1606.0,0.0,0.0,0.0,0.0
1776370084520039481,18796,0.02,0.1,0.0,0.8,-0.08,0.02,1.31,-2.38,7.13,-0.33,-0.25,-0.41,0.06,4.44,4.44,1010.48,2378.0,0.0,0.0,0.0,0.0
1776370084622501071,18896,0.0,0.9,0.008,0.5,0.02,0.02,1.75,-2.69,6.56,0.16,-0.23,-0.58,-11.75,0.81,1.94,962.63,926.0,0.0,0.0,0.0,0.0
1776370084732858837,18997,0.0,0.2,0.0,0.4,-0.08,0.0,1.75,-2.25,5.44,0.94,-0.03,-0.42,-9.69,-9.75,0.06,11928.51,1669.0,0.0,0.0,0.0,0.0
1776370084823230251,19097,0.004,0.3,0.0,0.9,0.12,-0.08,1.94,-1.12,4.06,0.46,0.12,0.0,-6.06,-10.31,5.19,1079.08,1669.0,0.0,0.0,0.0,0.0
1776370084921533086,19196,0.0,0.2,0.0,0.6,0.06,0.02,2.75,-0.56,3.25,-0.49,0.21,1.85,-6.81,4.0,12.31,950.97,1669.0,0.0,0.0,0.0,0.0
1776370085023948870,19296,0.0,0.2,0.0,0.4,-0.02,-0.14,4.31,-1.88,3.19,-0.56,-0.46,0.09,-0.63,10.63,14.44,983.55,903.0,0.0,0.0,0.0,0.0
1776370085122231447,19396,0.0,0.2,0.0,0.4,0.04,-0.02,5.63,-1.63,3.31,-0.98,0.36,0.38,-0.37,-9.44,14.25,999.84,1748.0,0.0,0.0,0.0,0.0
1776370085220539823,19495,0.04,0.0,0.0,0.8,-0.1,-0.06,6.44,-1.0,3.5,0.17,0.08,-0.77,3.06,-3.13,2.25,1034.32,1748.0,0.0,0.0,0.0,0.0
1776370085322958440,19595,0.028,0.1,0.0,0.3,0.0,-0.02,6.25,-0.5,3.63,-0.24,-0.02,-0.28,0.37,-6.88,-1.94,11928.68,1825.0,0.0,0.0,0.0,0.0
1776370085421268038,19695,0.0,0.3,0.012,0.5,0.06,0.08,6.19,-0.12,3.63,0.0,0.34,-0.44,0.19,1.5,-0.63,1021.11,1534.0,0.0,0.0,0.0,0.0
1776370085519530262,19794,0.0,0.6,0.0,0.8,0.08,-0.1,6.19,-0.44,3.56,0.31,0.04,-0.12,0.06,6.31,-0.75,1015.11,1534.0,0.0,0.0,0.0,0.0
1776370085621987308,19895,0.012,0.4,0.0,0.5,-0.02,-0.04,5.94,-0.94,2.88,0.72,0.07,-0.07,-4.94,3.56,-4.56,1008.08,1592.0,0.0,0.0,0.0,0.0
1776370085720295443,19994,0.0,0.6,0.0,1.0,0.0,-0.14,5.38,-1.12,1.69,0.31,0.2,0.1,-2.81,3.31,-6.56,1002.59,1592.0,0.0,0.0,0.0,0.0
1776370085818579280,20093,0.0,0.7,0.0,0.8,-0.02,-0.08,4.44,-1.44,1.75,-0.83,-0.21,0.64,8.44,-1.12,-12.69,992.13,1506.0,0.0,0.0,0.0,0.0
1776370085921011120,20194,0.0,0.4,0.0,1.0,-0.08,0.08,3.25,-0.69,2.88,-1.15,0.15,0.55,9.13,-11.63,-8.13,953.88,955.0,0.0,0.0,0.0,0.0
1776370086019318668,20293,0.0,0.1,0.0,1.1,0.02,-0.12,2.94,-0.44,4.19,-0.92,-0.29,0.3,0.06,7.69,-1.12,981.32,955.0,0.0,0.0,0.0,0.0
1776370086117591292,20392,0.0,0.5,0.0,0.2,0.06,-0.06,3.06,-1.19,4.13,-0.21,-0.56,-0.12,-2.19,4.44,8.13,990.76,1471.0,0.0,0.0,0.0,0.0
1776370086220036061,20493,0.0,0.0,0.0,0.4,-0.06,-0.08,4.25,-1.69,4.44,-0.39,-0.33,-0.78,0.37,0.75,10.5,986.13,1636.0,0.0,0.0,0.0,0.0
1776370086318383839,20592,0.028,0.5,0.02,0.2,-0.14,-0.1,4.69,-1.88,4.63,-0.28,-0.32,-0.26,2.13,1.81,-1.56,1102.23,1636.0,0.0,0.0,0.0,0.0
1776370086420762640,20692,0.02,0.3,0.0,0.2,-0.12,-0.21,4.38,-2.13,4.88,0.27,-0.37,-0.35,1.12,-5.81,-2.0,953.88,2261.0,0.0,0.0,0.0,0.0
1776370086520982204,20793,0.02,0.0,0.0,0.8,-0.02,-0.04,4.31,-1.37,4.44,0.74,0.15,-0.48,-6.19,-8.25,-1.37,11929.54,956.0,0.0,0.0,0.0,0.0
1776370086623395711,20893,0.008,0.4,0.0,1.2,0.04,-0.02,4.19,-0.88,3.56,0.59,0.08,0.37,-7.81,0.5,-0.5,11927.48,1134.0,0.0,0.0,0.0,0.0
1776370086721743267,20993,0.004,0.4,0.0,0.2,-0.14,0.12,4.75,-0.81,3.13,-0.11,-0.12,0.64,0.56,-0.12,13.56,11929.88,1134.0,0.0,0.0,0.0,0.0
1776370086822160255,21093,0.0,0.1,0.0,0.9,-0.04,0.04,6.56,-1.31,3.81,-0.53,-0.29,0.62,11.19,8.81,17.12,992.13,1932.0,0.0,0.0,0.0,0.0
1776370086920517553,21193,0.0,0.3,0.0,1.1,-0.02,0.0,7.75,-1.37,4.5,-0.65,0.28,-0.47,-0.69,-4.94,10.31,985.61,1932.0,0.0,0.0,0.0,0.0
1776370087022900354,21293,0.0,0.2,0.0,0.6,-0.04,-0.06,8.31,-0.94,4.0,-0.39,-0.04,0.64,-4.31,-3.5,3.13,997.62,1057.0,0.0,0.0,0.0,0.0
1776370087123142619,21394,0.0,-0.1,0.0,1.2,-0.02,-0.04,8.19,-0.25,4.0,0.08,0.03,-0.2,1.5,-8.56,-5.06,11927.65,1744.0,0.0,0.0,0.0,0.0
1776370087223610531,21494,0.0,0.6,0.0,1.0,-0.06,-0.14,7.44,0.31,3.94,-0.23,0.17,-0.62,-2.31,-3.19,-8.38,1013.39,1744.0,0.0,0.0,0.0,0.0
1776370087321855151,21595,0.036,0.3,0.0,0.8,0.02,-0.08,6.75,-0.06,3.75,-0.04,0.08,-0.7,-2.88,11.75,-6.25,1009.45,409.0,0.0,0.0,0.0,0.0
1776370087424425587,21696,0.0,0.4,0.0,0.9,-0.06,-0.06,6.38,-1.25,3.31,0.56,-0.0,-0.33,-6.31,11.31,-5.0,11929.54,1085.0,0.0,0.0,0.0,0.0
1776370087522607109,21796,0.016,0.2,0.0,0.7,0.08,-0.14,5.5,-2.31,2.63,0.69,0.06,0.2,-5.38,10.75,-11.81,11929.71,1085.0,0.0,0.0,0.0,0.0
1776370087625025180,21896,0.0,0.5,0.0,1.0,-0.12,-0.02,4.63,-2.75,2.13,-0.2,-0.08,0.68,1.19,-5.13,-6.0,1006.88,1352.0,0.0,0.0,0.0,0.0
1776370087725303040,21996,0.0,0.7,0.0,0.9,-0.08,-0.02,3.94,-1.88,3.19,-0.76,0.07,0.74,14.69,-6.5,-9.88,11928.17,2274.0,0.0,0.0,0.0,0.0
1776370087825754655,22096,0.0,0.2,0.0,0.8,-0.08,-0.12,2.69,-2.19,3.75,-1.2,-0.42,0.12,-0.94,8.38,-13.56,984.07,2274.0,0.0,0.0,0.0,0.0
1776370087924043464,22197,0.0,0.2,0.0,0.6,-0.14,-0.06,1.94,-2.75,3.5,-0.1,-0.34,0.03,0.69,2.0,-2.75,971.2,1286.0,0.0,0.0,0.0,0.0
1776370088028377301,22297,0.0,0.0,0.0,0.2,-0.1,0.0,2.25,-2.94,4.19,-0.31,-0.13,-0.52,7.38,3.56,6.5,11930.57,1627.0,0.0,0.0,0.0,0.0
1776370088124788150,22397,0.0,0.3,0.0,0.2,0.08,0.06,2.81,-3.38,4.69,-0.17,-0.34,-0.44,0.69,2.25,5.19,986.13,1627.0,0.0,0.0,0.0,0.0
1776370088227201218,22497,0.0,0.3,0.0,0.3,0.04,-0.16,3.31,-3.25,4.81,0.37,-0.17,-0.49,1.44,-3.94,5.69,1028.66,1627.0,0.0,0.0,0.0,0.0
1776370088325491902,22597,0.0,0.3,0.0,1.0,0.0,0.04,3.81,-2.63,4.56,0.53,0.1,0.11,0.44,-10.81,5.25,963.49,1585.0,0.0,0.0,0.0,0.0
1776370088423736953,22696,0.024,0.5,0.0,1.1,0.06,-0.04,4.25,-1.81,4.56,0.43,0.09,0.03,0.44,-1.19,4.88,943.08,922.0,0.0,0.0,0.0,0.0
1776370088526146391,22796,0.012,0.1,0.0,1.0,-0.06,-0.04,4.81,-2.13,3.81,-0.02,-0.36,0.46,-16.37,1.37,6.31,982.87,922.0,0.0,0.0,0.0,0.0
1776370088624507692,22896,0.0,0.6,0.0,0.5,-0.06,0.08,6.38,-1.88,2.69,-0.09,-0.46,0.81,-0.0,2.31,24.12,968.8,1241.0,0.0,0.0,0.0,0.0
1776370088722779763,22995,0.0,0.2,0.0,0.1,0.02,-0.08,8.63,-2.0,3.63,-1.18,-0.29,-0.25,9.5,-2.56,21.06,965.2,1536.0,0.0,0.0,0.0,0.0
1776370088825208388,23095,0.0,0.5,0.0,0.3,-0.08,-0.08,10.06,-1.25,3.88,-0.97,0.09,-0.11,-4.0,-10.94,9.25,1044.95,1536.0,0.0,0.0,0.0,0.0
1776370088923513203,23195,0.0,0.4,0.0,0.9,0.06,-0.14,10.5,-0.12,4.0,-0.17,-0.05,-0.1,5.44,-8.13,-2.06,1001.73,1579.0,0.0,0.0,0.0,0.0
1776370089025899898,23296,0.0,0.2,0.0,0.9,0.12,0.02,9.88,0.69,4.94,-0.35,0.12,-0.18,13.25,-11.31,-8.31,974.98,1736.0,0.0,0.0,0.0,0.0
1776370089124239967,23396,0.0,0.2,0.0,0.3,-0.08,-0.06,9.13,1.44,6.31,-0.6,0.56,-0.55,11.25,-4.75,-4.88,635.58,1736.0,0.0,0.0,0.0,0.0
1776370089226641796,23496,0.044,0.1,0.0,1.3,0.06,-0.06,8.81,1.88,7.19,-0.38,0.25,-0.02,-0.37,0.37,-3.06,619.8,624.0,0.0,0.0,0.0,0.0
1776370089324943178,23596,0.028,0.3,0.0,1.0,0.16,-0.12,8.69,1.81,7.06,0.23,0.34,0.28,-2.06,3.94,-2.38,643.98,624.0,0.0,0.0,0.0,0.0
1776370089423252319,23696,0.0,1.0,0.0,1.0,-0.06,0.0,8.19,1.12,6.44,0.36,0.33,0.08,-9.81,11.56,-8.13,923.01,1173.0,0.0,0.0,0.0,0.0
1776370089525620682,23795,0.0,0.2,0.0,0.4,0.04,0.04,7.44,-0.25,5.13,0.51,-0.0,0.38,-5.88,16.37,-8.38,969.66,1386.0,0.0,0.0,0.0,0.0
1776370089628123445,23896,0.004,0.2,0.0,0.7,-0.04,-0.02,6.44,-1.31,5.31,-0.58,-0.24,0.4,9.94,1.69,-14.31,974.29,1386.0,0.0,0.0,0.0,0.0
1776370089726379749,23997,0.004,0.1,0.0,0.7,-0.02,-0.02,4.69,-0.88,5.81,-0.47,-0.32,-0.28,-6.25,-8.94,-17.5,1065.19,2278.0,0.0,0.0,0.0,0.0
1776370089834737392,24097,0.0,0.4,0.0,0.9,0.02,-0.14,3.0,-0.75,5.38,-0.42,-0.17,-0.04,-11.63,-0.88,-17.19,991.96,1178.0,0.0,0.0,0.0,0.0
1776370089927087960,24197,0.004,0.3,0.0,0.8,-0.1,0.0,1.63,-1.75,4.88,-0.24,-0.46,0.41,4.81,17.94,-8.69,993.16,1178.0,0.0,0.0,0.0,0.0
1776370090025382366,24297,0.0,0.1,0.0,1.2,0.02,0.02,1.56,-3.25,5.38,-0.29,-0.85,-0.88,3.25,12.88,5.81,968.63,1091.0,0.0,0.0,0.0,0.0
1776370090127794723,24397,0.004,0.2,0.0,1.1,-0.08,-0.08,2.25,-4.56,6.06,-0.15,-0.33,-0.48,2.0,5.0,4.75,972.23,1224.0,0.0,0.0,0.0,0.0
1776370090230255511,24498,0.0,0.2,0.0,1.3,-0.04,0.06,2.44,-5.13,6.63,0.23,-0.46,-0.49,7.56,-2.75,1.88,961.43,1224.0,0.0,0.0,0.0,0.0
1776370090328521462,24599,0.032,0.4,0.0,1.0,-0.06,-0.1,2.75,-4.69,7.19,0.21,-0.06,0.26,4.94,-9.75,9.5,989.04,1873.0,0.0,0.0,0.0,0.0
1776370090426755078,24698,0.0,0.5,0.0,0.5,-0.04,-0.04,3.94,-3.56,6.94,-0.08,0.28,0.65,-11.56,-9.25,15.0,1005.68,1873.0,0.0,0.0,0.0,0.0
1776370090529183084,24798,0.008,0.4,0.0,1.1,-0.08,-0.08,5.69,-3.06,6.13,-0.69,0.12,0.3,-5.69,3.0,17.19,961.43,1783.0,0.0,0.0,0.0,0.0
1776370090627527857,24898,0.004,0.3,0.0,0.4,-0.1,-0.04,7.0,-3.31,6.0,-0.28,-0.17,-0.78,0.81,1.06,12.69,956.11,1405.0,0.0,0.0,0.0,0.0
1776370090727720195,24997,0.0,0.3,0.0,0.7,-0.04,-0.12,8.13,-2.88,6.44,-0.75,0.18,-0.08,3.75,-4.0,8.13,11929.54,1501.0,0.0,0.0,0.0,0.0
1776370090828247373,25097,0.0,0.4,0.0,0.8,-0.02,-0.1,8.44,-2.56,7.25,-0.14,0.13,-0.08,4.25,0.37,1.69,1098.11,1501.0,0.0,0.0,0.0,0.0
1776370090926549660,25197,0.0,0.2,0.0,0.9,0.0,-0.1,8.75,-2.56,7.81,-0.07,-0.03,-0.07,6.13,0.44,3.19,1003.79,795.0,0.0,0.0,0.0,0.0
1776370091028954159,25297,0.0,0.1,0.0,0.3,0.04,-0.1,8.75,-2.38,8.31,-0.26,-0.03,0.15,4.13,-3.25,-2.63,1048.04,795.0,0.0,0.0,0.0,0.0
1776370091127263673,25397,0.0,0.3,0.0,0.8,0.06,-0.06,8.25,-2.06,8.56,0.11,0.12,-0.09,0.31,-4.25,-5.88,962.63,1945.0,0.0,0.0,0.0,0.0
1776370091229671694,25498,0.0,0.7,0.04,0.5,0.14,0.02,7.75,-1.81,8.5,0.1,0.04,0.12,1.0,-1.25,-3.38,942.91,1053.0,0.0,0.0,0.0,0.0
1776370091327972023,25598,0.032,0.2,0.0,0.9,-0.04,-0.04,7.5,-1.88,8.69,0.08,-0.05,-0.07,3.19,-0.06,-3.13,961.43,1053.0,0.0,0.0,0.0,0.0
1776370091430356913,25699,0.0,0.5,0.016,0.4,-0.12,-0.06,7.13,-1.63,8.94,0.15,0.1,0.02,2.13,-3.31,-3.38,948.91,1262.0,0.0,0.0,0.0,0.0
1776370091528684077,25798,0.0,0.6,0.0,0.8,0.08,-0.12,6.88,-1.44,9.0,0.08,0.11,0.18,-1.31,-1.94,0.12,956.97,1262.0,0.0,0.0,0.0,0.0
1776370091626958811,25897,0.0,0.1,0.0,0.8,-0.08,-0.12,7.0,-1.37,8.69,0.24,0.07,-0.05,-2.94,2.31,2.75,937.25,534.0,0.0,0.0,0.0,0.0
1776370091865431966,25998,0.0,0.7,0.0,1.2,0.02,-0.08,7.31,-1.56,8.44,0.07,0.03,-0.01,-0.81,0.69,2.56,963.83,1327.0,0.0,0.0,0.0,0.0
1776370091930129630,26098,0.0,0.3,0.0,0.7,0.0,-0.12,7.38,-1.56,8.44,0.07,0.05,-0.01,-0.56,-0.69,0.12,955.6,1327.0,0.0,0.0,0.0,0.0
1776370091944386423,26199,0.0,0.2,0.0,0.6,0.08,-0.1,7.38,-1.56,8.44,0.05,-0.07,-0.01,1.12,-0.81,-0.31,955.43,1131.0,0.0,0.0,0.0,0.0
1776370092032508496,26300,0.0,0.2,0.0,0.8,-0.08,-0.04,7.38,-1.31,8.5,0.06,0.1,0.03,0.94,-2.69,-0.37,940.85,2118.0,0.0,0.0,0.0,0.0
1776370092130828373,26400,0.0,0.1,0.0,0.8,0.08,-0.02,7.31,-1.12,8.63,0.15,0.07,0.01,1.31,-0.81,-0.19,956.8,2118.0,0.0,0.0,0.0,0.0
1776370092233237471,26500,0.036,0.3,0.0,0.9,-0.08,-0.02,7.31,-1.12,8.69,-0.05,-0.15,0.1,0.44,-0.56,0.0,956.28,1106.0,0.0,0.0,0.0,0.0
1776370092331550292,26600,0.0,-0.1,0.0,0.6,0.1,0.02,7.38,-0.94,8.63,0.12,0.12,0.05,-0.44,-2.25,0.44,944.79,1036.0,0.0,0.0,0.0,0.0
1776370092429809351,26700,0.016,0.4,0.008,1.0,-0.16,0.0,7.38,-1.0,8.56,0.13,-0.1,0.0,0.25,1.44,1.37,968.8,1036.0,0.0,0.0,0.0,0.0
1776370092532209855,26800,0.008,0.3,0.0,0.7,0.2,-0.2,7.56,-0.94,8.63,-0.02,-0.02,0.02,1.25,-0.69,1.69,947.88,1215.0,0.0,0.0,0.0,0.0
1776370092630524732,26900,0.004,0.0,0.0,0.4,-0.06,-0.02,7.63,-1.0,8.75,0.05,-0.09,0.02,1.12,0.31,-0.25,947.02,1215.0,0.0,0.0,0.0,0.0
1776370092732973184,27000,0.0,0.5,0.0,0.9,0.0,-0.04,7.63,-0.94,8.81,0.12,-0.01,0.05,1.37,-2.0,-0.19,966.57,1615.0,0.0,0.0,0.0,0.0
1776370092831263911,27100,0.004,0.1,0.0,1.1,0.02,-0.1,7.56,-0.88,8.94,-0.01,-0.08,-0.01,0.56,-0.12,-0.94,961.77,1211.0,0.0,0.0,0.0,0.0
1776370093149426374,27200,0.0,0.0,0.0,0.2,0.06,-0.08,7.5,-0.88,9.0,0.02,-0.06,0.04,1.25,0.56,-0.69,947.88,1211.0,0.0,0.0,0.0,0.0
1776370093161644103,27299,0.0,0.3,0.0,0.3,0.0,-0.08,7.38,-0.88,9.13,0.01,-0.08,0.1,1.44,-1.25,-1.31,1005.16,2188.0,0.0,0.0,0.0,0.0
1776370093174587661,27400,0.0,0.1,0.0,0.9,0.06,0.04,7.25,-0.75,9.25,0.03,0.08,0.04,0.19,0.25,-1.31,1000.7,1752.0,0.0,0.0,0.0,0.0
1776370093232694320,27501,0.036,0.6,0.028,0.7,-0.1,-0.2,7.13,-0.94,9.13,0.17,-0.09,0.02,-1.88,0.69,-1.0,974.81,1752.0,0.0,0.0,0.0,0.0
1776370093335075776,27600,0.0,0.6,0.02,0.2,0.12,-0.08,7.13,-0.88,8.94,0.15,0.03,0.0,1.12,-1.44,1.0,991.78,1375.0,0.0,0.0,0.0,0.0
1776370093433458136,27701,0.0,0.5,0.004,0.3,-0.08,-0.02,7.25,-0.75,9.13,0.0,-0.0,0.05,1.94,-1.12,1.5,996.24,1618.0,0.0,0.0,0.0,0.0
1776370093531681003,27801,0.0,0.3,0.0,1.3,-0.02,0.12,7.44,-0.69,9.13,0.1,0.01,-0.05,-0.63,-0.06,2.0,1045.64,1618.0,0.0,0.0,0.0,0.0
1776370093634083813,27900,0.0,0.3,0.0,0.5,-0.1,-0.1,7.56,-0.63,9.19,0.04,-0.01,0.06,1.94,-1.63,1.94,1047.69,1002.0,0.0,0.0,0.0,0.0
1776370093732421244,28001,0.004,0.1,0.0,0.2,0.0,-0.12,7.75,-0.56,9.44,-0.05,-0.07,0.09,1.56,0.44,1.44,1043.23,1797.0,0.0,0.0,0.0,0.0
1776370093834832591,28101,0.0,0.5,0.0,1.2,0.06,-0.06,7.88,-0.5,9.44,0.03,-0.19,-0.06,-1.12,-2.44,2.31,1014.59,1797.0,0.0,0.0,0.0,0.0
1776370093997449356,28200,0.0,0.2,0.0,1.0,-0.18,0.02,8.06,-0.31,9.56,0.14,-0.04,-0.11,5.63,-0.56,0.75,943.76,1829.0,0.0,0.0,0.0,0.0
1776370094035544451,28301,0.0,0.0,0.0,1.2,-0.06,-0.02,8.06,-0.31,10.25,-0.02,-0.0,-0.03,6.88,0.88,0.81,941.71,1829.0,0.0,0.0,0.0,0.0
1776370094133816750,28402,0.0,0.0,0.0,1.2,0.04,-0.02,8.38,-0.31,10.88,0.02,-0.17,0.24,5.25,-2.63,4.56,924.73,1616.0,0.0,0.0,0.0,0.0
1776370094236257743,28502,0.0,0.2,0.0,0.3,-0.1,0.02,8.63,0.06,11.0,0.28,0.03,0.24,2.19,-3.25,0.44,914.44,1321.0,0.0,0.0,0.0,0.0
1776370094339228513,28603,0.0,0.4,0.0,0.8,0.0,-0.14,8.69,0.37,11.06,0.12,-0.0,0.26,-0.0,-4.5,2.5,932.27,1321.0,0.0,0.0,0.0,0.0
1776370094436911012,28703,0.0,0.2,0.0,1.1,-0.06,0.06,8.94,0.88,10.88,-0.22,0.15,0.1,-4.0,-3.0,4.13,944.28,987.0,0.0,0.0,0.0,0.0
1776370094539334874,28804,0.0,0.9,0.0,0.8,-0.04,-0.06,9.44,0.94,10.31,0.14,0.01,0.1,-4.13,3.63,6.13,984.75,1308.0,0.0,0.0,0.0,0.0
1776370094637663844,28904,0.0,0.3,0.0,0.9,0.1,0.06,10.13,0.75,10.25,-0.18,-0.08,-0.03,-2.19,-0.81,5.13,1081.99,1308.0,0.0,0.0,0.0,0.0
1776370094735948496,29004,0.0,0.1,0.0,1.1,0.04,-0.12,10.25,1.0,9.94,0.18,0.11,-0.07,-1.44,-1.69,0.44,947.71,1060.0,0.0,0.0,0.0,0.0
1776370094901433111,29105,0.0,0.2,0.0,1.0,0.0,-0.06,10.38,0.94,10.06,0.38,0.13,0.14,3.0,3.31,1.5,960.57,1371.0,0.0,0.0,0.0,0.0
1776370094936687438,29205,0.0,0.9,0.0,0.0,-0.06,-0.06,10.38,0.37,9.94,0.7,-0.12,-0.24,-2.13,8.44,-3.5,926.61,1371.0,0.0,0.0,0.0,0.0
1776370095039080423,29304,0.0,0.2,0.0,1.1,-0.04,0.04,10.13,-0.0,10.06,0.76,-0.62,-0.59,5.5,-1.06,-0.06,939.82,1350.0,0.0,0.0,0.0,0.0
1776370095137417271,29404,0.0,0.4,0.0,0.4,-0.08,-0.1,10.56,0.37,10.56,0.6,0.35,-1.49,9.56,-11.94,8.56,1004.65,1350.0,0.0,0.0,0.0,0.0
1776370095247755405,29504,0.044,0.7,0.0,0.6,-0.02,-0.12,10.94,1.06,11.25,0.48,0.51,-1.84,4.88,3.44,0.56,11933.48,1164.0,0.0,0.0,0.0,0.0
1776370095338124108,29604,0.0,0.4,0.036,0.2,-0.12,-0.04,11.0,0.31,11.31,0.26,-0.13,-1.26,-1.88,12.56,-0.81,802.79,1183.0,0.0,0.0,0.0,0.0
1776370095440494782,29704,0.024,-0.1,0.0,0.8,-0.08,-0.12,10.88,-0.0,10.81,0.33,-0.17,-2.36,-8.44,-1.12,-6.81,787.7,1183.0,0.0,0.0,0.0,0.0
1776370095538806499,29805,0.016,0.5,0.0,0.3,0.08,-0.12,9.44,0.37,9.44,-0.7,0.49,-0.6,-18.12,-7.88,-21.06,681.2,970.0,0.0,0.0,0.0,0.0
1776370095637168182,29904,0.0,0.6,0.0,1.1,0.0,-0.04,6.31,-0.63,7.25,0.04,-0.14,-0.5,-24.0,14.69,-38.06,620.32,1774.0,0.0,0.0,0.0,0.0
1776370095739546264,30005,0.0,0.4,0.0,0.9,-0.12,-0.12,3.81,-2.0,5.75,-0.66,-0.92,0.38,-8.38,5.75,-19.37,501.64,1774.0,0.0,0.0,0.0,0.0
1776370095849900676,30106,0.0,0.3,0.0,0.9,0.02,0.04,2.94,-1.69,5.13,-0.75,-0.32,1.28,-4.19,-0.44,0.12,11933.66,686.0,0.0,0.0,0.0,0.0
1776370095940275695,30206,0.0,0.1,0.0,0.9,0.0,-0.18,3.5,-1.5,5.06,-0.7,0.11,2.41,2.88,-0.75,13.31,309.04,446.0,0.0,0.0,0.0,0.0
1776370096477431520,30307,0.0,0.3,0.0,0.6,-0.2,0.02,5.44,-2.06,5.94,-0.41,-0.39,2.09,9.38,12.19,27.5,11929.71,287.0,0.0,0.0,0.0,0.0
1776370096534174714,30407,0.0,0.2,0.0,1.0,-0.04,0.1,7.88,-3.06,6.38,-0.83,-0.6,1.45,-3.38,11.81,17.87,11931.6,287.0,0.0,0.0,0.0,0.0
1776370096538302836,30508,0.036,0.2,0.0,0.8,0.08,0.02,8.75,-3.5,5.69,-0.23,-0.73,0.39,-11.25,0.31,2.44,11931.77,220.0,0.0,0.0,0.0,0.0
1776370096551550981,30608,0.028,0.3,0.028,0.2,0.06,-0.04,8.31,-2.06,4.88,0.45,-0.29,1.16,-4.19,-36.75,-5.63,201.86,220.0,0.0,0.0,0.0,0.0
1776370096563295490,30708,0.012,0.2,0.0,0.9,0.0,-0.08,7.94,-0.31,4.63,0.07,-0.01,-0.1,-1.94,-1.63,2.19,11934.0,192.0,0.0,0.0,0.0,0.0
1776370096574814911,30809,0.012,0.1,0.0,0.9,-0.02,-0.2,7.94,-0.0,4.63,-0.59,-0.46,0.14,-1.19,-4.5,0.56,11930.4,192.0,0.0,0.0,0.0,0.0
1776370096644774155,30909,0.004,0.3,0.0,0.9,-0.02,-0.06,7.88,-1.44,4.94,4.19,0.23,-5.58,-3.06,39.81,0.75,192.94,192.0,0.0,0.0,0.0,0.0
1776370096743066698,31009,0.004,0.2,0.0,0.9,0.23,-0.02,7.88,-0.37,3.94,-0.37,0.3,1.81,-45.31,-95.12,16.87,201.17,194.0,0.0,0.0,0.0,0.0
1776370096845477454,31109,0.0,0.2,0.0,1.1,-0.02,-0.12,8.06,0.5,3.56,-0.08,-0.07,0.08,-0.56,-0.5,-0.19,201.34,194.0,0.0,0.0,0.0,0.0
1776370096943839465,31209,0.0,0.1,0.0,0.9,-0.06,-0.04,8.06,0.44,3.56,-0.07,-0.1,0.0,-0.12,0.06,-0.12,201.17,190.0,0.0,0.0,0.0,0.0
1776370097042101412,31308,0.0,0.4,0.0,0.5,0.06,-0.14,8.06,0.44,3.56,-0.06,-0.07,0.01,-0.0,-0.19,0.0,201.34,190.0,0.0,0.0,0.0,0.0
1776370097144497642,31408,0.0,0.1,0.0,1.0,0.02,0.0,8.06,0.44,3.56,-0.07,-0.05,0.03,-0.12,-0.19,0.0,197.05,196.0,0.0,0.0,0.0,0.0
1776370097242814315,31508,0.04,0.3,0.0,0.9,-0.12,0.0,8.06,0.37,3.63,-0.07,-0.06,0.03,-0.06,-0.31,-0.06,197.05,191.0,0.0,0.0,0.0,0.0
1776370097341138914,31607,0.032,0.4,0.0,0.9,0.1,0.04,8.06,0.37,3.63,-0.09,-0.07,0.03,0.06,-0.12,-0.12,201.17,191.0,0.0,0.0,0.0,0.0
1776370097443515198,31707,0.016,0.3,0.0,1.1,-0.14,0.02,8.06,0.37,3.63,-0.07,-0.04,0.03,-0.06,-0.06,-0.06,197.05,188.0,0.0,0.0,0.0,0.0
1776370097541814592,31807,0.0,0.2,0.0,0.6,-0.04,0.1,8.06,0.37,3.63,-0.06,-0.06,0.04,-0.12,-0.06,0.0,197.05,192.0,0.0,0.0,0.0,0.0
1776370097644229971,31907,0.0,0.4,0.0,0.9,0.1,-0.04,8.06,0.37,3.69,-0.05,-0.06,0.05,-0.06,-0.06,0.0,201.17,192.0,0.0,0.0,0.0,0.0
1776370098185445298,32007,0.0,0.1,0.0,0.9,-0.16,-0.02,8.06,0.31,3.69,-0.06,-0.07,0.03,0.06,-0.06,-0.06,201.17,193.0,0.0,0.0,0.0,0.0
1776370098242270957,32107,0.0,0.1,0.0,0.7,-0.04,-0.2,8.06,0.31,3.69,-0.08,-0.07,0.03,-0.06,0.06,0.0,197.05,201.0,0.0,0.0,0.0,0.0
1776370098254704178,32206,0.0,0.6,0.0,0.9,0.08,0.06,8.06,0.31,3.69,-0.05,-0.05,0.03,-0.0,-0.12,0.06,201.17,201.0,0.0,0.0,0.0,0.0
1776370098266792914,32306,0.0,0.7,0.0,0.1,-0.08,-0.27,8.06,0.31,3.69,-0.06,-0.07,0.02,0.12,0.19,-0.06,196.02,198.0,0.0,0.0,0.0,0.0
1776370098278983323,32407,0.0,0.1,0.0,0.5,-0.02,-0.1,8.06,0.31,3.69,-0.06,-0.07,0.06,-0.06,-0.06,0.0,201.17,193.0,0.0,0.0,0.0,0.0
1776370098344759505,32506,0.0,1.0,0.0,0.6,-0.1,-0.04,8.06,0.31,3.69,-0.03,-0.05,0.05,-0.06,-0.0,-0.06,201.17,193.0,0.0,0.0,0.0,0.0
1776370098349593529,32607,0.0,0.3,0.0,1.1,0.0,-0.06,8.06,0.31,3.69,-0.07,-0.03,0.02,-0.0,-0.0,0.06,201.17,201.0,0.0,0.0,0.0,0.0
1776370098442993768,32707,0.0,0.6,0.028,0.4,-0.08,-0.02,8.06,0.31,3.69,-0.07,-0.05,0.02,-0.06,0.06,0.06,201.17,201.0,0.0,0.0,0.0,0.0
1776370098541244385,32806,0.008,0.1,0.0,1.0,0.06,0.04,8.06,0.31,3.69,-0.07,-0.05,0.02,0.06,-0.0,0.0,200.14,193.0,0.0,0.0,0.0,0.0
1776370098643688152,32907,0.004,0.7,0.0,1.0,0.02,-0.06,8.06,0.31,3.69,-0.03,-0.06,0.02,-0.0,-0.0,-0.06,201.17,196.0,0.0,0.0,0.0,0.0
1776370098752096884,33008,0.0,0.7,0.004,0.7,0.08,-0.12,8.06,0.31,3.69,-0.05,-0.05,0.02,-0.0,-0.0,0.0,201.17,196.0,0.0,0.0,0.0,0.0
1776370098844395573,33107,0.0,0.3,0.0,0.9,-0.04,-0.1,8.06,0.31,3.69,-0.04,-0.07,0.03,-0.12,-0.0,-0.06,197.05,187.0,0.0,0.0,0.0,0.0
1776370098942696211,33207,0.0,0.9,0.0,0.7,0.0,-0.08,8.06,0.31,3.69,-0.04,-0.04,0.02,-0.12,-0.0,-0.06,197.05,195.0,0.0,0.0,0.0,0.0
1776370099045148804,33307,0.0,0.2,0.0,0.1,0.04,0.04,8.06,0.31,3.69,-0.04,-0.05,0.02,-0.0,-0.12,0.0,201.17,195.0,0.0,0.0,0.0,0.0
1776370099143419522,33406,0.0,0.1,0.0,1.0,-0.06,-0.06,8.06,0.31,3.69,-0.05,-0.07,0.02,-0.0,0.06,0.06,184.02,194.0,0.0,0.0,0.0,0.0
1776370099241700334,33506,0.044,0.2,0.04,0.8,0.08,0.02,8.06,0.31,3.69,-0.05,-0.07,0.03,-0.0,-0.0,0.06,201.17,194.0,0.0,0.0,0.0,0.0
1776370099344156918,33606,0.028,0.2,0.0,1.3,0.04,0.08,8.06,0.31,3.69,-0.05,-0.05,0.07,0.06,0.12,0.0,200.14,204.0,0.0,0.0,0.0,0.0
1776370099442434341,33707,0.02,0.2,0.0,0.9,-0.21,0.0,8.06,0.31,3.69,-0.04,-0.04,0.03,-0.06,-0.06,-0.06,188.14,191.0,0.0,0.0,0.0,0.0
1776370099544795549,33807,0.0,0.9,0.0,0.9,-0.08,0.1,8.06,0.31,3.69,-0.05,-0.07,0.02,0.06,-0.06,0.06,188.14,191.0,0.0,0.0,0.0,0.0
1776370099643134309,33907,0.0,0.9,0.0,0.7,0.14,-0.02,8.06,0.31,3.69,-0.05,-0.05,0.05,-0.06,0.06,0.06,188.14,191.0,0.0,0.0,0.0,0.0
1776370099745552410,34007,0.0,0.5,0.0,0.7,-0.1,-0.1,8.06,0.31,3.69,-0.06,-0.06,0.05,0.06,0.06,0.0,201.34,189.0,0.0,0.0,0.0,0.0
1776370099843846426,34108,0.0,0.0,0.0,0.4,0.1,-0.08,8.06,0.31,3.69,-0.04,-0.06,0.04,0.12,-0.0,0.0,188.14,189.0,0.0,0.0,0.0,0.0
1776370099946258915,34208,0.0,0.3,0.0,1.1,-0.12,-0.04,8.06,0.31,3.69,-0.06,-0.05,0.02,0.06,-0.0,0.0,201.17,200.0,0.0,0.0,0.0,0.0
1776370100044549486,34308,0.0,0.1,0.0,0.8,-0.08,-0.04,8.06,0.31,3.69,-0.04,-0.06,0.04,0.06,-0.0,0.12,188.14,197.0,0.0,0.0,0.0,0.0
1776370100146966908,34409,0.0,0.4,0.0,0.8,0.02,-0.04,8.06,0.31,3.69,-0.05,-0.06,0.04,-0.12,0.12,0.0,201.34,197.0,0.0,0.0,0.0,0.0
1776370100245274123,34508,0.044,0.4,0.0,0.9,0.16,-0.06,8.06,0.31,3.69,-0.06,-0.05,0.03,0.06,0.06,0.0,201.34,198.0,0.0,0.0,0.0,0.0
1776370100347712750,34609,0.032,0.4,0.0,0.7,0.02,-0.2,8.06,0.31,3.69,-0.05,-0.06,0.02,-0.06,-0.06,-0.12,188.14,203.0,0.0,0.0,0.0,0.0
1776370100445965739,34709,0.016,0.1,0.0,0.7,-0.1,-0.06,8.06,0.31,3.69,-0.04,-0.06,0.04,0.12,0.06,0.0,205.29,203.0,0.0,0.0,0.0,0.0
1776370100544230451,34808,0.012,0.5,0.0,1.1,0.14,-0.08,8.06,0.31,3.69,-0.07,-0.03,0.05,0.06,-0.0,0.0,201.17,205.0,0.0,0.0,0.0,0.0
1776370100646686338,34909,0.0,0.9,0.0,0.9,-0.08,0.04,8.06,0.31,3.69,-0.04,-0.04,0.04,-0.06,0.06,-0.06,196.88,205.0,0.0,0.0,0.0,0.0
1776370100744929104,35009,0.0,0.2,0.0,1.2,0.0,0.0,8.06,0.31,3.69,-0.05,-0.04,0.01,-0.0,0.06,0.0,186.94,198.0,0.0,0.0,0.0,0.0
1776370100847399289,35109,0.0,0.0,0.0,1.3,-0.16,0.0,8.06,0.31,3.69,-0.05,-0.04,0.03,-0.06,-0.06,0.0,188.14,204.0,0.0,0.0,0.0,0.0
1776370100945704707,35209,0.0,0.2,0.0,1.2,-0.06,-0.1,8.06,0.31,3.69,-0.07,-0.05,0.05,0.12,-0.0,0.12,187.11,204.0,0.0,0.0,0.0,0.0
1776370101048100129,35309,0.0,0.2,0.0,0.8,0.12,-0.04,8.06,0.31,3.69,-0.08,-0.03,0.03,0.12,-0.06,-0.06,188.14,200.0,0.0,0.0,0.0,0.0
1776370101146408545,35408,0.0,0.4,0.0,1.3,0.04,-0.08,8.06,0.31,3.69,-0.06,-0.04,0.01,-0.12,0.06,0.0,188.14,189.0,0.0,0.0,0.0,0.0
1776370101248808329,35509,0.04,0.2,0.0,1.2,0.0,-0.06,8.06,0.31,3.69,-0.05,-0.04,0.02,-0.06,-0.06,0.06,188.14,189.0,0.0,0.0,0.0,0.0
1776370101347122727,35609,0.028,0.3,0.0,0.0,-0.04,-0.02,8.06,0.31,3.69,-0.08,-0.05,0.03,-0.12,-0.0,-0.06,188.14,199.0,0.0,0.0,0.0,0.0
1776370101449520770,35709,0.02,0.3,0.0,0.0,-0.04,-0.12,8.06,0.31,3.69,-0.06,-0.05,0.03,-0.12,-0.06,0.12,188.14,199.0,0.0,0.0,0.0,0.0
1776370101547799740,35809,0.012,0.2,0.0,1.1,-0.04,0.08,8.06,0.31,3.69,-0.05,-0.08,0.02,-0.06,0.06,0.0,201.17,203.0,0.0,0.0,0.0,0.0
1776370101646123361,35909,0.0,0.6,0.012,1.3,0.02,-0.08,8.06,0.31,3.69,-0.04,-0.05,0.01,-0.0,0.12,-0.06,201.17,188.0,0.0,0.0,0.0,0.0
1776370101748535572,36008,0.0,0.3,0.0,0.9,0.06,0.0,8.06,0.31,3.69,-0.05,-0.04,0.01,0.12,-0.0,0.06,197.05,188.0,0.0,0.0,0.0,0.0
1776370101846851414,36108,0.0,0.0,0.0,0.4,-0.06,-0.1,8.06,0.31,3.69,-0.06,-0.04,0.02,-0.0,0.06,0.0,201.17,193.0,0.0,0.0,0.0,0.0
1776370101945149237,36208,0.0,0.4,0.0,1.3,-0.02,-0.23,8.06,0.31,3.69,-0.02,-0.07,0.03,-0.0,-0.0,0.06,201.34,192.0,0.0,0.0,0.0,0.0
1776370102047542833,36307,0.0,0.8,0.0,0.5,0.04,-0.02,8.06,0.31,3.69,-0.05,-0.05,0.03,0.06,0.06,0.06,197.05,192.0,0.0,0.0,0.0,0.0
1776370102145873678,36408,0.0,0.5,0.0,1.4,0.0,0.02,8.06,0.31,3.69,-0.05,-0.05,0.01,0.06,-0.19,-0.12,196.88,186.0,0.0,0.0,0.0,0.0
1776370102248278533,36508,0.044,0.2,0.0,1.1,0.06,0.0,8.06,0.31,3.69,-0.05,-0.06,0.02,0.06,-0.0,-0.12,201.17,201.0,0.0,0.0,0.0,0.0
1776370102346617768,36608,0.028,0.3,0.0,0.4,-0.04,-0.12,8.06,0.31,3.69,-0.05,-0.04,0.01,-0.0,-0.0,-0.06,196.88,201.0,0.0,0.0,0.0,0.0
1776370102444866553,36708,0.016,0.4,0.02,0.2,0.02,0.0,8.06,0.31,3.69,-0.04,-0.05,0.02,-0.0,0.12,-0.06,197.05,192.0,0.0,0.0,0.0,0.0
1776370102547247055,36807,0.016,0.3,0.0,0.6,-0.08,-0.12,8.06,0.31,3.69,-0.06,-0.03,0.03,-0.0,-0.0,-0.12,196.02,191.0,0.0,0.0,0.0,0.0
1776370102655625548,36908,0.004,0.3,0.0,1.0,-0.06,0.0,8.06,0.31,3.69,-0.06,-0.06,0.04,-0.19,-0.12,0.06,197.05,191.0,0.0,0.0,0.0,0.0
1776370102747985997,37009,0.004,0.2,0.0,0.1,-0.12,-0.04,8.06,0.31,3.69,-0.06,-0.05,0.05,-0.06,-0.06,0.0,197.05,200.0,0.0,0.0,0.0,0.0
