timestamp_ns,time_ms,voltage_left,current_left_ma,voltage_right,current_right_ma,motor_current_left,motor_current_right,euler_x,euler_y,euler_z,acc_lin_x,acc_lin_y,acc_lin_z,gyro_x,gyro_y,gyro_z,sonar_mm,tof_mm,rpm_left,rpm_right,rotations_left,rotations_right
1776370017817487826,1904,0.0,0.1,0.0,0.5,-0.12,-0.04,-0.0,0.06,1.88,0.0,-0.0,-0.34,0.06,-0.0,0.06,11930.23,182.0,0.0,0.0,0.0,0.0
1776370017915780400,2004,0.004,0.3,0.0,0.7,-0.21,-0.08,-0.0,0.06,1.88,0.02,-0.0,-0.32,0.06,-0.0,-0.06,11929.37,200.0,0.0,0.0,0.0,0.0
1776370018165428361,2104,0.004,0.3,0.0,1.3,0.04,-0.12,-0.0,0.06,1.88,0.03,-0.0,-0.34,0.12,0.06,0.06,11930.05,200.0,0.0,0.0,0.0,0.0
1776370018208789164,2204,0.0,0.3,0.0,0.6,0.21,-0.06,-0.0,0.06,1.88,0.0,-0.0,-0.32,0.06,-0.0,0.06,11930.74,200.0,0.0,0.0,0.0,0.0
1776370018216927449,2305,0.0,0.3,0.0,1.3,-0.1,0.02,-0.0,0.06,1.88,0.0,-0.01,-0.34,0.12,-0.06,0.06,11930.57,186.0,0.0,0.0,0.0,0.0
1776370018325392498,2405,0.0,0.2,0.0,0.9,-0.06,0.04,-0.0,0.06,1.88,0.01,-0.0,-0.34,0.12,-0.06,0.12,11929.37,188.0,0.0,0.0,0.0,0.0
1776370018419646128,2505,0.0,0.7,0.02,0.3,-0.06,-0.14,-0.0,0.06,1.88,0.02,-0.0,-0.31,0.06,-0.0,-0.06,11930.91,188.0,0.0,0.0,0.0,0.0
1776370018528041617,2606,0.0,0.6,0.0,1.1,-0.06,-0.06,-0.0,0.06,1.88,0.0,0.01,-0.34,-0.06,-0.12,0.06,11929.71,195.0,0.0,0.0,0.0,0.0
1776370018620294914,2706,0.012,0.2,0.0,1.1,-0.04,-0.06,-0.0,0.06,1.88,0.03,-0.0,-0.33,0.06,-0.19,0.0,11928.68,185.0,0.0,0.0,0.0,0.0
1776370018728805187,2806,0.004,0.3,0.0,0.8,0.02,-0.06,-0.0,0.06,1.88,0.01,-0.0,-0.31,-0.06,-0.06,0.06,11929.03,185.0,0.0,0.0,0.0,0.0
1776370018821018130,2907,0.0,0.9,0.0,0.7,0.04,-0.02,-0.0,0.06,1.88,0.01,0.02,-0.33,-0.06,0.06,0.0,11929.54,195.0,0.0,0.0,0.0,0.0
1776370018929519496,3007,0.0,0.5,0.0,0.0,-0.02,0.04,-0.0,0.06,1.88,0.02,-0.0,-0.34,-0.0,0.06,0.0,11928.68,195.0,0.0,0.0,0.0,0.0
1776370019021714519,3106,0.0,0.6,0.0,1.1,0.04,0.08,-0.0,0.06,1.88,0.0,-0.0,-0.3,0.06,-0.06,0.06,11929.37,195.0,0.0,0.0,0.0,0.0
1776370019120055590,3206,0.0,0.3,0.0,0.8,0.02,0.0,-0.0,0.06,1.88,0.02,-0.0,-0.34,-0.06,-0.0,0.0,11929.37,187.0,0.0,0.0,0.0,0.0
1776370019228398452,3306,0.0,0.1,0.0,0.4,0.06,-0.1,-0.0,0.06,1.88,0.02,-0.0,-0.32,0.06,-0.06,0.06,11930.4,187.0,0.0,0.0,0.0,0.0
1776370019320762383,3406,0.0,1.0,0.032,0.2,-0.04,-0.1,-0.0,0.06,1.88,0.0,-0.0,-0.3,-0.12,-0.0,0.0,11929.37,193.0,0.0,0.0,0.0,0.0
1776370019421260437,3506,0.024,0.1,0.0,0.5,0.0,-0.12,-0.0,0.06,1.88,0.01,0.01,-0.32,-0.12,0.06,0.12,11930.4,180.0,0.0,0.0,0.0,0.0
1776370019519484427,3606,0.02,0.1,0.0,1.0,-0.1,0.02,-0.0,0.06,1.88,0.01,-0.0,-0.34,-0.06,0.06,0.06,11932.45,180.0,0.0,0.0,0.0,0.0
1776370019619706075,3706,0.012,0.3,0.0,0.6,0.0,0.08,-0.0,0.06,1.88,0.0,-0.0,-0.35,-0.0,-0.06,0.06,11931.94,187.0,0.0,0.0,0.0,0.0
1776370019785434303,3806,0.004,0.2,0.0,0.7,-0.12,0.0,-0.0,0.06,1.88,0.02,-0.0,-0.31,-0.06,-0.0,0.0,11932.28,187.0,0.0,0.0,0.0,0.0
1776370019820481853,3906,0.0,0.1,0.0,0.3,0.12,0.04,-0.0,0.06,1.88,0.01,-0.0,-0.33,-0.06,-0.0,-0.06,11930.05,187.0,0.0,0.0,0.0,0.0
1776370019922847409,4006,0.0,0.8,0.0,0.8,0.0,-0.02,-0.0,0.06,1.88,0.02,-0.0,-0.33,-0.0,0.06,0.12,11929.03,201.0,0.0,0.0,0.0,0.0
1776370020021172996,4106,0.004,0.4,0.0,0.8,-0.02,0.02,-0.0,0.06,1.88,0.01,-0.0,-0.34,-0.06,-0.0,0.0,11929.88,184.0,0.0,0.0,0.0,0.0
1776370020124639393,4206,0.0,0.4,0.0,0.2,0.1,-0.02,-0.0,0.06,1.88,0.01,-0.0,-0.33,-0.0,-0.0,0.12,11930.05,184.0,0.0,0.0,0.0,0.0
1776370020219954031,4306,0.0,0.0,0.0,0.8,-0.06,0.12,-0.0,0.06,1.88,0.01,-0.0,-0.32,-0.06,-0.12,0.06,11929.54,179.0,0.0,0.0,0.0,0.0
1776370020318211058,4406,0.04,0.4,0.0,1.4,-0.02,-0.04,-0.0,0.06,1.88,0.01,-0.0,-0.32,0.06,0.12,0.06,11930.57,179.0,0.0,0.0,0.0,0.0
1776370020428609793,4505,0.024,0.1,0.0,0.1,0.04,0.06,-0.0,0.06,1.88,-0.01,-0.0,-0.31,0.12,0.06,-0.06,11930.57,198.0,0.0,0.0,0.0,0.0
1776370020526898915,4605,0.0,0.2,0.0,0.8,-0.08,-0.12,-0.0,0.06,1.88,0.03,-0.0,-0.33,0.06,0.06,-0.06,11929.03,185.0,0.0,0.0,0.0,0.0
1776370020629393423,4705,0.012,0.1,0.0,1.0,-0.04,0.0,-0.0,0.06,1.88,0.02,-0.0,-0.31,-0.06,0.12,-0.06,11929.54,185.0,0.0,0.0,0.0,0.0
1776370020727707694,4805,0.012,0.2,0.0,0.7,-0.02,-0.06,-0.0,0.06,1.88,0.0,-0.0,-0.34,0.19,-0.0,0.0,11930.91,192.0,0.0,0.0,0.0,0.0
1776370020819920563,4905,0.0,0.1,0.0,0.6,0.08,-0.08,-0.0,0.06,1.88,0.01,0.01,-0.35,-0.19,-0.0,0.06,11929.2,197.0,0.0,0.0,0.0,0.0
1776370020928345742,5005,0.0,0.0,0.0,0.9,-0.06,-0.06,-0.0,0.06,1.88,0.02,-0.0,-0.34,-0.0,0.12,0.0,11929.03,197.0,0.0,0.0,0.0,0.0
1776370021020620852,5105,0.0,0.9,0.0,1.0,-0.16,-0.06,-0.0,0.06,1.88,0.03,-0.01,-0.33,-0.06,-0.06,0.0,11928.34,199.0,0.0,0.0,0.0,0.0
1776370021129022330,5206,0.004,0.2,0.0,0.4,0.08,-0.04,-0.0,0.06,1.88,0.03,-0.0,-0.32,-0.19,0.06,0.06,11930.91,199.0,0.0,0.0,0.0,0.0
1776370021219424867,5306,0.044,0.0,0.04,0.5,-0.16,0.0,-0.0,0.06,1.88,0.01,-0.0,-0.32,-0.0,-0.0,0.0,11929.88,200.0,0.0,0.0,0.0,0.0
1776370021323626844,5406,0.0,0.2,0.0,1.0,-0.1,-0.1,-0.0,0.06,1.88,0.0,0.01,-0.32,-0.0,-0.06,0.0,11929.37,188.0,0.0,0.0,0.0,0.0
1776370021422123590,5506,0.024,0.3,0.0,1.0,-0.08,-0.02,-0.0,0.06,1.88,0.0,0.02,-0.34,0.06,-0.12,-0.06,11932.97,188.0,0.0,0.0,0.0,0.0
1776370021530458805,5606,0.012,0.3,0.0,1.1,0.04,-0.1,-0.0,0.06,1.88,0.01,-0.0,-0.33,-0.19,-0.06,0.06,11933.66,194.0,0.0,0.0,0.0,0.0
1776370021622745647,5706,0.0,0.4,0.0,0.5,0.1,-0.12,-0.0,0.06,1.88,0.0,-0.0,-0.32,-0.06,-0.19,0.06,11930.57,190.0,0.0,0.0,0.0,0.0
1776370021721136628,5806,0.0,0.1,0.0,0.5,0.08,-0.02,-0.0,0.06,1.88,0.01,-0.0,-0.32,0.06,-0.0,0.0,11931.08,190.0,0.0,0.0,0.0,0.0
1776370021823486636,5906,0.0,0.8,0.0,0.7,-0.04,-0.16,-0.0,0.06,1.88,0.02,-0.0,-0.33,-0.12,0.06,0.0,11930.05,187.0,0.0,0.0,0.0,0.0
1776370021921789631,6006,0.004,0.2,0.0,1.3,-0.06,0.04,-0.0,0.06,1.88,0.01,-0.0,-0.33,-0.0,0.06,0.06,11931.43,188.0,0.0,0.0,0.0,0.0
1776370022022236605,6106,0.0,1.1,0.0,1.0,-0.02,-0.14,-0.0,0.06,1.88,0.0,-0.0,-0.32,0.06,0.06,0.0,11933.31,188.0,0.0,0.0,0.0,0.0
1776370022125315049,6205,0.0,0.4,0.0,0.5,-0.02,0.0,-0.0,0.06,1.88,0.02,-0.01,-0.32,0.06,-0.06,0.0,11929.03,189.0,0.0,0.0,0.0,0.0
1776370022218854813,6305,0.04,0.2,0.0,0.6,-0.06,0.04,-0.0,0.06,1.88,0.01,0.02,-0.34,-0.0,0.06,0.06,11931.6,180.0,0.0,0.0,0.0,0.0
1776370022321206535,6405,0.0,0.7,0.024,0.5,-0.06,0.1,-0.0,0.06,1.88,0.01,0.01,-0.33,0.12,-0.12,0.06,11932.63,180.0,0.0,0.0,0.0,0.0
1776370022427495028,6505,0.0,0.4,0.02,0.5,-0.04,0.0,-0.0,0.06,1.88,0.02,-0.0,-0.32,0.06,-0.25,0.06,11930.05,187.0,0.0,0.0,0.0,0.0
1776370022530044482,6605,0.0,1.0,0.0,0.3,-0.14,-0.02,-0.0,0.06,1.88,0.01,-0.0,-0.33,0.12,-0.06,-0.12,11931.08,187.0,0.0,0.0,0.0,0.0
1776370022628147751,6706,0.0,0.1,0.0,1.1,-0.06,0.14,-0.0,0.06,1.88,0.0,-0.0,-0.31,-0.06,-0.0,0.0,11930.4,189.0,0.0,0.0,0.0,0.0
1776370022730624239,6806,0.008,0.3,0.0,0.5,-0.12,0.0,-0.0,0.06,1.88,0.02,0.01,-0.33,-0.0,0.06,-0.06,11930.91,195.0,0.0,0.0,0.0,0.0
1776370022822986925,6906,0.008,0.3,0.0,0.8,0.02,-0.12,-0.0,0.12,1.81,-0.09,0.06,-0.37,-0.5,-0.44,-0.06,11929.88,195.0,0.0,0.0,0.0,0.0
1776370022931274073,7007,0.0,0.2,0.0,0.7,-0.02,-0.06,0.06,0.06,1.94,0.1,0.09,-0.32,-0.19,-0.19,0.0,11928.68,175.0,0.0,0.0,0.0,0.0
1776370023023597312,7107,0.0,0.6,0.0,1.0,-0.02,0.0,-0.0,0.06,1.88,0.0,0.03,-0.25,0.31,-0.06,0.12,11930.23,184.0,0.0,0.0,0.0,0.0
1776370023132136893,7207,0.0,0.3,0.0,0.5,0.04,0.04,-0.0,0.12,1.88,0.03,0.01,-0.27,0.37,-0.0,0.06,11931.25,184.0,0.0,0.0,0.0,0.0
1776370023222356987,7307,0.036,0.4,0.0,1.2,-0.02,-0.1,0.06,0.06,2.06,0.02,0.05,-0.29,-0.0,-0.25,-0.12,11927.31,184.0,0.0,0.0,0.0,0.0
1776370023324759170,7407,0.032,0.3,0.0,1.1,-0.04,0.0,0.06,0.06,2.13,0.0,0.01,-0.29,0.19,-0.25,0.12,11927.65,184.0,0.0,0.0,0.0,0.0
1776370023430946808,7507,0.02,0.1,0.0,1.1,0.12,-0.18,0.06,0.06,2.13,0.03,0.07,-0.32,-0.19,0.06,0.0,11927.83,200.0,0.0,0.0,0.0,0.0
1776370023523311132,7607,0.0,0.9,0.0,0.6,-0.06,-0.06,0.06,0.06,2.13,0.08,-0.13,-0.41,0.12,-0.44,-0.12,11927.48,195.0,0.0,0.0,0.0,0.0
1776370023631720208,7707,0.008,-0.1,0.0,0.9,0.02,-0.06,-0.0,-0.0,2.19,-0.01,-0.52,-0.15,-0.81,0.31,-0.12,11929.71,195.0,0.0,0.0,0.0,0.0
1776370023734139243,7808,0.004,0.6,0.0,1.0,0.02,0.1,0.06,-0.06,2.25,-0.74,0.39,1.21,-3.0,4.69,1.75,11929.2,193.0,0.0,0.0,0.0,0.0
1776370023824507937,7908,0.0,0.3,0.0,0.8,0.04,-0.06,0.31,-0.75,0.31,0.27,0.12,0.03,-45.0,6.56,4.44,230.32,193.0,0.0,0.0,0.0,0.0
1776370023926922991,8009,0.0,0.5,0.0,1.0,-0.08,-0.12,1.81,-0.06,-3.0,2.05,0.03,0.05,-12.56,-19.56,19.25,281.77,227.0,0.0,0.0,0.0,0.0
1776370024053436552,8109,0.0,0.5,0.0,1.2,-0.08,-0.08,3.31,0.81,-1.81,-0.51,-0.15,-0.03,19.62,-4.44,8.56,309.04,280.0,0.0,0.0,0.0,0.0
1776370024125447694,8209,0.0,0.0,0.0,0.6,0.0,0.06,3.63,1.06,-0.12,-0.27,-0.57,1.33,15.63,0.37,-0.37,11926.28,290.0,0.0,0.0,0.0,0.0
1776370024225915159,8308,0.04,0.5,0.0,1.2,0.06,-0.08,3.69,0.56,1.06,-0.34,-0.76,1.29,6.75,5.13,-2.38,11928.34,290.0,0.0,0.0,0.0,0.0
1776370024324147711,8409,0.0,0.6,0.0,1.1,0.08,-0.02,3.38,0.12,1.5,0.42,-0.25,0.76,3.63,5.31,-4.5,428.58,290.0,0.0,0.0,0.0,0.0
1776370024426627005,8509,0.012,0.2,0.0,0.8,0.04,-0.04,3.19,-0.56,2.25,0.22,-0.06,0.2,12.56,7.38,-0.25,513.99,399.0,0.0,0.0,0.0,0.0
1776370024524926579,8608,0.0,0.0,0.0,0.2,-0.18,-0.12,3.5,-1.0,3.63,0.05,0.23,-0.83,12.06,-1.25,3.06,541.43,621.0,0.0,0.0,0.0,0.0
1776370024635331739,8709,0.0,0.1,0.0,0.8,-0.04,0.1,3.75,-0.69,4.44,0.14,0.39,-1.22,3.06,2.38,1.25,11929.03,1148.0,0.0,0.0,0.0,0.0
1776370024727663292,8809,0.0,0.6,0.0,0.3,0.06,0.08,3.94,-0.69,4.44,0.38,0.23,-0.92,0.37,-0.0,2.06,11928.85,1148.0,0.0,0.0,0.0,0.0
1776370024828032771,8909,0.0,0.1,0.0,0.5,0.08,-0.04,4.06,-0.56,4.56,0.15,-0.06,-1.05,4.31,-7.0,1.5,706.75,985.0,0.0,0.0,0.0,0.0
1776370024926352197,9009,0.0,0.6,0.0,0.8,0.08,-0.02,4.0,0.56,4.94,0.02,0.16,-1.65,2.0,-15.69,-3.0,829.55,985.0,0.0,0.0,0.0,0.0
1776370025036689509,9109,0.0,0.6,0.0,0.7,0.0,0.08,3.69,1.56,5.13,-0.03,0.24,-1.39,-0.88,-7.31,-0.37,11930.23,1482.0,0.0,0.0,0.0,0.0
1776370025127051135,9209,0.0,0.1,0.0,0.2,0.02,-0.25,3.75,2.13,5.0,-0.03,0.28,-0.97,-3.38,-2.5,3.06,822.34,1149.0,0.0,0.0,0.0,0.0
1776370025229438107,9310,0.0,0.4,0.0,0.9,-0.08,-0.2,4.06,2.25,4.75,-0.03,0.34,-0.5,-0.37,-0.37,2.63,11929.2,2096.0,0.0,0.0,0.0,0.0
1776370025327718651,9410,0.0,0.7,0.024,0.5,0.0,-0.06,4.19,2.44,4.94,-0.07,0.39,-0.63,-0.25,3.25,-0.31,11930.05,2096.0,0.0,0.0,0.0,0.0
1776370025426061957,9510,0.012,0.1,0.0,1.0,-0.08,0.0,4.0,2.31,5.0,0.24,0.5,-0.67,1.75,4.63,-5.31,837.78,1377.0,0.0,0.0,0.0,0.0
1776370025528476189,9610,0.0,0.9,0.0,1.2,0.0,-0.12,3.44,2.44,5.25,0.53,0.76,-0.5,9.88,4.31,-8.38,885.28,1377.0,0.0,0.0,0.0,0.0
1776370025628692220,9710,0.0,0.5,0.0,0.3,0.08,-0.06,2.44,1.37,6.38,0.27,0.43,-0.65,11.81,14.06,-12.19,11930.4,1005.0,0.0,0.0,0.0,0.0
1776370025729177170,9810,0.0,0.3,0.0,0.9,-0.02,-0.06,0.94,0.44,7.31,-0.57,0.02,-0.36,7.0,0.19,-18.5,817.37,1005.0,0.0,0.0,0.0,0.0
1776370025829429906,9911,0.0,0.2,0.0,1.1,0.12,-0.12,-1.25,0.37,7.63,-0.42,-0.21,-0.14,-5.13,-6.38,-24.75,11932.11,571.0,0.0,0.0,0.0,0.0
1776370025929883613,10011,0.0,0.9,0.0,0.9,-0.08,0.0,-3.75,0.69,7.25,0.09,-0.27,0.07,-4.06,-9.13,-25.0,803.13,1010.0,0.0,0.0,0.0,0.0
1776370026028156026,10112,0.0,0.3,0.0,0.8,-0.04,-0.06,-6.06,0.75,7.38,0.25,-0.15,-0.36,6.38,1.06,-21.75,814.63,1010.0,0.0,0.0,0.0,0.0
1776370026130592459,10212,0.0,0.0,0.0,1.2,-0.08,0.12,-7.75,-0.0,8.0,-0.16,-0.67,-0.78,4.0,8.19,-15.06,882.37,462.0,0.0,0.0,0.0,0.0
1776370026228902566,10311,0.024,0.3,0.0,1.0,-0.08,0.04,-8.63,-0.94,8.0,0.15,-0.88,0.02,-3.19,4.88,-3.5,873.45,2215.0,0.0,0.0,0.0,0.0
1776370026333078807,10411,0.0,0.5,0.0,0.1,0.0,-0.18,-8.19,-1.44,7.5,0.34,-0.68,-0.17,-2.88,3.06,8.31,11930.05,812.0,0.0,0.0,0.0,0.0
1776370026437629192,10511,0.0,0.4,0.016,0.3,0.0,-0.14,-7.63,-1.75,7.31,-0.21,-0.3,-0.86,-4.0,5.31,3.63,11933.14,812.0,0.0,0.0,0.0,0.0
1776370026527850543,10611,0.0,0.4,0.0,0.7,0.14,-0.1,-7.19,-3.13,7.13,-0.16,-0.35,-1.13,-7.94,15.81,2.88,839.66,2397.0,0.0,0.0,0.0,0.0
1776370026630304050,10712,0.004,0.1,0.004,0.2,0.0,-0.1,-7.0,-4.5,6.88,0.03,-0.24,-0.82,-0.0,6.94,-0.44,853.21,2397.0,0.0,0.0,0.0,0.0
1776370026728617361,10812,0.0,0.5,0.0,0.6,0.0,0.0,-6.94,-5.0,7.44,0.05,0.29,-0.51,9.19,7.56,4.75,825.09,881.0,0.0,0.0,0.0,0.0
1776370026831011811,10912,0.0,0.5,0.0,0.3,-0.04,-0.06,-5.81,-4.56,8.69,0.36,-0.08,-0.12,13.31,-12.38,18.69,799.19,881.0,0.0,0.0,0.0,0.0
1776370026929294677,11012,0.0,0.1,0.0,1.0,-0.04,-0.06,-3.75,-3.31,9.94,0.38,-0.02,0.3,11.13,-5.75,25.12,788.04,1331.0,0.0,0.0,0.0,0.0
1776370027031701119,11112,0.0,0.4,0.0,0.2,0.16,0.02,-1.12,-3.38,10.81,0.01,-0.05,-0.1,3.19,11.06,26.69,796.79,1230.0,0.0,0.0,0.0,0.0
1776370027130020841,11211,0.0,0.3,0.0,0.5,-0.04,0.0,0.94,-4.13,10.69,0.24,-0.2,-0.19,-5.25,7.69,12.13,795.76,1230.0,0.0,0.0,0.0,0.0
1776370027232423841,11312,0.0,0.2,0.024,0.5,0.1,-0.14,1.5,-4.56,10.31,0.24,-0.26,-0.34,-1.5,0.69,0.69,812.57,1786.0,0.0,0.0,0.0,0.0
1776370027330677783,11412,0.0,0.2,0.0,0.2,-0.02,-0.08,1.19,-4.44,10.31,-0.04,0.02,-0.5,2.19,-3.63,-6.5,885.11,887.0,0.0,0.0,0.0,0.0
1776370027428993172,11511,0.0,0.2,0.0,1.0,0.08,-0.04,0.31,-4.25,10.38,-0.03,-0.05,-0.65,-2.0,-5.25,-11.81,839.32,887.0,0.0,0.0,0.0,0.0
1776370027539337144,11611,0.0,0.2,0.0,0.9,-0.02,-0.08,-0.81,-3.94,10.0,0.42,-0.14,-0.13,-2.5,-6.44,-8.38,11929.71,1693.0,0.0,0.0,0.0,0.0
1776370027629753969,11711,0.004,0.2,0.0,0.9,0.04,-0.02,-1.44,-3.56,9.56,0.22,-0.18,0.37,-2.88,-8.0,-5.5,818.57,1541.0,0.0,0.0,0.0,0.0
1776370027738125370,11811,0.0,0.7,0.0,1.2,-0.21,-0.02,-1.88,-2.69,8.81,-0.02,0.07,0.36,-12.19,-8.56,-3.13,882.37,1541.0,0.0,0.0,0.0,0.0
1776370027832364815,11911,0.004,0.9,0.0,0.3,-0.04,-0.02,-2.06,-2.0,7.44,0.4,-0.1,-0.29,-12.94,-7.06,-2.5,11927.14,1737.0,0.0,0.0,0.0,0.0
1776370027930669741,12011,0.0,0.4,0.0,0.7,0.02,-0.02,-2.75,-1.69,6.38,0.4,0.15,-0.46,-6.5,4.0,-11.69,11926.11,2088.0,0.0,0.0,0.0,0.0
1776370028031128499,12111,0.0,0.2,0.0,0.7,-0.02,-0.04,-4.13,-2.75,6.0,0.5,-0.1,-0.54,2.06,9.94,-16.37,881.17,2088.0,0.0,0.0,0.0,0.0
1776370028129441499,12211,0.0,0.1,0.0,0.8,0.0,-0.25,-5.56,-3.44,6.13,0.41,-0.24,-0.94,4.38,0.19,-13.06,882.88,765.0,0.0,0.0,0.0,0.0
1776370028231855027,12311,0.0,1.0,0.0,1.0,0.04,-0.12,-6.69,-3.38,6.25,0.41,0.1,-0.94,5.25,-3.0,-9.25,11926.45,1058.0,0.0,0.0,0.0,0.0
1776370028330130062,12411,0.0,0.3,0.0,1.2,0.16,-0.12,-7.44,-3.31,6.44,0.36,0.15,-0.53,2.5,0.31,-5.44,947.71,1058.0,0.0,0.0,0.0,0.0
1776370028434450081,12512,0.012,0.5,0.0,1.1,0.14,-0.14,-7.63,-3.31,6.13,0.52,-0.18,-0.19,1.19,-2.31,2.88,11928.17,1821.0,0.0,0.0,0.0,0.0
1776370028530921444,12612,0.016,0.3,0.0,1.0,0.06,-0.04,-7.0,-2.75,5.88,0.7,-0.14,-0.21,6.81,-10.81,9.44,896.43,1821.0,0.0,0.0,0.0,0.0
1776370028633259932,12712,0.0,0.0,0.0,0.7,-0.1,0.04,-6.25,-1.5,6.75,-0.19,0.21,0.06,10.31,-8.88,5.19,865.39,1462.0,0.0,0.0,0.0,0.0
1776370028731556395,12813,0.0,0.3,0.0,0.7,-0.18,-0.04,-6.0,-1.31,7.75,-0.49,0.04,0.04,7.13,3.13,2.13,873.28,1787.0,0.0,0.0,0.0,0.0
1776370028833976015,12912,0.0,0.5,0.0,0.9,0.04,0.02,-5.56,-1.5,8.44,-0.29,-0.14,0.04,2.56,1.06,7.06,859.56,1787.0,0.0,0.0,0.0,0.0
1776370028932256162,13012,0.0,0.5,0.0,0.7,0.0,-0.04,-4.75,-1.25,8.69,-0.14,0.39,0.14,1.88,-0.81,8.44,857.84,2624.0,0.0,0.0,0.0,0.0
1776370029030538645,13112,0.0,0.1,0.0,1.0,0.04,-0.02,-4.13,-1.44,8.81,-0.26,0.51,-0.11,-2.94,11.75,2.5,889.57,2624.0,0.0,0.0,0.0,0.0
1776370029133019828,13212,0.0,0.1,0.0,1.0,0.02,-0.1,-3.75,-2.25,8.25,-0.25,-0.09,0.0,-9.31,4.94,3.75,940.33,1451.0,0.0,0.0,0.0,0.0
1776370029235459343,13313,0.0,0.3,0.0,0.3,0.08,-0.04,-3.44,-1.88,7.25,0.33,0.13,-0.16,-9.81,-8.63,1.5,898.32,1085.0,0.0,0.0,0.0,0.0
1776370029333629612,13413,0.032,0.3,0.0,0.7,0.0,-0.02,-3.88,-0.81,6.63,-0.24,0.47,-0.55,-2.5,-9.63,-8.94,912.21,1085.0,0.0,0.0,0.0,0.0
1776370029431935681,13512,0.016,0.2,0.0,0.4,-0.04,-0.08,-4.88,-0.63,6.69,-0.46,0.16,-0.67,-2.5,5.13,-8.63,915.81,1465.0,0.0,0.0,0.0,0.0
1776370029534360584,13612,0.004,0.0,0.0,0.3,0.18,0.08,-5.19,-1.0,6.56,-0.09,0.14,-0.75,-2.63,2.06,-0.63,940.68,1825.0,0.0,0.0,0.0,0.0
1776370029632676061,13712,0.0,0.3,0.0,1.2,0.0,-0.04,-5.25,-1.12,6.38,0.42,0.11,-0.68,-1.06,0.94,-1.75,935.88,1825.0,0.0,0.0,0.0,0.0
1776370029735098280,13813,0.0,0.8,0.0,0.8,-0.14,-0.08,-5.75,-1.19,6.5,0.4,0.25,-0.18,6.38,3.19,-9.5,912.04,980.0,0.0,0.0,0.0,0.0
1776370029833384070,13913,0.0,0.4,0.0,1.2,0.1,-0.08,-7.13,-1.69,7.19,0.0,-0.11,-0.09,10.63,3.75,-15.56,922.16,937.0,0.0,0.0,0.0,0.0
1776370029931675213,14013,0.004,0.2,0.0,0.2,-0.02,0.02,-8.44,-2.0,8.13,-0.13,-0.17,0.21,9.81,-1.25,-11.06,880.31,937.0,0.0,0.0,0.0,0.0
1776370030034076966,14112,0.0,0.4,0.0,0.3,0.04,-0.12,-9.25,-1.94,9.0,-0.28,-0.07,0.28,8.38,-3.56,-7.88,921.47,1081.0,0.0,0.0,0.0,0.0
1776370030132391229,14212,0.0,0.2,0.0,0.9,-0.02,-0.1,-10.13,-1.75,9.31,-0.75,-0.22,-0.2,-3.81,-1.94,-10.38,907.41,1773.0,0.0,0.0,0.0,0.0
1776370030230649176,14312,0.04,0.1,0.0,0.9,-0.06,-0.2,-11.0,-1.88,8.88,-0.24,-0.06,-0.09,-11.5,-1.37,-5.75,906.55,1773.0,0.0,0.0,0.0,0.0
1776370030334953395,14411,0.028,0.2,0.0,1.2,0.0,-0.08,-11.31,-2.0,8.0,0.01,-0.02,-0.45,-5.31,4.44,-1.81,11928.0,1846.0,0.0,0.0,0.0,0.0
1776370030431390824,14511,0.016,0.2,0.0,0.8,-0.18,-0.02,-11.38,-2.75,7.69,0.06,-0.19,-0.38,-1.56,7.75,-0.63,921.47,1846.0,0.0,0.0,0.0,0.0
1776370030529664216,14611,0.0,0.5,0.0,0.3,-0.08,-0.06,-11.31,-3.31,7.63,0.3,-0.21,-0.49,0.81,-0.0,1.88,917.87,1946.0,0.0,0.0,0.0,0.0
1776370030632096120,14710,0.0,0.2,0.0,0.0,-0.04,-0.1,-11.31,-3.13,7.5,0.45,0.05,-0.18,0.88,-4.56,-1.06,922.67,2283.0,0.0,0.0,0.0,0.0
1776370030732325329,14810,0.004,0.0,0.0,0.8,-0.1,0.0,-11.31,-2.81,7.06,0.57,-0.0,-0.43,-1.81,-1.56,2.63,11926.62,1468.0,0.0,0.0,0.0,0.0
1776370030840803246,14910,0.0,0.2,0.0,0.8,0.02,0.02,-10.81,-2.63,6.56,0.42,-0.01,-0.44,-4.94,-0.75,6.25,11928.34,1468.0,0.0,0.0,0.0,0.0
1776370030931105382,15009,0.0,0.6,0.0,1.1,-0.08,-0.02,-10.25,-2.94,6.13,0.38,-0.3,-0.32,-2.0,3.38,6.5,1032.26,1270.0,0.0,0.0,0.0,0.0
1776370031031326764,15109,0.0,0.1,0.0,0.1,-0.06,-0.08,-9.13,-2.63,6.13,-0.05,0.08,-0.27,5.19,-9.13,15.69,11928.0,1634.0,0.0,0.0,0.0,0.0
1776370031131808349,15209,0.0,0.1,0.0,0.3,0.12,0.06,-7.69,-2.0,6.63,-0.76,0.34,0.73,4.56,0.63,12.25,921.64,1634.0,0.0,0.0,0.0,0.0
1776370031230124299,15309,0.0,0.4,0.0,0.9,0.06,0.0,-7.44,-2.38,7.06,-0.52,-0.18,-0.1,3.75,3.06,-0.37,899.86,1634.0,0.0,0.0,0.0,0.0
1776370031332465529,15409,0.0,0.7,0.0,1.1,-0.06,-0.08,-7.13,-2.25,7.56,-0.66,0.08,-0.45,-2.25,-5.81,6.81,897.12,1758.0,0.0,0.0,0.0,0.0
1776370031430804628,15510,0.0,-0.1,0.0,0.6,-0.04,-0.18,-6.44,-1.56,7.31,-0.61,0.23,-0.24,-8.94,-2.75,4.69,916.15,935.0,0.0,0.0,0.0,0.0
1776370031533212026,15610,0.008,0.1,0.0,1.0,-0.04,0.0,-6.31,-1.69,6.69,-0.07,0.22,-0.66,-9.75,7.19,-0.44,900.72,935.0,0.0,0.0,0.0,0.0
1776370031631522013,15710,0.0,0.3,0.0,1.0,0.08,0.02,-6.31,-2.06,5.88,-0.22,-0.22,0.35,-7.0,1.37,-0.06,959.03,1490.0,0.0,0.0,0.0,0.0
1776370031729785073,15810,0.004,0.1,0.0,0.5,-0.06,-0.04,-6.56,-1.69,5.5,0.32,0.09,0.01,-3.38,-4.56,-5.75,926.44,1065.0,0.0,0.0,0.0,0.0
1776370031832214453,15909,0.0,0.1,0.0,0.9,0.0,-0.02,-7.56,-1.81,4.69,0.14,0.35,-1.01,-10.75,4.25,-11.25,968.8,1065.0,0.0,0.0,0.0,0.0
1776370031930516866,16009,0.0,0.4,0.0,1.2,0.14,0.04,-8.31,-2.38,3.69,0.61,0.22,-1.05,-7.94,7.69,-8.25,941.71,1142.0,0.0,0.0,0.0,0.0
1776370032040875579,16110,0.0,0.0,0.0,1.0,-0.02,-0.02,-9.06,-2.94,3.25,0.26,0.15,-0.32,2.56,4.88,-8.0,11931.43,1514.0,0.0,0.0,0.0,0.0
1776370032132177266,16210,0.0,0.3,0.0,0.1,-0.04,-0.12,-9.88,-3.31,4.06,0.05,0.13,0.45,17.62,-0.75,-4.94,11928.17,2009.0,0.0,0.0,0.0,0.0
1776370032233603460,16310,0.032,0.0,0.0,0.7,0.0,-0.02,-10.06,-3.19,5.94,-0.1,0.21,0.3,18.06,2.69,-1.75,896.6,2009.0,0.0,0.0,0.0,0.0
1776370032331929516,16410,0.0,0.3,0.0,0.8,-0.06,-0.16,-10.44,-3.75,7.06,0.01,-0.08,-0.12,3.88,6.38,-3.75,909.12,1844.0,0.0,0.0,0.0,0.0
1776370032430232424,16509,0.0,0.2,0.0,0.9,-0.1,-0.02,-10.44,-4.06,7.06,-0.37,-0.22,0.16,-1.44,-1.25,2.5,894.89,1844.0,0.0,0.0,0.0,0.0
1776370032532637310,16610,0.012,0.3,0.0,0.9,-0.12,-0.18,-10.31,-3.88,7.31,-0.72,-0.15,0.17,-1.94,-2.69,0.31,879.79,1762.0,0.0,0.0,0.0,0.0
1776370032630928032,16709,0.008,0.1,0.0,0.6,-0.06,-0.04,-10.5,-3.88,7.19,-0.44,-0.03,-0.16,-4.75,1.25,-4.31,918.73,1762.0,0.0,0.0,0.0,0.0
1776370032731176510,16808,0.008,0.2,0.0,0.8,0.04,-0.12,-10.69,-4.13,6.75,0.08,-0.26,-0.72,-5.63,2.31,-0.19,11929.2,1628.0,0.0,0.0,0.0,0.0
1776370032831670790,16908,0.004,0.2,0.0,0.8,-0.06,0.06,-10.44,-4.13,6.19,0.37,-0.05,-0.65,-3.19,-1.5,3.81,943.59,905.0,0.0,0.0,0.0,0.0
1776370032929949586,17007,0.0,0.4,0.0,0.5,-0.02,-0.08,-10.31,-3.94,5.81,0.37,-0.05,-0.75,-2.94,-3.75,0.56,954.23,905.0,0.0,0.0,0.0,0.0
1776370033028244317,17106,0.0,0.3,0.0,0.5,0.08,-0.06,-10.06,-3.56,5.13,0.45,-0.0,-0.54,-3.88,-2.94,4.69,930.56,594.0,0.0,0.0,0.0,0.0
1776370033126518193,17206,0.0,0.1,0.0,1.2,0.12,-0.12,-9.5,-3.5,5.13,0.33,-0.11,-0.36,7.38,0.06,7.69,924.56,1034.0,0.0,0.0,0.0,0.0
1776370033228949875,17305,0.0,0.9,0.012,0.3,0.04,-0.14,-8.56,-3.19,6.06,-0.3,0.08,-0.12,12.94,-5.31,15.81,900.72,1034.0,0.0,0.0,0.0,0.0
1776370033327219547,17404,0.016,0.6,0.0,0.8,0.0,0.08,-6.94,-2.81,7.0,-0.42,0.17,0.81,4.25,4.06,17.37,884.25,1590.0,0.0,0.0,0.0,0.0
1776370033425483163,17504,0.008,0.3,0.0,0.9,-0.06,-0.04,-5.31,-3.13,7.31,-0.55,-0.09,-0.15,-0.31,6.56,13.5,891.97,1590.0,0.0,0.0,0.0,0.0
1776370033527933271,17604,0.0,0.1,0.0,0.4,0.06,-0.02,-4.56,-3.19,7.19,-0.43,-0.1,0.12,-7.81,-4.94,0.69,907.58,2063.0,0.0,0.0,0.0,0.0
1776370033626253945,17703,0.0,0.3,0.0,1.0,0.04,-0.08,-4.75,-2.25,6.44,0.28,0.13,0.04,-7.31,-12.88,-2.19,920.95,1947.0,0.0,0.0,0.0,0.0
1776370033734660792,17803,0.0,0.1,0.0,0.7,-0.02,0.08,-5.19,-1.25,5.94,0.21,0.4,-0.5,-4.38,-6.63,-6.88,918.55,1947.0,0.0,0.0,0.0,0.0
1776370033826949539,17903,0.0,0.3,0.0,0.8,-0.12,-0.14,-6.0,-1.25,5.44,0.03,0.11,-0.52,-5.63,2.81,-6.69,975.83,1282.0,0.0,0.0,0.0,0.0
1776370033925250194,18002,0.0,0.1,0.0,0.7,-0.12,-0.04,-6.19,-1.63,4.94,0.17,0.3,-0.46,-3.94,7.88,0.75,923.36,1272.0,0.0,0.0,0.0,0.0
1776370034027648004,18102,0.0,0.3,0.0,1.1,0.02,-0.14,-5.94,-2.5,4.06,0.48,0.16,-0.55,-11.0,11.5,0.88,970.35,1272.0,0.0,0.0,0.0,0.0
1776370034125956563,18203,0.0,0.4,0.0,1.0,0.14,-0.1,-6.38,-3.06,2.44,0.62,0.24,-0.56,-6.13,4.19,-8.44,943.94,2506.0,0.0,0.0,0.0,0.0
1776370034228364957,18304,0.04,0.4,0.0,0.9,0.06,-0.08,-7.44,-3.06,2.44,-0.29,0.13,-0.12,13.31,-2.5,-11.94,922.5,2043.0,0.0,0.0,0.0,0.0
1776370034330718999,18405,0.0,0.7,0.02,0.4,0.02,-0.08,-8.56,-2.5,3.94,-0.81,-0.0,-0.03,15.0,-9.44,-7.44,918.21,2043.0,0.0,0.0,0.0,0.0
1776370034429036188,18506,0.0,0.5,0.0,0.9,-0.14,0.02,-9.13,-1.69,5.0,-0.35,0.06,0.0,3.0,-4.31,-7.88,905.35,1701.0,0.0,0.0,0.0,0.0
1776370034531459879,18606,0.008,0.3,0.0,0.4,-0.04,-0.12,-10.19,-2.06,5.31,-0.55,-0.44,0.21,2.94,6.56,-11.75,941.53,1997.0,0.0,0.0,0.0,0.0
1776370034629765364,18707,0.0,0.1,0.0,1.2,-0.08,0.0,-10.75,-3.0,5.75,-0.14,-0.38,0.05,1.0,3.5,-1.06,930.56,1997.0,0.0,0.0,0.0,0.0
1776370034732154406,18807,0.008,0.3,0.0,0.9,-0.06,-0.12,-10.75,-3.31,5.88,-0.06,-0.11,-0.56,1.12,3.75,-1.19,912.04,1833.0,0.0,0.0,0.0,0.0
1776370034834556615,18908,0.0,0.4,0.0,1.0,0.02,-0.08,-11.06,-3.81,5.81,-0.09,-0.19,-0.57,-4.63,2.94,-4.94,937.25,1833.0,0.0,0.0,0.0,0.0
1776370034940815524,19009,0.0,0.3,0.0,1.1,0.0,0.06,-11.5,-4.19,5.25,0.59,-0.17,-0.87,-4.81,0.69,-3.25,11928.51,1898.0,0.0,0.0,0.0,0.0
1776370035035255555,19109,0.0,0.2,0.0,0.2,0.04,-0.02,-11.63,-4.19,4.88,0.7,-0.07,-0.42,1.19,-1.94,0.06,933.99,2498.0,0.0,0.0,0.0,0.0
1776370035133557528,19210,0.0,0.3,0.0,0.6,-0.02,-0.04,-11.44,-4.13,4.19,0.56,-0.13,-0.51,3.38,-1.75,5.06,945.48,2498.0,0.0,0.0,0.0,0.0
1776370035235965997,19311,0.036,0.1,0.0,0.9,0.02,-0.14,-10.75,-3.94,4.38,-0.44,-0.05,0.16,1.81,-2.5,8.25,923.53,1335.0,0.0,0.0,0.0,0.0
1776370035334214210,19411,0.0,0.4,0.0,0.3,-0.04,-0.02,-9.88,-3.38,4.94,-0.43,0.13,0.11,7.31,-3.44,7.25,902.43,1007.0,0.0,0.0,0.0,0.0
1776370035436630031,19511,0.008,0.4,0.0,0.5,0.08,-0.04,-9.25,-3.25,6.06,-0.42,0.15,0.0,10.94,2.19,7.75,897.12,1007.0,0.0,0.0,0.0,0.0
1776370035534968209,19612,0.0,0.2,0.0,0.8,0.06,-0.12,-8.25,-3.31,6.88,-0.84,0.03,0.39,4.5,1.94,11.06,937.93,908.0,0.0,0.0,0.0,0.0
1776370035637397123,19712,0.0,0.1,0.0,0.6,-0.02,-0.06,-7.5,-3.13,7.38,-0.13,0.15,0.11,-4.88,-1.25,3.06,904.49,2329.0,0.0,0.0,0.0,0.0
1776370035739796129,19813,0.004,0.1,0.0,0.8,-0.08,-0.04,-7.81,-2.94,6.75,0.32,0.02,-0.49,-7.13,-3.75,-6.31,931.76,2329.0,0.0,0.0,0.0,0.0
1776370035838070676,19913,0.0,0.5,0.0,0.3,0.02,-0.02,-8.38,-2.25,5.94,-0.11,0.39,-0.73,-8.56,-8.69,-3.88,994.19,1393.0,0.0,0.0,0.0,0.0
1776370035940463515,20014,0.0,0.7,0.0,0.8,-0.14,-0.21,-8.44,-2.06,4.94,0.23,0.37,-1.02,-11.19,5.06,1.06,953.37,1393.0,0.0,0.0,0.0,0.0
1776370036038769129,20114,0.0,0.4,0.0,1.1,0.08,-0.04,-8.31,-2.94,4.0,0.46,0.05,-0.89,-6.31,9.75,-0.5,966.23,2330.0,0.0,0.0,0.0,0.0
1776370036137073377,20213,0.0,0.0,0.0,0.7,0.12,-0.04,-8.75,-3.63,3.63,-0.33,-0.03,-0.08,2.81,3.75,-8.75,940.33,1378.0,0.0,0.0,0.0,0.0
1776370036239478226,20313,0.032,0.3,0.02,0.5,0.02,-0.02,-9.81,-3.69,4.5,-0.84,-0.08,0.26,13.0,-3.31,-9.38,951.31,1378.0,0.0,0.0,0.0,0.0
1776370036337740548,20414,0.028,0.4,0.0,0.9,0.04,-0.04,-10.88,-3.19,6.0,-0.58,-0.08,-0.03,12.69,-8.38,-12.38,894.72,1598.0,0.0,0.0,0.0,0.0
1776370036440171824,20514,0.0,0.6,0.008,0.9,0.06,-0.04,-12.19,-2.75,7.38,-0.59,-0.15,0.16,7.75,-5.31,-13.19,919.93,994.0,0.0,0.0,0.0,0.0
1776370036548545035,20615,0.004,-0.1,0.0,0.9,0.1,0.04,-13.31,-2.94,7.94,-0.35,-0.23,0.14,-0.31,2.38,-8.75,898.83,994.0,0.0,0.0,0.0,0.0
1776370036640869736,20715,0.0,0.9,0.0,0.7,-0.1,-0.02,-13.69,-3.63,7.81,-0.08,-0.15,-0.21,-5.06,6.25,0.37,956.11,1620.0,0.0,0.0,0.0,0.0
1776370036741088949,20815,0.0,0.6,0.0,1.4,-0.1,0.0,-13.38,-4.31,7.31,0.18,-0.21,-0.51,-6.69,4.25,2.81,11928.85,2168.0,0.0,0.0,0.0,0.0
1776370036841576778,20915,0.004,1.0,0.0,0.7,-0.06,0.04,-13.31,-4.38,6.69,0.38,0.03,-0.72,-6.25,-2.19,-1.56,935.36,2168.0,0.0,0.0,0.0,0.0
1776370036939870507,21015,0.0,0.2,0.0,0.8,-0.06,0.0,-13.63,-4.19,5.88,0.72,0.33,-0.55,-5.31,-1.06,-3.19,904.49,1002.0,0.0,0.0,0.0,0.0
1776370037038177862,21114,0.0,0.2,0.0,0.8,0.06,-0.02,-13.63,-4.0,4.56,0.69,0.1,-0.6,-7.81,0.69,4.88,943.25,1533.0,0.0,0.0,0.0,0.0
1776370037140584193,21214,0.0,0.5,0.0,1.0,0.08,-0.04,-12.5,-4.13,3.63,0.03,-0.06,-0.15,1.81,2.56,17.0,892.49,1533.0,0.0,0.0,0.0,0.0
1776370037238863391,21314,0.024,0.2,0.0,0.6,0.04,-0.02,-10.69,-4.13,4.38,-0.77,-0.16,0.69,9.06,1.56,17.44,911.01,1745.0,0.0,0.0,0.0,0.0
1776370037337143292,21413,0.012,0.7,0.016,0.6,0.18,-0.08,-9.06,-3.88,5.75,-0.04,-0.02,0.23,12.06,-4.5,17.31,907.41,1745.0,0.0,0.0,0.0,0.0
1776370037439583124,21513,0.0,0.1,0.0,0.2,0.0,-0.04,-7.31,-3.06,6.63,-0.35,0.29,0.14,3.19,-4.25,17.5,905.52,2176.0,0.0,0.0,0.0,0.0
1776370037539824006,21613,0.008,0.0,0.0,0.8,-0.06,-0.1,-6.25,-2.75,6.63,-0.08,0.04,0.01,-4.5,2.06,4.06,11927.48,1675.0,0.0,0.0,0.0,0.0
1776370037640287041,21713,0.0,0.3,0.0,0.8,-0.18,-0.08,-6.06,-2.63,6.0,-0.1,0.22,-0.8,-8.31,-3.69,2.44,988.01,1675.0,0.0,0.0,0.0,0.0
1776370037738600239,21813,0.0,0.2,0.0,0.8,-0.04,-0.2,-5.88,-2.25,5.44,-0.18,0.33,-0.61,-10.13,3.75,0.25,981.49,1765.0,0.0,0.0,0.0,0.0
1776370037836885530,21912,0.0,0.8,0.0,0.2,-0.02,0.02,-5.81,-2.69,4.75,0.37,0.11,-0.67,-2.69,4.44,0.88,988.18,1208.0,0.0,0.0,0.0,0.0
1776370037939287638,22012,0.0,0.9,0.0,0.5,0.1,-0.08,-5.75,-2.94,4.5,0.34,0.14,-0.81,-2.56,3.25,-1.69,978.92,1208.0,0.0,0.0,0.0,0.0
1776370038037593798,22112,0.0,0.2,0.0,0.9,0.04,-0.02,-6.38,-3.19,3.94,0.42,-0.12,-0.56,1.88,3.19,-12.88,948.91,1354.0,0.0,0.0,0.0,0.0
1776370038139984508,22212,0.0,0.0,0.0,1.0,0.02,0.08,-7.81,-3.19,4.25,-0.63,-0.28,0.25,5.75,-7.31,-18.31,946.68,1354.0,0.0,0.0,0.0,0.0
1776370038238254477,22312,0.044,0.2,0.0,0.9,-0.06,-0.1,-9.75,-2.25,4.81,-0.89,0.1,0.92,9.56,-10.63,-20.5,938.62,2008.0,0.0,0.0,0.0,0.0
1776370038340657279,22413,0.0,0.3,0.0,1.0,-0.06,-0.18,-11.81,-1.94,6.0,-0.53,-0.1,-0.28,12.31,2.88,-21.56,968.29,1327.0,0.0,0.0,0.0,0.0
1776370038438993954,22513,0.02,0.4,0.0,0.9,-0.1,-0.1,-13.38,-2.44,6.94,-0.51,-0.26,-0.12,3.19,0.94,-6.81,976.52,1327.0,0.0,0.0,0.0,0.0
1776370038539216866,22612,0.012,0.2,0.0,1.1,0.08,0.0,-13.63,-2.75,7.19,-0.29,-0.04,-0.13,-5.56,4.94,-1.94,11930.57,1116.0,0.0,0.0,0.0,0.0
1776370038639695152,22712,0.012,0.0,0.0,0.9,0.06,-0.1,-13.63,-3.31,6.56,0.06,-0.28,-0.37,-7.94,4.5,3.06,968.8,1093.0,0.0,0.0,0.0,0.0
1776370038739977435,22811,0.0,0.2,0.0,0.2,-0.1,-0.1,-12.94,-3.38,5.94,0.35,0.01,-0.81,-5.31,-0.75,7.38,11931.08,2293.0,0.0,0.0,0.0,0.0
1776370038840393351,22912,0.0,0.2,0.0,1.1,0.0,-0.12,-12.38,-3.38,5.38,0.45,-0.16,-0.76,-2.44,1.0,6.06,978.92,2293.0,0.0,0.0,0.0,0.0
1776370038938672246,23013,0.0,0.5,0.0,1.1,-0.04,-0.27,-11.25,-3.25,5.06,0.91,0.1,-0.8,2.31,-1.0,16.31,966.57,2407.0,0.0,0.0,0.0,0.0
1776370039041090699,23113,0.0,0.1,0.0,1.0,-0.14,-0.12,-9.63,-3.56,5.19,0.18,-0.14,-0.41,5.56,7.94,17.19,942.74,2407.0,0.0,0.0,0.0,0.0
1776370039141329314,23213,0.0,0.4,0.0,0.3,-0.08,0.02,-7.5,-3.56,5.25,-0.55,-0.19,0.17,-6.5,-3.31,27.87,11929.2,1402.0,0.0,0.0,0.0,0.0
1776370039241806693,23313,0.028,0.1,0.0,0.8,0.06,-0.1,-4.94,-3.06,4.81,-0.63,0.08,1.04,-1.19,1.81,17.62,985.44,968.0,0.0,0.0,0.0,0.0
1776370039340068424,23413,0.02,0.3,0.0,0.2,-0.1,0.02,-4.19,-3.38,5.44,-0.7,-0.14,-0.11,9.13,1.44,3.5,1004.99,968.0,0.0,0.0,0.0,0.0
1776370039442495687,23514,0.0,0.3,0.0,1.0,0.04,0.02,-4.0,-2.88,6.31,-0.95,0.17,0.0,4.31,-6.81,0.31,963.49,2456.0,0.0,0.0,0.0,0.0
1776370039540814437,23614,0.0,0.2,0.0,0.7,-0.04,-0.08,-4.13,-2.25,6.31,-0.35,0.3,-0.71,-3.25,-5.75,-1.44,994.36,2456.0,0.0,0.0,0.0,0.0
1776370039639106186,23713,0.0,0.5,0.0,0.3,-0.06,-0.08,-4.19,-1.63,6.13,-0.24,0.1,-0.22,-5.38,-4.88,-1.12,1008.08,1759.0,0.0,0.0,0.0,0.0
1776370039741508245,23813,0.0,0.5,0.0,0.2,-0.02,-0.04,-4.63,-1.37,5.75,0.33,0.14,-0.61,-4.19,0.19,-6.44,966.92,1283.0,0.0,0.0,0.0,0.0
1776370039839834643,23913,0.0,0.2,0.0,0.3,-0.04,0.02,-5.0,-1.69,4.81,0.15,0.14,-0.58,-11.0,6.31,-2.38,955.94,1283.0,0.0,0.0,0.0,0.0
1776370039942207776,24013,0.0,0.2,0.0,0.9,-0.02,-0.04,-5.44,-2.44,3.69,0.52,-0.05,-0.31,-11.19,7.06,-7.0,957.48,1016.0,0.0,0.0,0.0,0.0
1776370040048419672,24114,0.0,0.4,0.0,0.9,-0.04,-0.2,-6.13,-2.81,2.44,0.64,0.4,-0.4,-7.94,4.38,-7.94,11931.94,1724.0,0.0,0.0,0.0,0.0
1776370040142897519,24214,0.004,0.2,0.0,0.3,-0.02,-0.04,-7.25,-3.19,2.06,-0.48,0.05,0.25,5.38,4.13,-14.63,11930.23,1369.0,0.0,0.0,0.0,0.0
1776370040241204481,24314,0.0,0.6,0.0,0.3,0.0,-0.02,-8.75,-3.25,3.0,-1.23,-0.13,0.47,12.56,-2.0,-14.63,11930.05,1369.0,0.0,0.0,0.0,0.0
1776370040343556507,24415,0.032,0.1,0.0,0.3,0.1,-0.08,-10.19,-3.13,4.06,-0.79,-0.27,-0.57,9.69,-3.56,-14.56,938.45,1369.0,0.0,0.0,0.0,0.0
1776370040441928711,24515,0.0,0.4,0.0,0.9,-0.1,-0.06,-11.25,-3.31,4.94,-0.18,-0.1,-0.25,7.06,5.94,-4.5,1089.2,1064.0,0.0,0.0,0.0,0.0
1776370040540138264,24614,0.0,0.4,0.0,0.3,-0.02,0.02,-10.88,-4.44,5.5,-0.05,-0.23,-0.45,1.81,15.0,7.56,947.37,1097.0,0.0,0.0,0.0,0.0
1776370040642602976,24714,0.0,0.3,0.0,0.5,-0.02,-0.06,-10.0,-5.75,5.56,-0.08,-0.66,-0.46,-1.5,8.75,8.25,958.0,1097.0,0.0,0.0,0.0,0.0
1776370040740881735,24814,0.0,0.2,0.0,0.5,0.02,0.1,-9.25,-5.38,5.5,0.29,-0.3,-0.72,-1.5,-14.31,7.81,998.82,1823.0,0.0,0.0,0.0,0.0
1776370040843307798,24914,0.0,0.3,0.0,1.2,-0.16,-0.1,-8.94,-3.94,5.44,0.6,0.14,-0.58,-0.06,-11.5,0.5,927.64,1912.0,0.0,0.0,0.0,0.0
1776370040945708824,25015,0.0,0.1,0.0,1.0,0.02,-0.18,-8.75,-3.19,4.5,0.5,-0.31,-0.6,-5.81,-10.56,8.75,969.49,1912.0,0.0,0.0,0.0,0.0
1776370041044034157,25116,0.0,0.3,0.0,0.5,-0.08,-0.16,-7.5,-2.0,3.25,-0.47,0.04,0.21,-13.88,-12.25,11.44,911.69,1104.0,0.0,0.0,0.0,0.0
1776370041146403361,25217,0.0,0.1,0.0,0.9,-0.02,-0.04,-6.5,-1.69,2.5,-0.99,-0.15,1.11,-1.44,6.0,8.25,938.45,1211.0,0.0,0.0,0.0,0.0
1776370041244721338,25317,0.028,0.2,0.028,0.3,-0.06,-0.08,-6.19,-2.38,3.13,-0.77,-0.47,-0.09,10.31,3.94,2.0,915.3,1211.0,0.0,0.0,0.0,0.0
1776370041347062505,25417,0.028,0.1,0.0,1.0,0.02,0.04,-5.69,-2.19,4.38,-0.78,0.21,-0.16,4.75,-8.0,5.56,969.66,2498.0,0.0,0.0,0.0,0.0
1776370041445392038,25517,0.016,0.1,0.0,0.5,-0.02,0.02,-6.06,-1.81,4.44,-0.11,0.06,0.01,-6.13,0.25,-15.19,943.94,2001.0,0.0,0.0,0.0,0.0
1776370041543714589,25617,0.0,0.3,0.0,1.0,-0.06,0.02,-7.69,-1.75,3.5,-0.04,0.32,-0.93,-8.75,-1.69,-15.81,948.22,2001.0,0.0,0.0,0.0,0.0
1776370041646128016,25716,0.0,0.4,0.0,0.5,0.06,0.1,-8.75,-1.94,2.94,-0.42,0.1,-1.26,-4.56,2.5,-2.56,975.49,749.0,0.0,0.0,0.0,0.0
1776370041744411123,25816,0.0,0.2,0.0,0.9,0.12,-0.12,-8.75,-2.13,2.63,0.55,0.38,-0.85,-6.0,5.5,-3.94,948.39,749.0,0.0,0.0,0.0,0.0
1776370041842709803,25916,0.0,0.3,0.0,1.0,-0.1,0.02,-9.56,-3.06,1.75,0.37,-0.01,-0.62,-6.13,13.75,-10.44,947.54,1465.0,0.0,0.0,0.0,0.0
1776370041945172656,26015,0.0,0.3,0.0,0.8,0.04,-0.12,-10.44,-4.19,1.37,-0.01,-0.41,0.67,5.63,5.19,-7.88,965.72,1857.0,0.0,0.0,0.0,0.0
1776370042043376820,26116,0.0,0.3,0.0,1.2,0.02,-0.1,-11.38,-3.88,2.75,-1.1,0.13,0.32,17.31,-9.88,-12.38,950.28,1857.0,0.0,0.0,0.0,0.0
1776370042145814245,26216,0.0,0.3,0.0,0.9,-0.06,0.06,-12.81,-3.88,3.38,-1.35,-0.29,0.18,0.31,7.75,-13.75,958.17,1487.0,0.0,0.0,0.0,0.0
1776370042244125170,26316,0.0,-0.1,0.0,0.9,-0.04,-0.18,-13.56,-4.56,3.38,-0.39,-0.34,-0.56,2.44,4.44,-2.81,958.69,1486.0,0.0,0.0,0.0,0.0
1776370042346505335,26416,0.0,0.3,0.0,0.2,-0.16,0.04,-13.31,-4.69,3.75,-0.5,-0.02,-0.7,0.31,1.69,5.94,963.83,1486.0,0.0,0.0,0.0,0.0
1776370042444811185,26516,0.016,0.1,0.0,1.0,0.06,-0.06,-12.69,-5.0,3.81,-0.02,-0.0,-0.47,-4.06,2.0,4.19,992.98,1935.0,0.0,0.0,0.0,0.0
1776370042549130729,26615,0.0,0.4,0.0,1.2,-0.04,-0.04,-12.5,-4.81,3.69,0.42,-0.13,-0.81,-0.44,-8.31,1.25,11930.05,1398.0,0.0,0.0,0.0,0.0
1776370042645520553,26715,0.0,0.7,0.0,0.7,-0.02,-0.12,-12.19,-3.44,3.19,0.51,0.22,-0.53,-7.38,-14.69,5.25,981.67,1398.0,0.0,0.0,0.0,0.0
1776370042743819256,26815,0.0,0.3,0.004,0.6,0.0,0.06,-11.5,-2.56,1.81,0.62,-0.12,-0.74,-12.13,-5.38,9.38,974.29,1304.0,0.0,0.0,0.0,0.0
1776370042846211032,26915,0.0,0.3,0.0,1.3,-0.02,-0.02,-10.13,-2.25,1.0,0.2,-0.01,-0.24,0.88,-2.0,17.44,978.58,1304.0,0.0,0.0,0.0,0.0
1776370042944523697,27016,0.0,0.4,0.0,0.7,-0.04,0.06,-8.06,-2.25,1.94,-1.65,-0.43,0.75,10.69,3.69,23.12,917.18,1241.0,0.0,0.0,0.0,0.0
1776370043046914493,27116,0.0,0.9,0.0,1.0,-0.02,-0.08,-6.25,-2.38,2.63,-1.16,-0.03,0.19,4.13,0.12,14.88,942.74,1098.0,0.0,0.0,0.0,0.0
1776370043145223296,27216,0.0,0.2,0.0,0.8,0.04,-0.12,-5.13,-2.31,3.31,-0.64,0.25,-0.37,5.69,1.0,10.06,950.8,1098.0,0.0,0.0,0.0,0.0
1776370043247635355,27316,0.024,0.3,0.0,0.6,-0.08,0.02,-4.56,-2.06,4.25,-0.4,-0.01,-0.24,-3.63,-3.38,-0.31,960.74,1929.0,0.0,0.0,0.0,0.0
1776370043345897565,27416,0.0,0.5,0.0,0.2,-0.06,-0.04,-5.06,-1.31,3.75,-0.14,0.39,-0.28,-6.25,-8.75,-4.81,980.81,1164.0,0.0,0.0,0.0,0.0
1776370043444215220,27515,0.0,0.7,0.0,0.9,-0.18,-0.06,-5.19,-0.44,3.56,-0.07,0.42,-0.55,-1.69,-0.37,0.31,958.51,1164.0,0.0,0.0,0.0,0.0
1776370043546587723,27616,0.0,0.4,0.0,1.0,0.08,-0.12,-5.0,-0.75,3.44,0.26,-0.01,-0.85,-1.94,7.56,3.69,977.21,1524.0,0.0,0.0,0.0,0.0
1776370043644927545,27715,0.0,0.9,0.0,0.8,0.08,0.0,-4.75,-1.37,2.88,0.26,0.05,-0.81,-9.19,5.81,-1.81,996.93,2200.0,0.0,0.0,0.0,0.0
1776370043743244626,27814,0.004,0.3,0.0,0.9,0.08,-0.02,-5.19,-2.13,1.88,0.32,0.17,-0.43,-5.13,13.19,-6.69,982.87,2200.0,0.0,0.0,0.0,0.0
1776370043845611740,27915,0.0,0.3,0.0,1.4,0.14,-0.06,-5.94,-3.25,1.63,0.38,0.05,0.33,6.69,7.94,-10.81,643.98,1397.0,0.0,0.0,0.0,0.0
1776370043943928543,28015,0.0,0.2,0.0,1.0,0.06,-0.08,-7.06,-3.44,3.13,-1.24,-0.2,0.93,19.44,-5.0,-14.19,618.94,1397.0,0.0,0.0,0.0,0.0
1776370044046308862,28114,0.0,0.2,0.004,0.3,0.02,-0.02,-8.81,-3.0,4.13,-1.2,-0.59,-0.77,-0.69,-8.31,-20.0,938.1,2057.0,0.0,0.0,0.0,0.0
1776370044144627493,28215,0.0,0.3,0.0,0.3,0.08,0.02,-10.5,-2.38,3.69,-0.86,-0.57,0.07,-7.75,-7.25,-9.25,636.44,1881.0,0.0,0.0,0.0,0.0
1776370044242866438,28314,0.036,0.2,0.0,0.8,-0.04,0.04,-10.75,-2.19,3.38,-0.11,-0.24,-0.53,3.13,5.88,1.37,983.21,1881.0,0.0,0.0,0.0,0.0
1776370044345279990,28414,0.0,0.4,0.016,0.0,0.02,0.02,-10.5,-3.25,3.88,-0.09,-0.37,-0.56,2.75,9.56,2.75,975.66,1416.0,0.0,0.0,0.0,0.0
1776370044443575084,28514,0.02,0.3,0.0,0.3,-0.06,-0.14,-10.31,-3.81,3.75,0.24,-0.28,-0.64,-4.56,-2.44,0.19,976.69,1848.0,0.0,0.0,0.0,0.0
1776370044541927604,28613,0.0,0.1,0.0,0.9,0.0,-0.14,-10.44,-3.38,3.25,0.06,-0.01,-0.39,-3.31,-4.5,-1.19,967.6,1848.0,0.0,0.0,0.0,0.0
1776370044644319100,28712,0.008,0.1,0.0,1.1,-0.04,-0.08,-10.44,-3.25,3.06,-0.17,-0.17,-0.51,-1.25,0.25,1.31,1014.42,2152.0,0.0,0.0,0.0,0.0
1776370044742640287,28813,0.0,0.6,0.0,0.9,-0.08,-0.08,-10.63,-3.69,3.13,0.34,-0.57,-0.6,2.38,0.88,-6.69,980.98,1994.0,0.0,0.0,0.0,0.0
1776370044850997928,28912,0.0,0.6,0.0,0.8,-0.08,-0.1,-11.75,-2.94,3.81,1.39,-0.56,-1.11,11.5,-16.31,-14.56,872.94,1994.0,0.0,0.0,0.0,0.0
1776370044943318950,29012,0.0,0.4,0.0,0.3,0.23,-0.12,-14.63,-1.75,4.31,-0.61,-1.0,-0.52,8.81,-21.5,-43.0,922.33,1862.0,0.0,0.0,0.0,0.0
1776370045045717217,29113,0.0,0.2,0.0,0.3,-0.02,-0.06,-20.25,0.75,3.31,-1.17,-0.74,1.19,-17.31,-30.0,-67.44,903.29,1862.0,0.0,0.0,0.0,0.0
1776370045144019182,29213,0.0,0.2,0.0,0.9,-0.06,0.0,-28.06,2.94,2.88,-1.47,-1.77,0.83,-1.0,-26.37,-90.75,925.93,901.0,0.0,0.0,0.0,0.0
1776370045246440582,29314,0.016,0.2,0.0,1.0,0.0,0.04,-38.5,4.81,4.0,-1.28,-1.66,-0.49,4.81,-22.69,-119.81,914.61,1937.0,0.0,0.0,0.0,0.0
1776370045344669527,29414,0.0,0.9,0.0,0.9,0.14,-0.12,-50.69,5.63,5.31,-0.84,-0.83,-0.47,-0.44,-14.75,-126.19,970.86,1937.0,0.0,0.0,0.0,0.0
1776370045442987769,29513,0.008,0.5,0.0,0.3,0.08,0.06,-62.81,5.0,6.19,-0.67,-0.44,-0.23,-3.25,1.25,-124.12,941.36,1414.0,0.0,0.0,0.0,0.0
1776370045545423206,29614,0.0,0.6,0.0,0.7,-0.06,-0.06,-73.5,3.06,6.69,-0.89,-0.24,-0.09,-1.94,10.38,-118.94,913.41,791.0,0.0,0.0,0.0,0.0
1776370045643663170,29715,0.0,0.1,0.0,0.8,-0.1,-0.02,-85.69,1.12,6.88,-0.37,0.15,-0.63,-0.88,-1.31,-114.44,915.81,791.0,0.0,0.0,0.0,0.0
1776370045746116200,29814,0.004,0.3,0.0,0.3,-0.06,-0.1,-96.94,0.31,7.25,-0.53,0.72,-0.76,3.5,-7.38,-114.56,904.49,1074.0,0.0,0.0,0.0,0.0
1776370045844420738,29914,0.0,0.6,0.0,0.2,-0.02,-0.08,-106.5,-0.44,7.63,-0.29,0.58,-0.76,6.56,-2.81,-102.69,923.7,946.0,0.0,0.0,0.0,0.0
1776370045946817860,30015,0.0,0.2,0.0,0.6,-0.1,-0.04,-116.12,-1.75,8.5,-0.49,0.3,0.52,17.56,3.88,-97.94,926.61,946.0,0.0,0.0,0.0,0.0
1776370046047053063,30114,0.0,0.4,0.0,0.3,0.02,-0.1,-125.19,-3.19,10.0,-0.03,0.17,0.3,18.75,-5.25,-82.06,11931.08,2027.0,0.0,0.0,0.0,0.0
1776370046147510555,30214,0.0,0.3,0.0,1.0,0.04,0.02,-132.13,-3.94,10.69,0.39,0.2,0.07,6.44,-3.63,-61.63,887.86,1134.0,0.0,0.0,0.0,0.0
1776370046245821432,30314,0.0,0.4,0.0,0.8,0.02,-0.12,-137.94,-4.44,10.69,0.33,-0.04,-0.16,5.88,-9.38,-57.19,898.66,1134.0,0.0,0.0,0.0,0.0
1776370046344086196,30413,0.028,0.0,0.04,0.3,0.04,-0.12,-143.56,-4.5,10.94,-0.15,0.21,-0.08,6.75,-10.44,-59.25,888.37,1483.0,0.0,0.0,0.0,0.0
1776370046446513616,30514,0.0,0.2,0.0,0.8,-0.14,-0.14,-149.69,-5.06,10.69,0.09,0.02,-0.36,-1.44,-1.75,-62.13,870.71,1483.0,0.0,0.0,0.0,0.0
1776370046544804437,30614,0.0,0.4,0.0,0.3,0.06,0.12,-155.19,-6.25,9.75,0.15,-0.08,-0.79,-5.13,4.25,-53.0,918.21,364.0,0.0,0.0,0.0,0.0
1776370046677435881,30714,0.0,0.5,0.0,0.8,-0.06,-0.06,-160.0,-7.44,9.38,0.69,0.09,-0.81,11.44,0.69,-46.19,11929.54,2110.0,0.0,0.0,0.0,0.0
1776370046745531234,30814,0.0,0.2,0.0,1.0,0.0,-0.08,-164.31,-7.81,10.5,-0.28,-0.07,-0.27,20.81,-6.88,-40.88,882.37,2110.0,0.0,0.0,0.0,0.0
1776370046847948061,30914,0.0,0.2,0.0,0.3,0.18,-0.16,-168.44,-7.19,11.69,-0.3,0.37,0.28,13.75,-22.25,-39.56,909.81,1158.0,0.0,0.0,0.0,0.0
1776370046946217437,31014,0.0,0.2,0.0,0.8,0.04,0.0,-172.5,-5.94,12.19,-0.04,1.28,0.13,6.88,-14.56,-36.63,916.15,1495.0,0.0,0.0,0.0,0.0
1776370047048619328,31115,0.0,0.0,0.0,0.4,-0.04,-0.02,-175.25,-5.88,12.0,0.39,0.49,0.0,-0.75,-2.06,-20.75,851.67,1495.0,0.0,0.0,0.0,0.0
1776370047146902472,31215,0.0,0.2,0.0,0.2,0.04,-0.06,-176.63,-5.31,11.63,0.13,0.51,-0.33,-1.56,-7.75,-9.31,909.12,1856.0,0.0,0.0,0.0,0.0
1776370047245221450,31314,0.0,0.1,0.0,0.7,-0.06,0.02,-177.56,-4.56,11.13,-0.17,0.43,0.1,-2.31,-9.5,-9.38,890.6,1856.0,0.0,0.0,0.0,0.0
1776370047347579469,31414,0.0,0.5,0.0,0.9,-0.12,-0.04,-179.13,-4.06,11.13,0.54,0.56,-0.12,0.69,-5.94,-22.44,964.0,1205.0,0.0,0.0,0.0,0.0
1776370047445884576,31514,0.004,0.1,0.0,1.5,-0.06,-0.08,178.44,-3.63,10.94,0.04,0.2,0.13,-0.12,-14.06,-21.69,1029.0,1130.0,0.0,0.0,0.0,0.0
1776370047548327243,31614,0.0,0.3,0.0,0.8,-0.1,-0.1,176.75,-2.63,10.75,-0.44,0.58,-0.18,-2.13,-12.38,-12.81,900.2,1130.0,0.0,0.0,0.0,0.0
1776370047689554296,31715,0.004,0.1,0.0,1.0,-0.08,-0.21,175.38,-1.56,10.81,-0.01,0.64,-0.49,-0.31,-3.38,-15.69,916.5,1197.0,0.0,0.0,0.0,0.0
1776370047757009004,31814,0.0,1.0,0.0,0.9,-0.1,-0.06,174.0,-1.19,10.81,0.13,0.66,-0.77,0.63,-2.56,-12.19,11932.63,765.0,0.0,0.0,0.0,0.0
1776370047847319662,31915,0.0,0.0,0.0,0.7,0.02,-0.04,172.88,-0.75,11.0,-0.04,0.42,-0.29,3.81,-3.0,-12.38,883.57,765.0,0.0,0.0,0.0,0.0
1776370047949699680,32016,0.0,0.5,0.0,1.2,-0.02,-0.12,171.81,-0.31,11.5,0.47,0.33,-0.12,8.31,-4.69,-8.31,902.6,1603.0,0.0,0.0,0.0,0.0
1776370048048021909,32116,0.0,0.4,0.0,0.6,-0.02,-0.14,171.25,-0.0,12.13,0.0,0.22,0.12,8.0,-2.69,-4.88,866.25,1532.0,0.0,0.0,0.0,0.0
1776370048150424772,32216,0.0,0.3,0.0,0.8,-0.08,-0.02,170.75,0.37,12.56,-0.07,0.42,0.01,2.25,-3.19,-3.69,885.8,1532.0,0.0,0.0,0.0,0.0
1776370048248718225,32316,0.0,0.4,0.008,0.9,-0.14,-0.08,170.69,0.31,12.44,0.19,0.09,0.0,-3.5,3.69,1.0,900.2,1385.0,0.0,0.0,0.0,0.0
1776370048346965068,32415,0.0,0.2,0.0,1.1,-0.06,-0.04,171.06,0.12,12.0,0.16,0.03,-0.22,-4.31,1.75,4.19,873.45,1015.0,0.0,0.0,0.0,0.0
1776370048449434931,32516,0.016,0.4,0.0,1.0,0.04,-0.04,171.44,0.12,11.69,0.15,0.05,-0.35,-0.69,0.88,3.88,898.66,1015.0,0.0,0.0,0.0,0.0
1776370048547696439,32616,0.008,0.3,0.0,1.2,0.04,-0.08,171.75,0.12,11.81,0.07,0.07,-0.23,2.88,1.69,3.75,896.26,1862.0,0.0,0.0,0.0,0.0
1776370048650113450,32716,0.0,0.6,0.0,0.7,-0.02,-0.06,172.25,0.06,12.13,-0.05,0.03,-0.07,2.19,0.75,4.81,883.05,1862.0,0.0,0.0,0.0,0.0
1776370048752517627,32817,0.0,0.4,0.0,0.8,-0.08,-0.04,172.69,0.12,12.19,0.13,0.03,-0.23,0.5,0.75,3.44,912.72,1099.0,0.0,0.0,0.0,0.0
1776370048873434792,32918,0.0,0.4,0.0,0.2,-0.1,0.02,173.0,0.19,12.25,0.07,0.03,-0.11,1.37,-0.69,3.75,885.45,994.0,0.0,0.0,0.0,0.0
1776370048949108349,33017,0.0,0.0,0.0,0.5,0.14,-0.06,173.25,0.25,12.25,0.12,-0.0,-0.16,-1.0,0.81,1.63,907.06,994.0,0.0,0.0,0.0,0.0
1776370049059529702,33117,0.0,0.2,0.0,1.1,0.0,0.04,173.38,0.19,12.25,0.16,-0.05,-0.27,-0.31,0.69,0.19,11932.63,945.0,0.0,0.0,0.0,0.0
1776370049149818991,33217,0.0,0.3,0.0,0.6,-0.06,-0.02,173.25,0.12,12.19,0.21,0.03,-0.2,1.31,0.06,-3.0,922.33,929.0,0.0,0.0,0.0,0.0
1776370049252215942,33317,0.032,0.3,0.0,0.3,-0.12,-0.14,173.0,0.12,12.38,0.0,0.07,-0.06,1.75,-0.88,-1.06,936.73,929.0,0.0,0.0,0.0,0.0
1776370049350470116,33417,0.0,0.5,0.0,1.2,0.08,-0.02,172.94,0.12,12.38,0.0,0.07,-0.18,-2.5,-0.06,-0.88,912.72,1387.0,0.0,0.0,0.0,0.0
1776370049448780753,33517,0.008,0.1,0.0,1.0,-0.02,-0.04,172.88,0.12,12.19,0.04,0.04,-0.2,-1.12,-0.31,0.5,916.67,1738.0,0.0,0.0,0.0,0.0
1776370049661430723,33616,0.0,0.2,0.0,0.9,0.04,-0.04,173.0,0.19,12.0,0.05,0.12,-0.2,-1.88,-0.44,1.06,11929.54,1314.0,0.0,0.0,0.0,0.0
1776370049674105038,33716,0.0,0.4,0.0,0.8,0.18,-0.08,173.19,0.25,11.88,0.0,0.06,-0.2,-1.25,-0.06,2.75,931.07,1314.0,0.0,0.0,0.0,0.0
1776370049757866733,33816,0.0,0.1,0.0,0.5,-0.08,-0.02,173.38,0.31,11.69,0.05,0.02,-0.15,-2.56,-1.0,1.94,902.6,1314.0,0.0,0.0,0.0,0.0
1776370049858182943,33915,0.0,0.3,0.0,0.4,0.0,-0.14,173.56,0.44,11.44,0.11,0.02,-0.18,-2.19,-0.06,2.44,11932.63,1181.0,0.0,0.0,0.0,0.0
1776370049948467103,34015,0.0,0.5,0.0,1.0,-0.04,-0.04,173.88,0.44,11.13,0.13,0.02,-0.17,-3.0,0.81,2.75,878.25,1110.0,0.0,0.0,0.0,0.0
1776370050050910288,34116,0.0,0.2,0.0,0.7,-0.12,-0.08,174.06,0.44,10.94,0.06,0.02,-0.14,-2.13,-0.63,1.19,891.46,1110.0,0.0,0.0,0.0,0.0
1776370050149187315,34215,0.0,-0.1,0.0,0.2,0.02,-0.08,174.13,0.5,10.75,0.13,0.03,-0.21,-2.25,0.31,1.0,872.76,1208.0,0.0,0.0,0.0,0.0
1776370050251610136,34316,0.0,0.3,0.0,0.5,0.0,0.02,174.19,0.5,10.5,0.15,0.06,-0.17,-1.44,-0.75,-0.63,886.65,2030.0,0.0,0.0,0.0,0.0
1776370050349880275,34416,0.0,0.6,0.0,1.0,-0.12,-0.12,174.19,0.56,10.5,0.1,0.09,-0.17,-0.56,-0.5,0.31,874.14,2030.0,0.0,0.0,0.0,0.0
1776370050448207933,34515,0.008,0.2,0.0,0.6,0.08,0.02,174.13,0.63,10.44,0.09,0.03,-0.15,-0.88,-0.5,0.31,875.34,2189.0,0.0,0.0,0.0,0.0
1776370050550616550,34615,0.0,0.2,0.0,0.3,0.08,0.14,174.19,0.69,10.31,0.09,0.12,-0.17,-1.56,-0.5,0.63,888.03,871.0,0.0,0.0,0.0,0.0
1776370050648909948,34714,0.0,0.8,0.0,0.4,-0.14,-0.2,174.25,0.63,10.19,0.14,-0.01,-0.15,-0.75,-0.06,1.25,894.37,871.0,0.0,0.0,0.0,0.0
1776370050747243125,34813,0.0,0.1,0.0,1.0,0.08,-0.04,174.31,0.75,10.13,0.07,0.06,-0.19,-1.25,-0.5,0.69,895.4,1086.0,0.0,0.0,0.0,0.0
1776370050849619112,34914,0.0,0.1,0.0,0.6,0.06,-0.04,174.5,0.75,10.0,0.09,0.03,-0.21,-1.75,0.88,2.13,918.21,1086.0,0.0,0.0,0.0,0.0
1776370050952011840,35015,0.0,0.9,0.0,0.8,0.06,0.08,174.75,0.69,9.81,0.15,-0.0,-0.25,-1.0,0.69,1.94,922.33,516.0,0.0,0.0,0.0,0.0
1776370051050318586,35116,0.0,0.1,0.0,0.9,0.02,-0.14,174.88,0.75,9.88,0.1,0.01,-0.19,1.37,-0.69,1.0,915.12,1559.0,0.0,0.0,0.0,0.0
1776370051152724558,35216,0.0,0.1,0.0,0.8,-0.02,-0.14,174.88,0.75,9.94,0.1,0.02,-0.11,0.5,0.06,0.5,966.23,1559.0,0.0,0.0,0.0,0.0
1776370051251016276,35316,0.028,0.1,0.0,0.4,-0.04,0.04,174.88,0.75,9.94,0.12,0.01,-0.18,-0.5,0.56,0.5,928.33,3002.0,0.0,0.0,0.0,0.0
1776370051353379711,35417,0.0,0.5,0.0,0.1,0.12,0.08,174.88,0.75,9.94,0.25,0.02,-0.3,0.56,0.12,-0.12,923.87,2050.0,0.0,0.0,0.0,0.0
1776370051453612258,35517,0.004,0.3,0.0,1.1,0.1,-0.04,174.88,0.69,10.13,0.42,0.01,-0.49,5.5,3.81,-1.94,11929.03,1847.0,0.0,0.0,0.0,0.0
1776370051554103123,35617,0.0,0.1,0.0,0.9,-0.12,-0.18,174.69,0.81,11.25,-0.08,0.17,0.07,12.81,-7.06,-0.69,895.4,1847.0,0.0,0.0,0.0,0.0
1776370051652410453,35717,0.0,0.1,0.0,1.1,-0.04,0.02,174.06,0.88,12.31,0.36,0.03,0.19,10.25,-2.75,-8.06,938.45,1847.0,0.0,0.0,0.0,0.0
1776370051762822320,35817,0.0,0.6,0.0,0.6,0.02,-0.14,173.44,1.06,13.13,0.1,-0.4,-0.68,8.5,-7.31,1.12,11931.94,1594.0,0.0,0.0,0.0,0.0
1776370051855027361,35917,0.0,0.3,0.0,0.2,-0.02,-0.12,173.63,1.69,14.19,-0.88,0.3,0.85,6.56,4.06,-3.88,11932.63,1517.0,0.0,0.0,0.0,0.0
1776370051953344283,36017,0.0,0.2,0.0,0.9,0.04,0.0,173.06,0.94,13.5,-0.12,-0.01,-0.18,-16.06,4.88,-5.38,11931.6,999.0,0.0,0.0,0.0,0.0
1776370052053812440,36117,0.0,0.3,0.0,0.2,-0.16,-0.04,172.75,0.63,12.38,0.25,0.12,-0.18,-7.44,-1.19,-1.44,911.69,999.0,0.0,0.0,0.0,0.0
1776370052152077203,36217,0.004,0.1,0.0,0.8,0.06,-0.12,172.44,0.69,11.63,-0.03,0.13,-0.47,-6.69,1.69,-4.0,904.49,2199.0,0.0,0.0,0.0,0.0
1776370052254487719,36318,0.036,0.5,0.0,0.5,-0.1,-0.04,172.19,0.5,11.38,0.18,-0.03,-0.48,0.44,-0.19,-1.56,904.83,2199.0,0.0,0.0,0.0,0.0
1776370052352769686,36418,0.0,0.2,0.0,0.8,-0.08,-0.06,172.06,0.44,11.56,0.11,-0.05,-0.28,4.31,1.75,-1.81,879.97,916.0,0.0,0.0,0.0,0.0
1776370052455202627,36518,0.016,0.4,0.0,1.1,-0.04,0.02,171.94,0.25,12.06,0.04,-0.03,-0.15,6.5,-0.0,0.69,917.01,1752.0,0.0,0.0,0.0,0.0
1776370052553513261,36618,0.012,0.1,0.0,0.9,-0.08,-0.1,171.94,0.37,12.63,-0.09,0.1,-0.02,3.19,-1.5,-0.56,876.36,1752.0,0.0,0.0,0.0,0.0
1776370052651841785,36718,0.0,0.3,0.0,1.2,0.08,-0.08,172.0,0.44,12.75,0.1,0.03,-0.13,-0.56,1.25,2.19,872.08,2559.0,0.0,0.0,0.0,0.0
1776370052754216726,36817,0.004,0.3,0.0,0.3,0.04,0.02,172.25,0.31,12.63,0.15,0.01,-0.15,-1.25,2.88,1.88,881.0,2559.0,0.0,0.0,0.0,0.0
1776370052852499526,36918,0.0,0.1,0.0,0.8,-0.02,-0.1,172.44,0.06,12.5,0.03,-0.1,-0.24,-1.31,1.94,0.81,877.39,1028.0,0.0,0.0,0.0,0.0
1776370052954911486,37017,0.0,0.3,0.0,1.0,-0.08,-0.16,172.44,-0.0,12.5,0.0,-0.13,-0.28,0.56,0.75,0.75,885.11,1262.0,0.0,0.0,0.0,0.0
1776370053053214599,37116,0.0,0.4,0.0,0.9,-0.31,-0.16,172.44,-0.0,12.56,0.12,0.02,-0.18,0.75,-0.81,-0.56,888.71,1262.0,0.0,0.0,0.0,0.0
1776370053163582270,37217,0.0,0.3,0.0,1.2,-0.04,-0.14,172.44,-0.0,12.75,0.05,0.05,-0.21,2.06,-0.25,0.5,11927.31,1342.0,0.0,0.0,0.0,0.0
1776370053254009029,37317,0.04,0.2,0.0,0.9,0.0,-0.08,172.5,-0.0,12.88,0.06,-0.01,-0.12,0.63,1.25,0.81,11928.85,1695.0,0.0,0.0,0.0,0.0
1776370053352140377,37417,0.0,0.1,0.0,1.0,0.0,0.0,172.5,-0.0,12.88,0.16,0.03,-0.12,0.06,-0.31,0.06,909.81,1695.0,0.0,0.0,0.0,0.0
1776370053454597828,37517,0.016,0.1,0.024,0.5,-0.14,0.08,172.5,-0.0,12.88,0.1,0.07,-0.13,0.37,-0.94,0.25,883.57,1109.0,0.0,0.0,0.0,0.0
1776370053552885047,37616,0.008,0.1,0.0,1.3,-0.12,-0.02,172.5,-0.0,12.88,0.06,0.06,-0.14,-0.63,-0.37,0.31,892.66,1109.0,0.0,0.0,0.0,0.0
1776370053651203989,37715,0.0,0.2,0.0,0.6,0.08,0.0,172.56,-0.0,12.75,0.15,0.05,-0.25,-1.75,0.56,0.94,914.61,1184.0,0.0,0.0,0.0,0.0
1776370053749495931,37815,0.0,0.0,0.0,0.8,-0.02,-0.1,172.63,-0.0,12.69,0.08,0.05,-0.22,0.25,-0.25,0.5,922.67,1767.0,0.0,0.0,0.0,0.0
1776370053859791879,37914,0.0,0.7,0.0,0.4,0.0,0.02,172.63,-0.0,12.69,0.09,0.13,-0.21,0.06,-0.37,-0.69,11929.2,2064.0,0.0,0.0,0.0,0.0
1776370053950200730,38014,0.0,0.0,0.0,0.9,-0.18,0.02,172.63,-0.0,12.75,0.13,0.09,-0.13,0.94,0.75,0.25,875.85,2064.0,0.0,0.0,0.0,0.0
1776370054048481654,38114,0.0,0.6,0.0,0.2,0.08,-0.14,172.63,-0.0,12.75,0.16,0.1,-0.24,0.37,-0.56,-0.12,934.16,572.0,0.0,0.0,0.0,0.0
1776370054150912376,38213,0.0,0.2,0.0,0.3,0.12,0.06,172.63,-0.0,12.94,0.21,0.02,-0.2,1.88,-1.25,-0.81,896.77,572.0,0.0,0.0,0.0,0.0
1776370054249183387,38312,0.0,0.2,0.0,0.8,0.06,0.0,172.5,0.06,13.13,0.04,0.07,-0.21,1.44,-0.25,-0.81,883.05,990.0,0.0,0.0,0.0,0.0
1776370054351561980,38413,0.0,0.4,0.0,0.9,-0.1,-0.1,172.5,0.06,13.19,0.15,0.06,-0.2,0.88,0.19,0.19,874.14,2726.0,0.0,0.0,0.0,0.0
1776370054449902362,38513,0.016,0.2,0.0,1.2,0.04,-0.08,172.44,0.06,13.31,0.11,0.05,-0.24,2.31,-0.31,-0.44,859.9,2726.0,0.0,0.0,0.0,0.0
1776370054548208577,38612,0.008,0.3,0.0,1.2,0.08,0.02,172.44,-0.0,13.56,-0.02,0.09,-0.07,1.69,0.94,0.44,876.88,2161.0,0.0,0.0,0.0,0.0
1776370054650604855,38712,0.0,0.2,0.0,0.2,-0.08,-0.06,172.44,-0.0,13.56,0.1,0.03,-0.22,0.69,-0.19,0.37,881.68,1913.0,0.0,0.0,0.0,0.0
1776370054748918681,38812,0.0,0.5,0.0,0.8,0.06,-0.08,172.44,-0.0,13.56,0.03,0.03,-0.19,-0.06,0.44,-0.69,886.65,1913.0,0.0,0.0,0.0,0.0
1776370054851309051,38912,0.0,1.2,0.0,0.6,0.02,-0.06,172.38,-0.0,13.56,0.02,0.06,-0.16,-0.75,-0.12,-0.69,871.22,689.0,0.0,0.0,0.0,0.0
1776370054949601248,39012,0.0,0.6,0.0,0.9,0.12,-0.04,172.44,-0.12,13.44,0.09,-0.02,-0.22,-1.0,1.69,0.12,923.53,689.0,0.0,0.0,0.0,0.0
1776370055052005509,39112,0.0,0.6,0.0,0.9,0.06,0.08,172.38,-0.19,13.44,-0.01,0.01,-0.26,0.12,0.63,-1.19,881.17,2574.0,0.0,0.0,0.0,0.0
1776370055150305574,39213,0.0,0.2,0.0,0.3,-0.02,0.04,172.25,-0.25,13.5,0.06,-0.04,-0.2,0.81,1.25,-0.56,931.93,2300.0,0.0,0.0,0.0,0.0
1776370055252697181,39314,0.04,0.7,0.032,0.2,0.0,0.08,172.25,-0.25,13.5,0.08,-0.03,-0.24,0.56,-0.5,-1.25,866.76,2300.0,0.0,0.0,0.0,0.0
1776370055350973098,39413,0.028,0.1,0.0,0.2,-0.02,-0.1,172.06,-0.31,13.56,0.06,-0.08,-0.2,0.12,-0.56,-1.31,945.48,1836.0,0.0,0.0,0.0,0.0
1776370055453418058,39514,0.0,0.2,0.0,0.7,0.08,-0.1,171.94,-0.25,13.56,0.0,0.04,-0.22,0.19,-0.44,-0.75,969.66,1561.0,0.0,0.0,0.0,0.0
1776370055551702475,39615,0.008,0.0,0.0,0.3,-0.02,-0.06,171.94,-0.25,13.56,0.08,-0.01,-0.24,0.69,-0.44,-0.25,926.61,1561.0,0.0,0.0,0.0,0.0
1776370055654097453,39714,0.0,0.3,0.0,0.6,-0.18,-0.04,171.94,-0.19,13.63,0.1,0.01,-0.18,1.0,-0.69,-0.06,865.22,1171.0,0.0,0.0,0.0,0.0
1776370055752399684,39815,0.0,0.6,0.0,1.1,-0.04,-0.08,171.94,-0.19,13.69,0.05,0.06,-0.18,0.63,-0.5,0.69,881.34,1171.0,0.0,0.0,0.0,0.0
1776370055854801829,39916,0.0,0.4,0.0,0.9,0.0,0.04,172.0,-0.19,13.75,0.06,0.01,-0.13,0.31,-0.25,0.88,872.76,2458.0,0.0,0.0,0.0,0.0
1776370055977438594,40015,0.0,0.1,0.0,1.1,-0.14,0.12,172.06,-0.12,13.75,0.07,0.01,-0.23,-0.12,-0.5,0.81,860.42,2990.0,0.0,0.0,0.0,0.0
1776370056055502337,40115,0.0,0.3,0.0,0.3,-0.04,-0.04,172.19,-0.06,13.75,0.1,0.06,-0.22,-0.31,-0.37,1.06,868.82,2990.0,0.0,0.0,0.0,0.0
1776370056153771902,40215,0.0,1.0,0.0,0.7,-0.14,-0.04,172.25,-0.06,13.75,0.06,0.04,-0.23,0.06,-0.44,0.75,881.34,1468.0,0.0,0.0,0.0,0.0
1776370056252074393,40314,0.044,0.4,0.0,0.8,0.0,-0.1,172.31,-0.0,13.75,0.03,0.01,-0.16,0.75,-1.12,1.0,906.38,1435.0,0.0,0.0,0.0,0.0
1776370056393414624,40414,0.0,-0.1,0.0,0.5,-0.06,0.02,172.31,-0.0,13.75,-0.01,0.11,-0.05,-0.75,-0.19,-0.94,919.93,1435.0,0.0,0.0,0.0,0.0
1776370056452813010,40515,0.0,0.0,0.0,1.2,-0.02,-0.04,172.25,0.06,13.56,0.02,0.14,-0.18,-2.31,-0.19,-0.31,916.32,1174.0,0.0,0.0,0.0,0.0
1776370056555189284,40615,0.0,1.0,0.004,0.3,-0.06,-0.08,172.25,0.06,13.38,0.03,0.04,-0.19,-1.81,0.31,0.12,917.7,1083.0,0.0,0.0,0.0,0.0
1776370056653499923,40715,0.0,0.5,0.0,0.5,0.04,-0.12,172.25,0.06,13.19,0.02,0.06,-0.18,-1.5,0.69,-0.19,998.64,1083.0,0.0,0.0,0.0,0.0
1776370056751776489,40815,0.0,0.1,0.0,0.9,-0.02,-0.08,172.19,-0.0,13.06,0.11,0.06,-0.22,-0.12,-0.69,-0.81,990.41,767.0,0.0,0.0,0.0,0.0
1776370056854196874,40914,0.0,0.2,0.0,0.8,0.06,0.02,172.19,0.06,13.06,0.01,0.06,-0.11,-0.31,0.06,0.19,962.11,1331.0,0.0,0.0,0.0,0.0
1776370056952497235,41015,0.0,0.6,0.0,0.6,-0.02,-0.1,172.19,0.06,13.0,0.14,-0.0,-0.16,-1.19,0.12,-0.06,940.85,1331.0,0.0,0.0,0.0,0.0
1776370057054898103,41115,0.0,0.1,0.0,0.6,-0.02,0.06,172.19,0.06,12.88,0.02,0.01,-0.14,-1.88,0.44,0.12,925.76,812.0,0.0,0.0,0.0,0.0
1776370057153198949,41214,0.0,0.3,0.0,0.8,0.06,-0.1,172.19,-0.0,12.69,0.08,-0.0,-0.28,-1.12,0.31,0.75,879.11,812.0,0.0,0.0,0.0,0.0
1776370057255605817,41315,0.052,0.2,0.0,0.3,-0.1,-0.04,172.25,-0.0,12.69,0.07,-0.0,-0.2,0.06,-0.0,-0.19,870.19,1561.0,0.0,0.0,0.0,0.0
1776370057353841978,41414,0.028,0.1,0.0,0.7,0.08,-0.02,172.25,-0.0,12.75,0.04,0.02,-0.17,0.69,-0.44,0.25,865.22,1926.0,0.0,0.0,0.0,0.0
1776370057456287956,41515,0.0,0.6,0.012,1.0,-0.1,-0.08,172.25,-0.0,12.75,0.06,0.01,-0.17,0.37,-0.31,0.44,877.57,1926.0,0.0,0.0,0.0,0.0
1776370057554592580,41616,0.0,0.2,0.016,0.5,-0.06,-0.1,172.25,-0.0,12.75,0.13,0.03,-0.16,-0.0,-0.19,-0.06,864.36,2058.0,0.0,0.0,0.0,0.0
1776370057656989818,41716,0.0,0.6,0.0,1.1,-0.04,0.02,172.25,0.06,12.81,0.06,0.05,-0.2,0.69,-0.88,0.06,889.57,1326.0,0.0,0.0,0.0,0.0
1776370057755287257,41816,0.004,0.3,0.0,1.1,0.02,0.06,172.25,0.06,12.81,0.06,0.01,-0.2,1.0,0.19,-0.06,884.77,1326.0,0.0,0.0,0.0,0.0
1776370057857680384,41917,0.0,0.2,0.0,0.5,-0.02,-0.12,172.19,0.12,12.94,0.11,0.08,-0.22,1.19,-1.5,0.5,862.64,990.0,0.0,0.0,0.0,0.0
1776370057955979285,42017,0.0,0.6,0.0,0.3,0.16,-0.12,172.19,0.12,13.06,0.04,-0.01,-0.15,1.5,-0.37,0.19,919.58,1708.0,0.0,0.0,0.0,0.0
1776370058058381487,42117,0.0,0.3,0.0,1.0,-0.08,0.02,172.19,0.25,13.13,0.16,0.07,-0.17,0.63,-0.94,-0.44,860.93,1708.0,0.0,0.0,0.0,0.0
1776370058156653505,42218,0.0,0.4,0.0,0.9,-0.02,-0.08,172.19,0.31,13.25,0.13,0.14,-0.17,1.06,-0.63,0.69,898.49,1683.0,0.0,0.0,0.0,0.0
1776370058259102173,42317,0.036,0.0,0.0,0.8,0.06,0.04,172.31,0.31,13.38,-0.19,0.01,0.03,1.0,1.56,1.37,867.96,1683.0,0.0,0.0,0.0,0.0
1776370058357332320,42418,0.028,0.0,0.0,0.8,0.04,-0.08,172.44,0.19,13.13,0.06,-0.0,-0.2,-5.38,-0.0,1.06,900.72,1758.0,0.0,0.0,0.0,0.0
1776370058459777043,42519,0.02,0.2,0.0,0.8,0.0,0.0,172.44,0.25,12.81,0.16,0.07,-0.28,-0.06,-0.44,-1.25,901.92,512.0,0.0,0.0,0.0,0.0
1776370058558086931,42618,0.0,0.2,0.0,0.3,-0.08,0.02,172.25,0.31,12.94,-0.06,0.08,-0.21,1.75,-1.19,-0.94,870.88,512.0,0.0,0.0,0.0,0.0
1776370058666424887,42718,0.004,0.3,0.0,1.1,0.02,-0.1,172.31,0.37,13.0,0.05,0.13,-0.04,-2.31,-0.5,1.63,884.77,929.0,0.0,0.0,0.0,0.0
1776370059029429581,42818,0.0,0.4,0.0,0.2,-0.08,-0.02,172.44,0.37,12.63,0.05,-0.0,-0.21,-3.5,2.25,0.0,11929.2,1743.0,0.0,0.0,0.0,0.0
1776370059057821711,42918,0.0,0.4,0.0,1.2,0.14,-0.1,172.38,0.25,12.31,0.04,-0.0,-0.23,-2.56,-0.63,-1.44,11925.08,1945.0,0.0,0.0,0.0,0.0
1776370059070220601,43018,0.0,0.1,0.0,0.9,0.0,-0.02,172.19,0.31,12.13,0.06,0.11,-0.25,-1.56,-0.19,-1.06,878.59,1945.0,0.0,0.0,0.0,0.0
1776370059082770511,43118,0.0,0.2,0.0,0.8,0.02,-0.14,172.19,0.31,12.0,-0.06,-0.04,-0.19,-1.75,0.25,0.37,875.16,1211.0,0.0,0.0,0.0,0.0
1776370059156074699,43217,0.0,0.5,0.0,1.2,0.04,0.0,172.19,0.31,11.88,0.12,0.02,-0.24,-1.12,0.5,-0.31,867.45,1211.0,0.0,0.0,0.0,0.0
1776370059258491724,43317,0.036,0.2,0.0,0.6,0.02,-0.04,172.13,0.25,11.81,0.08,-0.02,-0.15,-0.37,0.37,-0.88,871.56,1172.0,0.0,0.0,0.0,0.0
1776370059360847915,43418,0.024,0.0,0.032,0.3,0.04,-0.12,172.06,0.19,11.81,0.1,0.03,-0.21,-0.69,-1.0,-1.37,11927.65,2192.0,0.0,0.0,0.0,0.0
1776370059459142181,43518,0.0,0.3,0.0,1.0,0.27,-0.14,171.88,0.37,11.75,0.03,0.1,-0.28,0.5,-3.06,-1.88,875.68,2192.0,0.0,0.0,0.0,0.0
1776370059557430409,43618,0.008,0.3,0.0,0.8,0.02,-0.1,171.56,0.69,11.88,0.17,0.23,-0.15,3.13,-4.44,-3.5,870.36,872.0,0.0,0.0,0.0,0.0
1776370059655781638,43717,0.004,0.0,0.0,0.3,-0.04,-0.16,171.25,1.06,12.19,-0.09,0.1,-0.16,1.81,-3.13,-1.5,865.05,872.0,0.0,0.0,0.0,0.0
1776370059758169218,43816,0.0,0.2,0.0,1.0,-0.16,-0.1,170.88,1.25,12.31,0.23,0.09,-0.2,2.13,-2.25,-6.19,868.13,1574.0,0.0,0.0,0.0,0.0
1776370059858389030,43917,0.004,0.0,0.0,0.9,0.06,-0.1,170.19,1.37,12.63,-0.15,0.24,-0.21,2.88,-2.38,-7.19,11927.14,1079.0,0.0,0.0,0.0,0.0
1776370059958855749,44017,0.0,-0.1,0.0,0.8,0.0,-0.02,169.56,1.37,12.88,-0.04,0.35,-0.1,1.25,3.88,-7.0,867.96,1079.0,0.0,0.0,0.0,0.0
1776370060059091564,44116,0.0,0.3,0.0,0.9,-0.02,-0.16,169.19,0.69,12.88,0.11,0.13,-0.07,-1.37,9.56,-1.63,11929.71,1029.0,0.0,0.0,0.0,0.0
1776370060155483941,44216,0.004,0.5,0.0,1.1,-0.12,-0.14,169.5,-0.25,12.88,0.07,-0.15,0.15,-1.0,11.5,3.13,852.01,1033.0,0.0,0.0,0.0,0.0
1776370060253742919,44315,0.032,0.3,0.0,0.9,-0.06,-0.23,169.5,-0.88,12.06,0.77,-0.56,-0.29,-13.75,1.12,-4.13,871.22,1033.0,0.0,0.0,0.0,0.0
1776370060356176934,44414,0.024,0.7,0.0,0.8,-0.08,0.08,168.94,-1.0,11.0,0.18,0.04,-0.63,-7.5,3.06,-7.06,893.86,847.0,0.0,0.0,0.0,0.0
