timestamp_ns,time_ms,voltage_left,current_left_ma,voltage_right,current_right_ma,motor_current_left,motor_current_right,euler_x,euler_y,euler_z,acc_lin_x,acc_lin_y,acc_lin_z,gyro_x,gyro_y,gyro_z,sonar_mm,tof_mm,rpm_left,rpm_right,rotations_left,rotations_right
1775764489351570513,120731,0.0,0.7,0.0,0.2,0.0,-0.12,175.31,-1.44,-7.5,-0.02,-0.06,-0.04,1.37,-0.06,-1.19,1183.01,1253.0,0.0,0.0,0.0,
1775764489388141974,1914,0.0,0.8,0.024,0.3,-0.12,-0.04,7.69,-3.06,1.69,-0.57,-0.17,-0.39,7.5,-7.13,4.94,1119.04,1403.0,0.0,0.0,0.0,0.0
1775764489496511835,2015,0.0,1.0,0.024,0.3,0.06,-0.02,8.13,-2.5,2.44,-0.1,-0.05,-0.25,4.25,-4.13,5.81,1121.44,1225.0,0.0,0.0,0.0,0.0
1775764489588862883,2115,0.0,0.8,0.0,0.1,-0.06,-0.1,8.94,-2.63,3.06,0.48,0.39,0.38,8.0,3.94,12.75,1108.4,1225.0,0.0,0.0,0.0,0.0
1775764489687134750,2214,0.0,1.0,0.0,0.1,0.06,-0.02,10.19,-2.63,3.25,0.63,0.44,0.18,-0.06,-3.5,13.13,1102.92,1375.0,0.0,0.0,0.0,0.0
1775764489789521999,2314,0.0,0.9,0.008,0.5,-0.04,-0.08,11.38,-2.0,3.06,0.2,-0.03,0.55,2.25,-4.5,10.63,1173.23,768.0,0.0,0.0,0.0,0.0
1775764489887829402,2414,0.0,1.0,0.012,0.3,0.06,-0.21,12.19,-1.5,3.81,-0.45,0.05,0.61,10.44,-6.19,7.88,1107.38,768.0,0.0,0.0,0.0,0.0
1775764490007591968,2513,0.0,0.4,0.0,0.8,0.04,-0.06,12.69,-0.81,4.69,-1.19,0.23,-0.03,4.94,-8.19,2.81,1191.41,1969.0,0.0,0.0,0.0,0.0
1775764490088509305,2614,0.0,0.3,0.0,1.0,-0.04,-0.23,12.75,-0.25,4.44,-1.02,-0.12,-0.89,-9.13,-3.19,0.31,1192.78,1100.0,0.0,0.0,0.0,0.0
1775764490186769308,2713,0.044,0.2,0.0,1.0,-0.04,-0.08,12.88,-0.0,3.31,-0.41,-0.37,-1.31,-10.06,1.0,1.31,1236.69,1100.0,0.0,0.0,0.0,0.0
1775764490285110491,2812,0.0,0.9,0.0,1.3,-0.16,-0.21,12.94,-0.0,2.81,-0.75,-0.15,-1.09,-2.63,2.63,-1.5,1274.93,1616.0,0.0,0.0,0.0,0.0
1775764490387431822,2912,0.024,1.2,0.032,0.5,-0.1,-0.1,12.56,-0.44,2.94,-0.57,0.44,-0.99,4.19,6.19,-7.0,1269.79,469.0,0.0,0.0,0.0,0.0
1775764490485746174,3011,0.0,1.4,0.012,0.2,-0.1,-0.08,11.75,-1.0,3.5,-0.41,0.07,-0.97,2.25,5.94,-9.56,1255.72,469.0,0.0,0.0,0.0,0.0
1775764490588174165,3111,0.0,1.4,0.004,0.3,-0.08,-0.12,11.19,-1.31,3.56,-0.25,-0.53,-0.54,-3.19,-1.63,-4.38,1280.93,1963.0,0.0,0.0,0.0,0.0
1775764490686461018,3212,0.0,1.4,0.012,0.3,0.0,-0.06,10.88,-1.0,3.06,0.08,0.04,-0.42,-6.25,-5.44,-1.81,1268.93,1963.0,0.0,0.0,0.0,0.0
1775764490784747779,3312,0.0,1.3,0.004,0.6,0.02,-0.1,10.69,-0.81,2.5,0.1,0.24,-0.55,-4.88,1.31,0.0,1451.58,410.0,0.0,0.0,0.0,0.0
1775764490887145309,3411,0.0,1.4,0.012,0.2,-0.04,-0.12,10.81,-1.12,2.19,-0.25,-0.0,-0.42,-2.56,5.94,2.06,1276.65,1549.0,0.0,0.0,0.0,0.0
1775764491007580199,3511,0.0,1.4,0.016,0.5,0.0,-0.12,10.94,-1.81,1.88,-0.34,-0.17,-0.57,-3.06,9.19,-2.06,1264.3,1549.0,0.0,0.0,0.0,0.0
1775764491093789997,3611,0.0,1.3,0.004,0.5,-0.16,-0.2,10.56,-2.38,1.44,-0.31,0.18,-0.39,-5.94,2.63,-6.06,1264.13,1158.0,0.0,0.0,0.0,0.0
1775764491186113969,3712,0.0,1.3,0.052,0.3,-0.14,-0.08,9.81,-2.44,0.88,0.14,-0.34,-0.71,-5.5,-2.56,-7.75,1280.93,1470.0,0.0,0.0,0.0,0.0
1775764491288518521,3813,0.0,1.3,0.044,0.4,0.02,-0.16,9.19,-1.69,0.25,0.15,-0.15,-1.03,-7.0,-8.19,-6.63,1283.33,1470.0,0.0,0.0,0.0,0.0
1775764491386791270,3913,0.0,1.4,0.032,0.6,0.0,-0.2,8.63,-0.81,-0.5,-0.44,0.09,-0.79,-8.75,-10.56,-6.19,1263.1,1844.0,0.0,0.0,0.0,0.0
1775764491489159824,4014,0.0,1.2,0.024,0.2,-0.1,-0.12,7.88,-0.0,-1.44,-0.67,0.1,-0.53,-11.13,-8.44,-8.0,1266.87,2020.0,0.0,0.0,0.0,0.0
1775764491591586431,4115,0.0,1.4,0.02,0.2,-0.02,-0.2,7.13,0.69,-2.44,-0.21,-0.39,-0.27,-7.44,-1.44,-7.44,1207.36,2020.0,0.0,0.0,0.0,0.0
1775764491689888011,4215,0.0,1.3,0.016,0.3,-0.06,-0.04,6.44,0.69,-2.75,0.27,-0.88,0.34,-0.19,4.63,-7.0,1205.3,1491.0,0.0,0.0,0.0,0.0
1775764491788160297,4315,0.024,0.2,0.0,1.0,0.02,-0.2,5.88,0.12,-2.25,0.34,-0.03,0.36,8.5,5.81,-5.0,1171.86,1491.0,0.0,0.0,0.0,0.0
1775764491890612587,4415,0.028,0.1,0.0,1.1,-0.18,-0.1,5.25,-0.56,-1.37,0.04,0.46,0.34,9.56,7.88,-8.13,1158.65,2088.0,0.0,0.0,0.0,0.0
1775764491988855634,4514,0.016,0.3,0.0,1.0,0.16,0.0,4.56,-1.19,-0.5,0.01,0.21,0.06,6.44,4.63,-3.81,1165.69,563.0,0.0,0.0,0.0,0.0
1775764492091247770,4615,0.016,0.2,0.0,0.3,-0.12,-0.12,4.75,-1.0,-0.25,-0.53,0.36,-0.13,-0.5,-4.19,7.44,1216.96,563.0,0.0,0.0,0.0,0.0
1775764492189536709,4715,0.0,0.9,0.052,0.5,0.08,-0.08,5.75,-0.37,-0.44,-0.02,0.55,-0.42,-9.81,-1.75,8.81,1210.45,1806.0,0.0,0.0,0.0,0.0
1775764492291913638,4814,0.0,0.9,0.056,0.2,-0.14,-0.04,6.06,-0.44,-1.75,0.07,0.27,-0.35,-14.31,2.25,-0.63,1201.53,1128.0,0.0,0.0,0.0,0.0
1775764492390183726,4915,0.0,0.9,0.028,0.3,0.0,-0.14,5.94,-0.69,-2.88,0.03,0.07,-0.81,-9.56,1.69,0.63,1199.64,1128.0,0.0,0.0,0.0,0.0
1775764492488483238,5015,0.0,1.3,0.02,0.3,-0.02,-0.21,6.06,-0.63,-3.94,0.35,0.19,-0.57,-9.69,-1.69,1.19,1237.89,1816.0,0.0,0.0,0.0,0.0
1775764492590899738,5114,0.0,1.2,0.016,0.6,0.02,-0.04,6.19,-0.44,-4.88,0.34,0.33,-0.49,-2.38,3.0,2.25,1200.84,2594.0,0.0,0.0,0.0,0.0
1775764492689235489,5215,0.0,1.3,0.008,0.5,-0.04,-0.06,6.25,-0.94,-5.13,0.16,0.22,-0.77,-2.5,9.69,-1.63,1243.2,2594.0,0.0,0.0,0.0,0.0
1775764492791604974,5315,0.0,1.4,0.0,0.2,0.04,0.06,5.63,-1.69,-5.75,0.55,0.18,-0.33,-3.69,8.75,-8.94,1275.62,1904.0,0.0,0.0,0.0,0.0
1775764492911586744,5415,0.0,1.0,0.02,0.1,0.08,-0.08,4.56,-2.13,-6.5,0.32,0.33,-0.08,-4.88,6.81,-11.5,1196.21,1904.0,0.0,0.0,0.0,0.0
1775764492992283359,5516,0.0,1.3,0.0,0.5,0.0,-0.12,3.0,-2.25,-7.69,-0.25,-0.02,0.39,-10.56,4.06,-18.12,1239.77,2166.0,0.0,0.0,0.0,0.0
1775764493123590606,5616,0.0,1.4,0.008,0.3,-0.08,-0.14,1.69,-2.13,-7.94,-0.63,-0.13,-0.37,3.0,-4.56,-9.13,1199.64,1179.0,0.0,0.0,0.0,0.0
1775764493188827569,5715,0.0,1.8,0.06,0.3,-0.04,0.0,0.94,-1.5,-7.56,-0.83,-0.31,-0.32,-3.31,-9.0,-9.31,1213.36,1179.0,0.0,0.0,0.0,0.0
1775764493291274739,5815,0.0,1.2,0.048,0.1,0.02,-0.1,0.12,-1.0,-7.88,-1.11,-1.13,-0.38,-2.31,-0.75,-9.63,1287.96,2079.0,0.0,0.0,0.0,0.0
1775764493389508743,5914,0.0,1.4,0.032,1.2,0.12,0.04,-0.75,-2.44,-6.75,-0.16,-0.74,-0.34,5.75,2.75,-8.88,1256.92,1721.0,0.0,0.0,0.0,0.0
1775764493491899084,6014,0.028,0.4,0.0,0.5,-0.06,-0.08,-1.5,-2.44,-6.38,-0.04,-0.22,-0.84,-1.12,0.63,-6.75,1225.88,1721.0,0.0,0.0,0.0,0.0
1775764493590208397,6115,0.0,1.3,0.012,0.3,0.1,-0.08,-1.94,-2.75,-6.69,0.22,-0.21,-0.62,3.38,5.31,-1.88,1223.48,2426.0,0.0,0.0,0.0,0.0
1775764493688525544,6214,0.0,1.1,0.008,0.6,0.04,-0.04,-2.31,-3.0,-6.13,0.61,0.19,-0.59,10.75,-2.38,-4.5,1207.53,1755.0,0.0,0.0,0.0,0.0
1775764493839593517,6313,0.0,1.3,0.008,0.2,0.1,-0.06,-2.25,-2.25,-6.63,0.61,0.22,-0.62,0.44,-5.88,8.0,1230.34,1755.0,0.0,0.0,0.0,0.0
1775764493889215254,6413,0.0,1.4,0.0,0.3,-0.02,-0.14,-1.06,-1.88,-7.5,0.75,-0.25,-0.62,0.94,-4.88,11.81,1207.19,1497.0,0.0,0.0,0.0,0.0
1775764493987475794,6513,0.0,1.3,0.0,0.3,-0.1,-0.27,-0.06,-1.19,-7.25,0.68,-0.24,0.4,3.94,-10.75,9.0,1177.86,1497.0,0.0,0.0,0.0,0.0
1775764494089897957,6612,0.0,1.2,0.008,0.3,-0.06,-0.1,1.12,-0.94,-6.25,-1.11,-0.45,0.01,14.25,3.44,14.63,1193.3,2063.0,0.0,0.0,0.0,0.0
1775764494188184649,6713,0.0,1.5,0.04,0.3,-0.06,-0.21,1.63,-1.25,-5.5,-0.56,-0.06,-0.21,-1.56,-4.06,-2.06,1191.24,1654.0,0.0,0.0,0.0,0.0
1775764494290573013,6813,0.0,1.3,0.04,0.1,-0.06,-0.16,2.5,-0.81,-5.88,-0.74,0.18,-0.05,-0.75,-4.81,20.12,1228.45,1654.0,0.0,0.0,0.0,0.0
1775764494388835354,6913,0.0,1.2,0.024,-0.1,-0.06,-0.12,4.38,-0.56,-5.69,-1.68,0.41,-0.53,2.25,-4.19,13.56,1197.76,1228.0,0.0,0.0,0.0,0.0
1775764494497177878,7013,0.0,1.3,0.016,0.3,0.02,-0.04,5.13,-0.0,-4.75,-0.54,0.14,-0.36,3.06,-4.25,5.44,1189.7,1573.0,0.0,0.0,0.0,0.0
1775764494589553611,7113,0.0,1.2,0.008,0.5,-0.06,-0.1,5.69,0.25,-4.13,-0.21,0.28,-0.74,5.69,-2.69,4.75,1189.01,1573.0,0.0,0.0,0.0,0.0
1775764494697887747,7213,0.0,1.3,0.012,0.3,0.0,-0.02,6.13,0.37,-3.31,-0.46,0.36,-0.46,8.38,7.44,6.44,1193.81,2128.0,0.0,0.0,0.0,0.0
1775764494790233722,7313,0.0,1.3,0.0,0.2,-0.02,-0.18,6.31,-0.19,-2.38,0.36,0.18,-0.51,3.56,9.44,-3.81,1199.13,1100.0,0.0,0.0,0.0,0.0
1775764494888540172,7413,0.0,1.4,0.02,0.5,0.02,-0.12,5.75,-0.94,-2.31,0.06,0.28,-0.45,0.63,7.63,-7.06,1189.52,1100.0,0.0,0.0,0.0,0.0
1775764494990913445,7513,0.0,1.5,0.004,0.4,-0.14,-0.14,4.88,-1.25,-2.63,0.6,0.46,0.09,-4.13,4.38,-10.56,1176.49,838.0,0.0,0.0,0.0,0.0
1775764495089215331,7614,0.0,1.7,0.0,0.2,-0.08,-0.06,4.0,-1.75,-3.19,0.6,0.19,0.1,-7.25,6.38,-10.44,1172.03,549.0,0.0,0.0,0.0,0.0
1775764495191610052,7713,0.0,1.2,0.056,0.2,0.02,-0.14,2.25,-1.63,-4.88,-0.78,0.08,-0.01,-22.81,-6.13,-27.56,1190.21,549.0,0.0,0.0,0.0,0.0
1775764495289888955,7813,0.0,1.2,0.04,0.2,0.12,-0.1,-0.44,-0.81,-6.75,-1.24,-0.61,-0.28,-11.06,-3.81,-26.94,1204.96,1387.0,0.0,0.0,0.0,0.0
1775764495388159339,7913,0.0,1.7,0.028,0.2,-0.04,0.02,-2.31,-0.37,-6.63,-0.79,-0.71,-1.03,8.94,-5.0,-7.81,1240.63,1387.0,0.0,0.0,0.0,0.0
1775764495490554986,8012,0.0,1.4,0.016,0.2,0.0,-0.25,-2.38,-0.0,-5.13,-0.26,-0.55,-0.18,21.87,-2.19,4.31,1207.87,2870.0,0.0,0.0,0.0,0.0
1775764495588874738,8113,0.0,1.2,0.016,0.5,0.0,-0.12,-1.75,-0.5,-3.69,-0.19,-0.5,-0.51,3.31,8.19,3.0,1171.69,1707.0,0.0,0.0,0.0,0.0
1775764495819587930,8213,0.0,1.4,0.02,0.2,-0.16,-0.16,-2.13,-2.0,-3.69,-0.04,-0.65,-0.69,-2.56,3.69,-5.25,1176.49,1707.0,0.0,0.0,0.0,0.0
1775764495831228209,8313,0.0,1.3,0.0,0.1,0.04,-0.04,-2.25,-1.63,-3.88,0.81,-0.09,-0.82,-4.0,-7.75,2.06,1211.65,2191.0,0.0,0.0,0.0,0.0
1775764495891961896,8414,0.0,1.2,0.008,0.3,0.02,-0.29,-1.88,-1.06,-4.63,0.72,-0.22,-0.05,-11.06,-4.06,4.81,1180.26,2084.0,0.0,0.0,0.0,0.0
1775764495990248353,8514,0.0,1.4,0.0,0.3,-0.06,-0.02,-0.88,-0.44,-5.88,0.45,-0.25,0.3,-4.19,-8.63,16.87,1195.18,2084.0,0.0,0.0,0.0,0.0
1775764496088510306,8613,0.0,1.4,0.012,0.5,0.1,0.06,1.56,-0.56,-4.63,-0.45,-0.43,-0.04,21.87,5.75,29.87,1194.15,2468.0,0.0,0.0,0.0,0.0
1775764496190936197,8713,0.0,1.4,0.044,0.2,0.08,-0.12,3.88,-1.19,-3.69,-1.4,0.18,0.11,-5.56,2.13,21.31,1215.08,2468.0,0.0,0.0,0.0,0.0
1775764496289210903,8813,0.0,1.2,0.048,0.3,0.08,-0.18,5.81,-1.69,-4.25,-1.87,0.33,-0.32,-2.63,4.88,19.0,1212.16,2106.0,0.0,0.0,0.0,0.0
1775764496391575113,8913,0.0,1.3,0.028,0.3,0.0,-0.12,7.06,-2.13,-4.0,-0.42,-0.02,-0.68,4.56,-1.19,6.19,1226.74,2277.0,0.0,0.0,0.0,0.0
1775764496499914496,9014,0.0,1.3,0.028,0.2,0.08,-0.14,7.0,-1.12,-3.88,-0.99,0.51,-0.61,-3.63,-14.75,-2.19,1219.36,2277.0,0.0,0.0,0.0,0.0
1775764496592294560,9114,0.0,1.3,0.008,0.3,-0.08,-0.14,7.25,0.25,-4.0,-0.65,0.52,-0.66,-7.31,-8.13,3.69,1205.13,1557.0,0.0,0.0,0.0,0.0
1775764496690579636,9213,0.0,1.2,0.012,0.5,-0.02,0.0,7.25,0.69,-4.75,0.04,0.21,-0.58,-5.63,-1.12,-2.5,1303.4,1448.0,0.0,0.0,0.0,0.0
1775764496815591624,9314,0.0,1.3,0.016,0.2,-0.12,-0.04,7.13,0.69,-5.0,-0.09,0.19,-0.88,-0.12,1.0,-1.0,1227.25,1448.0,0.0,0.0,0.0,0.0
1775764496891273363,9414,0.0,1.4,0.004,0.5,-0.04,0.06,6.81,0.5,-5.06,0.52,0.3,-0.45,-0.37,7.31,-7.44,1252.81,1786.0,0.0,0.0,0.0,0.0
1775764496989538589,9513,0.0,1.1,0.004,0.4,-0.02,-0.1,5.69,-0.25,-5.0,0.45,0.46,-0.18,2.38,12.75,-14.38,1274.93,2176.0,0.0,0.0,0.0,0.0
1775764497091958934,9614,0.0,0.9,0.0,0.5,0.08,-0.18,4.0,-0.5,-5.63,0.3,0.49,0.04,-2.25,9.56,-15.88,1224.68,2176.0,0.0,0.0,0.0,0.0
1775764497194342148,9715,0.0,1.0,0.056,0.3,-0.06,-0.12,2.81,-0.94,-5.88,-0.02,0.02,-0.26,4.81,5.0,-7.44,1214.56,1963.0,0.0,0.0,0.0,0.0
1775764497292631712,9815,0.0,1.0,0.036,0.6,0.08,-0.04,2.19,-0.94,-5.13,-0.37,-0.03,-0.49,6.5,-4.5,-6.75,1184.89,2504.0,0.0,0.0,0.0,0.0
1775764497394993539,9916,0.0,0.8,0.032,0.4,0.0,-0.12,1.5,-0.56,-4.44,-1.37,-0.65,-0.28,12.38,-0.75,-6.75,1221.77,2504.0,0.0,0.0,0.0,0.0
1775764497493278548,10016,0.0,0.7,0.016,0.5,0.0,-0.06,0.63,-0.06,-3.0,-1.19,-1.04,-0.67,12.88,-7.31,-12.06,1181.98,1592.0,0.0,0.0,0.0,0.0
1775764497595710000,10116,0.0,0.7,0.0,1.4,-0.06,-0.02,-0.37,-0.25,-1.31,-0.16,-0.78,0.35,2.75,-9.81,-5.81,1201.87,1592.0,0.0,0.0,0.0,0.0
1775764497694003434,10216,0.016,0.1,0.0,1.5,-0.14,-0.14,-0.56,0.5,-0.81,-0.09,-0.32,-0.27,2.63,-4.5,0.12,1220.05,1964.0,0.0,0.0,0.0,0.0
1775764497792284424,10316,0.016,0.4,0.0,1.5,-0.06,-0.1,-0.5,0.31,-1.06,-0.2,-0.39,-0.55,-8.19,4.38,3.81,1202.21,1566.0,0.0,0.0,0.0,0.0
1775764497894738134,10416,0.024,0.5,0.0,1.4,-0.08,0.02,0.06,-0.0,-1.69,0.06,-0.66,-0.37,-4.5,-6.06,4.19,1193.47,1566.0,0.0,0.0,0.0,0.0
1775764498023595485,10517,0.02,0.2,0.0,1.4,0.04,-0.16,0.56,1.0,-2.5,0.18,0.07,0.15,-11.31,-17.44,12.56,1188.15,1280.0,0.0,0.0,0.0,0.0
1775764498095379202,10617,0.024,0.4,0.0,1.3,-0.08,-0.04,2.56,1.75,-3.25,-0.55,0.38,-0.29,-1.44,-0.0,26.56,1223.31,2083.0,0.0,0.0,0.0,0.0
1775764498197744812,10718,0.068,0.0,0.0,1.5,0.04,-0.16,4.88,1.19,-3.38,-0.4,-0.08,-0.59,-5.0,6.44,20.69,1232.91,2083.0,0.0,0.0,0.0,0.0
1775764498296039124,10818,0.048,0.4,0.0,1.5,-0.02,-0.08,7.25,0.88,-3.63,-0.71,0.35,-0.75,-7.25,0.69,30.37,1280.76,2003.0,0.0,0.0,0.0,0.0
1775764498398407752,10918,0.044,0.4,0.0,1.3,-0.12,-0.02,9.81,0.81,-4.13,-0.06,0.52,-0.62,-7.5,3.69,17.94,1311.46,2383.0,0.0,0.0,0.0,0.0
1775764498496699675,11018,0.0,1.2,0.02,0.3,-0.02,-0.12,11.06,0.25,-4.63,0.5,0.25,-0.33,-0.5,4.69,9.31,1289.17,2383.0,0.0,0.0,0.0,0.0
1775764498594996487,11118,0.02,0.1,0.0,1.2,-0.1,-0.16,11.56,0.31,-4.75,-0.2,0.14,-0.27,-1.69,-5.94,1.06,1238.92,1859.0,0.0,0.0,0.0,0.0
1775764498697424241,11218,0.0,0.9,0.012,0.5,0.1,-0.18,11.38,0.94,-4.69,-0.27,-0.0,0.07,8.25,-4.56,-0.31,1239.6,1859.0,0.0,0.0,0.0,0.0
1775764498795719960,11319,0.0,0.9,0.008,0.3,-0.12,-0.23,11.88,1.5,-3.88,-0.1,0.16,-0.47,1.69,-7.25,6.69,1246.63,1357.0,0.0,0.0,0.0,0.0
1775764498898114754,11418,0.024,0.4,0.0,1.5,0.0,-0.2,12.5,1.63,-4.06,0.01,-0.13,-0.57,-0.69,1.81,4.19,1291.57,1247.0,0.0,0.0,0.0,0.0
1775764498996406343,11517,0.016,0.1,0.004,0.9,-0.16,-0.08,12.88,1.5,-3.94,0.11,-0.23,-0.49,3.88,-1.5,6.38,1263.95,1247.0,0.0,0.0,0.0,0.0
1775764499094635077,11618,0.02,0.3,0.0,1.2,0.04,-0.14,13.75,1.63,-3.5,-0.01,-0.04,-0.17,6.19,-1.5,10.31,1268.07,1843.0,0.0,0.0,0.0,0.0
1775764499197097613,11718,0.072,0.4,0.0,0.9,-0.16,-0.14,14.56,1.37,-3.19,-0.02,-0.27,-0.23,1.0,2.75,3.81,1255.72,1269.0,0.0,0.0,0.0,0.0
1775764499299496209,11819,0.068,0.3,0.0,1.1,0.06,-0.08,14.75,1.19,-3.25,0.0,-0.03,-0.3,-1.75,-2.44,1.75,1264.47,1269.0,0.0,0.0,0.0,0.0
1775764499397732550,11919,0.056,0.3,0.0,0.3,0.02,-0.08,14.81,1.37,-3.56,0.06,0.15,-0.34,-2.31,-0.06,0.44,1241.83,2136.0,0.0,0.0,0.0,0.0
1775764499500125776,12019,0.0,0.5,0.024,0.3,-0.04,-0.18,14.88,1.5,-3.88,0.06,0.12,-0.27,-4.63,-1.12,2.56,1276.82,1891.0,0.0,0.0,0.0,0.0
1775764499598452741,12120,0.0,0.8,0.012,0.2,-0.06,0.04,15.25,1.56,-4.31,-0.04,0.11,-0.44,-4.25,-0.56,4.5,1264.64,1891.0,0.0,0.0,0.0,0.0
1775764499696785095,12220,0.0,0.7,0.02,0.6,-0.02,-0.12,15.63,1.56,-4.63,0.0,0.02,-0.48,-2.13,0.44,3.44,1262.41,2215.0,0.0,0.0,0.0,0.0
1775764499799148434,12319,0.0,0.9,0.008,0.2,0.04,-0.16,16.0,1.63,-4.75,-0.01,0.07,-0.4,0.63,-0.94,4.13,1268.76,2215.0,0.0,0.0,0.0,0.0
1775764500035591928,12419,0.0,0.9,0.004,0.3,0.02,-0.06,16.37,1.56,-4.63,-0.05,0.03,-0.3,1.06,-0.0,3.69,1250.92,835.0,0.0,0.0,0.0,0.0
1775764500098122400,12519,0.0,0.9,0.016,0.3,-0.1,-0.21,16.62,1.5,-4.5,-0.08,-0.13,-0.4,1.5,0.75,1.5,1258.12,2118.0,0.0,0.0,0.0,0.0
1775764500110207186,12619,0.0,0.9,0.0,0.6,-0.14,-0.04,16.69,1.5,-4.38,-0.01,-0.04,-0.28,0.69,-0.44,-0.31,1293.45,2118.0,0.0,0.0,0.0,0.0
1775764500196355842,12719,0.0,1.1,0.048,0.2,-0.04,-0.16,16.62,1.5,-4.44,-0.02,-0.01,-0.29,-1.37,-0.5,-0.69,1293.97,1977.0,0.0,0.0,0.0,0.0
1775764500298825310,12819,0.0,0.9,0.036,0.3,0.0,0.0,16.56,1.5,-4.56,0.02,-0.02,-0.35,-2.13,0.88,-0.69,1267.56,907.0,0.0,0.0,0.0,0.0
1775764500397056234,12918,0.0,1.0,0.032,0.7,0.0,-0.06,16.44,1.37,-4.75,0.03,-0.01,-0.44,-0.69,0.56,-1.31,1246.63,907.0,0.0,0.0,0.0,0.0
1775764500499485260,13018,0.032,0.4,0.0,1.5,0.04,-0.1,16.31,1.37,-4.69,0.0,0.02,-0.37,1.06,-0.12,-1.44,1278.88,1815.0,0.0,0.0,0.0,0.0
1775764500597747923,13118,0.032,0.3,0.0,1.6,-0.02,-0.16,16.19,1.44,-4.56,0.02,0.03,-0.3,1.25,0.56,-1.37,1297.23,1089.0,0.0,0.0,0.0,0.0
1775764500696068526,13217,0.024,0.5,0.0,0.2,0.12,-0.12,16.06,1.44,-4.5,-0.03,0.02,-0.18,0.56,0.5,-1.0,1335.81,1089.0,0.0,0.0,0.0,0.0
1775764500798457240,13317,0.0,1.2,0.008,0.1,0.12,-0.12,16.0,1.44,-4.56,-0.14,0.07,-0.28,-2.75,0.37,-0.12,1264.13,1387.0,0.0,0.0,0.0,0.0
1775764500896753993,13417,0.0,1.4,0.008,0.2,0.0,0.0,16.0,1.31,-4.88,0.04,0.03,-0.36,-2.5,1.19,0.44,1274.93,1387.0,0.0,0.0,0.0,0.0
1775764500995039117,13516,0.0,1.4,0.0,0.3,0.0,-0.2,16.06,1.25,-5.0,0.0,0.02,-0.45,-0.81,0.94,0.69,1288.48,1647.0,0.0,0.0,0.0,0.0
1775764501097454543,13617,0.0,1.2,0.004,0.4,0.0,-0.1,16.06,1.12,-4.94,0.08,-0.01,-0.39,2.38,1.19,1.0,1269.96,2136.0,0.0,0.0,0.0,0.0
1775764501195732509,13718,0.0,1.3,0.048,0.1,0.02,-0.18,16.19,1.06,-4.63,-0.07,-0.04,-0.3,3.44,0.56,1.12,1279.56,2136.0,0.0,0.0,0.0,0.0
1775764501298198446,13817,0.0,1.3,0.0,0.9,0.0,-0.06,16.31,1.06,-4.38,-0.02,-0.01,-0.25,1.37,0.5,0.44,1297.05,1703.0,0.0,0.0,0.0,0.0
1775764501396375234,13917,0.048,0.1,0.0,0.8,0.08,-0.04,16.31,1.06,-4.31,-0.03,-0.03,-0.29,-0.5,-0.25,0.5,1249.89,872.0,0.0,0.0,0.0,0.0
1775764501498770695,14018,0.032,0.4,0.004,0.2,-0.08,-0.14,16.31,1.06,-4.38,0.01,-0.04,-0.33,-1.31,0.31,0.56,1255.21,872.0,0.0,0.0,0.0,0.0
1775764501597086825,14117,0.0,0.9,0.012,0.2,0.12,-0.04,16.31,1.06,-4.5,0.01,-0.02,-0.37,-0.5,-0.06,0.0,1286.42,2315.0,0.0,0.0,0.0,0.0
1775764501695332052,14218,0.0,0.9,0.012,0.1,-0.06,-0.16,16.31,1.06,-4.5,0.05,-0.03,-0.39,-0.5,-0.25,-0.37,1282.31,2764.0,0.0,0.0,0.0,0.0
1775764501797778343,14317,0.0,1.1,0.012,0.5,-0.06,-0.18,16.31,1.0,-4.44,0.01,-0.05,-0.36,0.94,-0.19,-0.44,1299.11,2764.0,0.0,0.0,0.0,0.0
1775764501896063160,14417,0.0,0.8,0.008,0.5,0.02,-0.04,16.31,1.0,-4.44,0.02,-0.0,-0.27,0.5,0.06,0.0,1261.73,1782.0,0.0,0.0,0.0,0.0
1775764501998462380,14517,0.0,0.6,0.0,0.3,-0.06,-0.16,16.31,1.0,-4.44,-0.01,0.01,-0.37,-0.12,-0.25,-0.06,1286.08,1782.0,0.0,0.0,0.0,0.0
1775764502096736726,14618,0.0,0.9,0.0,0.3,0.04,-0.1,16.31,1.06,-4.44,-0.03,-0.0,-0.36,0.5,-0.56,0.81,1265.33,1598.0,0.0,0.0,0.0,0.0
1775764502199120714,14718,0.0,0.6,0.056,0.3,0.0,-0.14,16.37,1.0,-4.44,-0.06,0.01,-0.27,-0.19,-0.25,0.56,1281.79,1631.0,0.0,0.0,0.0,0.0
1775764502297418186,14818,0.0,0.9,0.04,0.3,0.1,-0.14,16.5,1.0,-4.5,0.0,0.02,-0.32,-1.31,-0.06,1.0,1303.4,1631.0,0.0,0.0,0.0,0.0
1775764502399791730,14919,0.044,0.2,0.0,1.4,0.02,-0.21,16.56,1.0,-4.63,-0.01,-0.04,-0.4,-1.44,0.06,0.81,1296.37,1685.0,0.0,0.0,0.0,0.0
1775764502627591489,15020,0.032,0.1,0.0,1.5,0.02,-0.31,16.62,1.0,-4.75,-0.02,-0.03,-0.4,-0.37,-0.19,0.0,1308.37,2225.0,0.0,0.0,0.0,0.0
1775764502640694920,15120,0.04,0.4,0.0,1.4,-0.06,0.0,16.62,1.06,-4.75,0.01,0.02,-0.36,-0.19,-1.0,-1.19,1316.61,2225.0,0.0,0.0,0.0,0.0
1775764502698803771,15219,0.032,0.2,0.004,0.3,0.0,-0.06,16.5,1.12,-4.69,0.0,-0.02,-0.32,0.75,-0.69,-1.25,1266.87,2119.0,0.0,0.0,0.0,0.0
1775764502801157187,15319,0.024,0.2,0.0,1.2,0.0,0.0,16.31,1.25,-4.69,0.0,-0.05,-0.4,-0.37,-1.44,-2.0,1290.54,930.0,0.0,0.0,0.0,0.0
1775764502899490860,15419,0.028,0.3,0.0,1.0,-0.1,-0.1,16.06,1.37,-4.69,0.0,-0.03,-0.37,0.75,0.44,-3.06,1265.16,930.0,0.0,0.0,0.0,0.0
1775764502997769538,15518,0.032,0.3,0.0,1.1,0.02,-0.18,15.75,1.31,-4.5,0.05,-0.16,-0.33,2.63,0.75,-3.13,1263.78,1575.0,0.0,0.0,0.0,0.0
1775764503100173181,15618,0.028,0.3,0.0,1.1,0.1,-0.08,15.44,1.25,-4.13,0.0,-0.13,-0.32,3.63,1.0,-3.38,1248.35,1575.0,0.0,0.0,0.0,0.0
1775764503198456570,15718,0.076,0.1,0.0,1.2,-0.14,-0.08,15.0,1.19,-3.81,0.07,-0.11,-0.25,3.5,0.88,-6.63,1271.5,2270.0,0.0,0.0,0.0,0.0
1775764503300848620,15818,0.0,1.0,0.048,0.5,-0.14,-0.12,14.25,1.25,-3.5,0.0,0.06,-0.11,1.37,-1.56,-7.06,1262.58,1253.0,0.0,0.0,0.0,0.0
1775764503399091753,15919,0.0,1.1,0.024,0.3,-0.14,-0.21,13.63,1.5,-3.56,-0.29,0.19,-0.25,-2.94,-1.5,-5.63,1264.98,1253.0,0.0,0.0,0.0,0.0
1775764503501500024,16020,0.036,0.3,0.0,1.5,-0.12,-0.1,13.13,1.94,-3.88,0.0,0.19,-0.52,-6.63,-3.38,-4.94,1306.14,1795.0,0.0,0.0,0.0,0.0
1775764503599835298,16119,0.036,0.3,0.0,1.2,0.04,-0.14,12.75,2.13,-4.5,0.26,-0.04,-0.6,-2.88,1.06,-4.88,1272.53,1869.0,0.0,0.0,0.0,0.0
1775764503698086764,16219,0.032,0.2,0.0,1.3,-0.08,-0.14,12.31,2.06,-4.5,0.0,-0.18,-0.47,5.88,-1.56,-4.75,1275.45,1869.0,0.0,0.0,0.0,0.0
1775764503800505182,16319,0.02,0.2,0.0,1.4,-0.2,-0.12,11.88,2.25,-3.88,-0.18,-0.22,-0.18,5.88,-1.0,-4.88,1249.03,1612.0,0.0,0.0,0.0,0.0
1775764503898802830,16419,0.0,1.2,0.004,0.5,-0.16,-0.18,11.31,2.19,-3.5,0.24,-0.19,-0.34,-1.37,1.5,-6.25,1255.04,1833.0,0.0,0.0,0.0,0.0
1775764504001194824,16520,0.02,0.1,0.0,1.0,0.16,-0.12,10.63,2.0,-3.5,0.16,-0.14,-0.4,4.56,0.12,-7.31,1244.4,1833.0,0.0,0.0,0.0,0.0
1775764504109529432,16620,0.024,0.2,0.0,1.0,0.08,-0.06,10.19,2.19,-3.0,-0.01,0.22,-0.5,5.63,-1.31,-2.75,1224.34,2158.0,0.0,0.0,0.0,0.0
1775764504201890408,16720,0.068,0.3,0.0,1.0,-0.02,-0.08,9.81,2.31,-2.44,0.26,0.11,-0.23,8.38,-0.37,-5.13,1250.23,2152.0,0.0,0.0,0.0,0.0
1775764504300108662,16820,0.064,0.1,0.0,1.1,0.08,-0.12,9.5,2.63,-2.0,0.48,0.21,-0.15,6.75,-2.25,-1.75,1231.54,2152.0,0.0,0.0,0.0,0.0
1775764504402523125,16921,0.048,0.0,0.0,0.9,0.02,-0.14,9.38,2.88,-1.56,-0.02,-0.18,-0.32,8.56,-1.19,-2.75,1198.61,2258.0,0.0,0.0,0.0,0.0
1775764504500838669,17021,0.04,0.2,0.0,0.2,-0.1,-0.23,8.75,3.25,-1.06,-0.01,0.15,-0.34,-3.19,-6.06,-9.75,1243.55,2258.0,0.0,0.0,0.0,0.0
1775764504603246947,17121,0.0,0.8,0.016,0.5,-0.02,-0.06,7.63,3.69,-1.69,0.16,0.34,-0.37,-8.63,-0.19,-11.75,1268.59,1983.0,0.0,0.0,0.0,0.0
1775764504701544307,17220,0.0,1.0,0.012,0.5,0.08,-0.12,6.56,3.88,-2.69,0.18,0.37,-0.56,-12.31,2.69,-8.0,1205.99,1121.0,0.0,0.0,0.0,0.0
1775764504799835519,17319,0.0,1.0,0.02,0.2,-0.06,-0.16,6.0,3.56,-3.75,0.3,0.22,-0.41,-7.63,7.94,-3.75,1224.34,1121.0,0.0,0.0,0.0,0.0
1775764504898074180,17419,0.0,0.7,0.008,0.3,0.0,-0.02,5.44,2.94,-4.69,0.26,0.12,-0.73,-8.38,7.5,-7.81,1209.07,1027.0,0.0,0.0,0.0,0.0
1775764505000511437,17518,0.0,0.8,0.0,-0.1,0.04,-0.14,4.69,2.13,-5.44,1.21,0.12,-0.37,-5.63,11.88,-5.38,1230.0,1864.0,0.0,0.0,0.0,0.0
1775764505098805400,17617,0.0,0.9,0.004,0.1,-0.08,-0.04,3.94,1.06,-5.06,0.9,-0.29,-0.24,16.87,7.81,-8.81,1191.07,1864.0,0.0,0.0,0.0,0.0
1775764505201206057,17718,0.0,0.7,0.048,0.2,0.02,-0.2,3.13,1.19,-2.81,0.13,0.39,-0.06,22.0,-5.88,-9.88,1227.43,2023.0,0.0,0.0,0.0,0.0
1775764505299501777,17818,0.0,0.9,0.048,0.0,0.0,-0.06,1.63,1.94,-2.38,0.26,0.12,0.19,-7.19,-3.5,-21.19,1288.82,2023.0,0.0,0.0,0.0,0.0
1775764505397743428,17917,0.0,0.7,0.032,0.3,-0.14,-0.18,-0.44,2.25,-2.69,-1.88,-0.73,-0.48,1.94,-3.5,-22.94,1216.96,1907.0,0.0,0.0,0.0,0.0
1775764505500230227,18017,0.0,0.7,0.02,0.5,0.1,-0.16,-2.0,2.63,-2.38,-0.58,-1.06,-0.44,0.31,3.13,-6.0,1230.51,1982.0,0.0,0.0,0.0,0.0
1775764505598468248,18117,0.0,0.6,0.016,0.5,0.02,-0.25,-2.13,2.0,-2.13,0.22,-0.65,-0.03,6.19,5.31,-3.63,1216.79,1982.0,0.0,0.0,0.0,0.0
1775764505696759080,18216,0.024,0.2,0.0,1.5,-0.18,-0.12,-2.75,1.75,-1.56,-0.38,-0.5,-0.67,2.19,-0.63,-4.81,1200.16,1896.0,0.0,0.0,0.0,0.0
1775764505799156774,18316,0.016,0.1,0.0,1.4,0.08,-0.02,-2.69,1.44,-1.56,0.33,-0.2,-0.89,-3.56,4.81,4.63,1182.49,1585.0,0.0,0.0,0.0,0.0
1775764505897434329,18416,0.028,0.2,0.0,0.3,-0.1,-0.2,-2.13,1.0,-2.13,1.0,-0.48,-0.8,-8.25,1.75,6.5,1191.24,1585.0,0.0,0.0,0.0,0.0
1775764505999843263,18516,0.0,1.4,0.008,-0.1,-0.04,-0.14,-1.44,0.69,-3.63,0.75,-0.59,-0.62,-4.75,-6.63,7.63,1182.84,1029.0,0.0,0.0,0.0,0.0
1775764506098131550,18617,0.0,1.3,0.004,0.1,0.08,-0.14,-0.69,1.19,-4.69,0.82,-0.01,0.09,1.37,-12.06,5.19,1229.48,555.0,0.0,0.0,0.0,0.0
1775764506200509605,18716,0.0,1.4,0.056,0.3,-0.02,-0.1,-0.06,1.56,-4.06,-0.33,-0.14,0.92,12.81,6.88,12.88,1180.43,555.0,0.0,0.0,0.0,0.0
1775764506298785596,18817,0.0,1.4,0.04,0.3,0.0,-0.04,1.0,0.56,-2.75,-1.14,-0.38,-0.32,7.06,5.06,5.75,1188.84,2209.0,0.0,0.0,0.0,0.0
1775764506401141634,18917,0.0,1.2,0.036,0.4,-0.02,-0.27,2.0,0.56,-3.19,-1.33,0.28,-0.18,-16.12,-1.06,15.81,1271.5,1029.0,0.0,0.0,0.0,0.0
1775764506499460233,19016,0.0,1.5,0.02,0.6,-0.08,-0.1,3.5,0.69,-3.81,-1.79,0.48,-0.87,1.31,-4.5,11.63,1216.96,1029.0,0.0,0.0,0.0,0.0
1775764506601883766,19117,0.0,1.3,0.0,0.5,-0.08,-0.18,4.38,1.12,-3.69,-0.37,0.29,-0.83,0.75,-3.63,9.0,1458.26,1908.0,0.0,0.0,0.0,0.0
1775764506700178422,19218,0.0,1.4,0.012,0.7,-0.12,-0.21,4.94,1.37,-3.44,-0.56,0.18,-0.89,-0.31,-0.12,2.5,1220.39,1908.0,0.0,0.0,0.0,0.0
1775764506798431877,19317,0.0,1.6,0.008,0.2,0.08,-0.1,5.13,1.44,-2.81,0.26,0.31,-0.82,6.06,3.38,1.25,1267.21,1493.0,0.0,0.0,0.0,0.0
1775764506900860929,19417,0.0,1.5,0.004,0.5,0.0,0.04,4.88,1.0,-2.56,0.11,0.23,-0.75,2.19,7.19,-6.81,1246.12,1839.0,0.0,0.0,0.0,0.0
1775764506999141437,19517,0.0,1.1,0.0,0.5,0.1,-0.2,3.75,0.63,-2.69,0.31,0.48,0.38,-2.0,4.63,-13.63,1245.43,1839.0,0.0,0.0,0.0,0.0
1775764507097454973,19616,0.0,1.4,0.0,1.0,0.0,-0.04,2.44,0.25,-2.88,0.66,0.38,0.54,-3.88,2.19,-13.56,1234.46,2465.0,0.0,0.0,0.0,0.0
1775764507199838313,19716,0.068,0.1,0.0,1.1,0.08,-0.16,0.94,0.69,-3.81,-0.48,0.27,-0.09,-13.0,-8.88,-20.87,1188.84,2711.0,0.0,0.0,0.0,0.0
1775764507298133164,19817,0.068,0.0,0.04,0.5,-0.1,-0.02,-0.81,1.94,-4.31,-0.96,-0.11,-0.31,-3.5,-6.63,-12.44,1189.01,2711.0,0.0,0.0,0.0,0.0
1775764507400480933,19916,0.0,1.0,0.028,0.2,0.0,-0.02,-1.44,2.06,-3.94,-0.56,-1.24,-0.61,0.06,7.06,0.69,1220.05,2451.0,0.0,0.0,0.0,0.0
1775764507498723139,20017,0.0,1.0,0.016,0.3,0.06,-0.1,-1.37,1.0,-3.69,-0.58,-1.16,-0.62,3.25,3.0,-4.38,1227.94,2451.0,0.0,0.0,0.0,0.0
1775764507601194899,20118,0.0,0.2,0.0,0.7,-0.08,-0.14,-2.19,1.25,-3.81,-0.06,-0.37,-0.13,-3.13,-4.31,-8.25,1298.77,1913.0,0.0,0.0,0.0,0.0
1775764507699453400,20218,0.028,0.3,0.0,1.1,0.02,-0.12,-2.81,1.56,-3.63,0.04,-0.24,-0.79,3.0,-4.31,-5.25,1221.94,2313.0,0.0,0.0,0.0,0.0
1775764507801885700,20319,0.032,0.1,0.0,1.1,0.0,-0.12,-2.81,2.06,-4.0,0.87,-0.15,-0.61,-9.25,-4.56,7.13,1213.02,2313.0,0.0,0.0,0.0,0.0
1775764507904268782,20419,0.024,0.1,0.0,1.1,0.02,-0.12,-1.69,2.38,-5.0,0.82,-0.25,-0.16,-8.06,-4.25,16.25,1209.59,958.0,0.0,0.0,0.0,0.0
1775764508002563521,20519,0.028,0.2,0.0,0.5,0.14,-0.14,0.06,1.94,-6.06,0.49,-0.38,0.93,8.75,10.56,23.0,1203.42,1607.0,0.0,0.0,0.0,0.0
1775764508104949481,20620,0.0,0.9,0.004,0.3,-0.06,-0.06,2.19,0.44,-4.31,-2.08,-0.66,-0.83,14.38,7.31,15.88,1178.55,1607.0,0.0,0.0,0.0,0.0
1775764508203240934,20721,0.0,1.0,0.06,0.3,-0.12,-0.02,3.31,-0.06,-4.56,-1.66,0.45,-0.22,-15.19,5.94,10.06,1225.54,2308.0,0.0,0.0,0.0,0.0
1775764508301504370,20820,0.0,0.9,0.04,0.2,-0.06,-0.18,3.94,-0.63,-4.81,-0.8,0.12,-0.57,13.88,-1.31,2.0,1212.33,2064.0,0.0,0.0,0.0,0.0
1775764508403886349,20920,0.0,0.7,0.024,0.2,0.0,-0.18,4.06,-0.06,-3.88,-0.71,0.3,-1.04,-0.94,-7.19,1.0,1222.28,2064.0,0.0,0.0,0.0,0.0
1775764508502157340,21021,0.0,1.0,0.024,0.3,0.12,-0.2,4.06,0.19,-4.06,-0.17,0.54,-0.45,1.19,2.25,-2.06,1204.79,1311.0,0.0,0.0,0.0,0.0
1775764509183613441,21121,0.0,1.0,0.012,0.1,0.04,-0.08,4.0,-0.06,-3.56,0.23,0.28,-0.72,6.75,2.94,3.31,1208.39,842.0,0.0,0.0,0.0,0.0
1775764509206669419,21222,0.0,1.1,0.0,0.2,0.12,-0.14,4.25,-0.06,-3.88,0.24,0.39,-0.3,-7.06,7.69,-2.19,1204.27,842.0,0.0,0.0,0.0,0.0
1775764509218582149,21321,0.024,0.5,0.008,0.3,-0.06,-0.08,3.5,-0.81,-4.88,0.59,-0.0,0.03,-8.31,9.38,-10.81,1239.43,2099.0,0.0,0.0,0.0,0.0
1775764509230638239,21421,0.0,1.3,0.0,0.2,0.04,-0.1,2.19,-1.25,-6.19,0.0,0.05,-0.38,-16.37,1.12,-17.75,1229.31,2099.0,0.0,0.0,0.0,0.0
1775764509244090620,21522,0.0,1.3,0.0,0.1,0.1,-0.08,-0.31,-0.0,-8.75,-1.12,0.32,0.22,-29.19,-15.94,-35.75,1241.15,2225.0,0.0,0.0,0.0,0.0
1775764509304962844,21621,0.0,1.3,0.0,0.4,-0.06,-0.06,-3.44,1.56,-9.38,-1.03,-0.97,-0.35,16.31,-4.06,-20.37,1264.64,1995.0,0.0,0.0,0.0,0.0
1775764509313312845,21721,0.0,1.4,0.04,0.2,-0.04,-0.02,-4.06,1.25,-7.0,-0.3,-0.57,-0.72,23.81,5.31,-3.38,1257.09,1995.0,0.0,0.0,0.0,0.0
1775764509317275176,21821,0.0,1.3,0.036,0.2,0.14,-0.04,-4.44,0.75,-5.5,-0.72,-0.66,-0.46,6.88,4.88,-1.94,1200.5,2235.0,0.0,0.0,0.0,0.0
1775764509403221735,21920,0.0,1.4,0.028,0.5,0.06,-0.2,-4.5,-0.19,-4.75,0.12,-0.53,-0.7,3.88,4.31,-0.44,1201.19,1187.0,0.0,0.0,0.0,0.0
1775764509505598204,22021,0.0,1.0,0.02,0.6,0.14,-0.12,-4.5,-0.37,-5.0,0.48,-0.17,-0.5,-0.56,-5.88,1.37,1237.37,1187.0,0.0,0.0,0.0,0.0
1775764509603913906,22122,0.0,1.7,0.008,0.3,0.0,-0.12,-3.88,0.25,-5.63,0.8,-0.02,0.42,-4.25,-8.44,9.75,1186.09,2243.0,0.0,0.0,0.0,0.0
1775764509706314299,22221,0.0,1.4,0.0,0.3,-0.08,-0.1,-3.06,0.63,-6.44,0.78,-0.07,0.26,-12.94,-6.5,6.5,1272.19,2014.0,0.0,0.0,0.0,0.0
1775764509804619242,22321,0.0,1.3,0.004,0.3,-0.06,-0.16,-1.5,0.56,-7.63,-1.34,-0.09,0.43,-1.81,3.81,25.44,1243.72,2014.0,0.0,0.0,0.0,0.0
1775764509902901279,22421,0.0,1.2,0.008,0.4,-0.02,-0.12,1.31,-0.56,-6.94,-1.95,0.31,-1.12,5.88,11.0,25.5,1211.82,467.0,0.0,0.0,0.0,0.0
1775764510005299654,22520,0.0,1.1,0.004,0.3,-0.02,-0.12,2.63,-1.56,-6.69,-0.84,0.13,-0.39,6.25,4.63,8.31,1265.16,467.0,0.0,0.0,0.0,0.0
1775764510103590812,22620,0.0,1.4,0.004,0.5,-0.08,-0.08,3.31,-1.56,-5.63,-0.68,0.2,-1.17,9.94,-3.31,6.06,1190.38,2076.0,0.0,0.0,0.0,0.0
1775764510247587385,22720,0.0,1.5,0.052,0.4,-0.06,-0.23,3.63,-1.37,-5.0,-0.47,0.68,-0.66,6.0,0.94,-1.94,1205.3,2174.0,0.0,0.0,0.0,0.0
1775764510304276983,22820,0.0,1.2,0.032,0.4,0.0,-0.18,3.31,-1.63,-4.31,0.21,0.38,-0.61,6.75,4.13,-3.31,1257.95,2174.0,0.0,0.0,0.0,0.0
1775764510406627870,22920,0.0,1.4,0.032,0.1,-0.08,-0.1,2.44,-1.5,-4.5,0.1,0.54,0.02,-4.69,1.0,-14.06,1156.94,1816.0,0.0,0.0,0.0,0.0
1775764510504943526,23021,0.0,1.1,0.008,0.2,0.04,-0.14,0.75,-1.69,-5.13,0.51,0.16,0.66,-8.5,4.38,-20.06,1202.21,2961.0,0.0,0.0,0.0,0.0
1775764510603255497,23120,0.0,1.4,0.012,0.5,0.06,-0.12,-1.94,-1.0,-5.88,-2.05,-0.2,0.98,2.75,-9.0,-32.56,1218.68,2961.0,0.0,0.0,0.0,0.0
1775764510705649751,23220,0.0,1.2,0.008,0.5,-0.06,-0.1,-4.19,-0.25,-4.44,-1.5,-0.77,-1.31,14.56,1.5,-14.44,1186.61,1877.0,0.0,0.0,0.0,0.0
1775764510803920929,23321,0.0,1.5,0.012,0.1,-0.18,-0.12,-5.44,-1.06,-4.69,-0.83,-0.84,-0.47,-9.63,11.31,-14.81,1207.87,1478.0,0.0,0.0,0.0,0.0
1775764510906343144,23420,0.032,0.0,0.0,1.2,0.1,-0.1,-6.88,-1.56,-5.0,-0.77,-0.62,-1.2,-1.31,1.12,-12.13,1221.59,1478.0,0.0,0.0,0.0,0.0
1775764511004636042,23520,0.024,0.3,0.0,1.0,0.04,-0.14,-7.81,-1.88,-4.63,0.07,-0.4,-0.76,7.13,3.13,-8.56,1227.25,1676.0,0.0,0.0,0.0,0.0
1775764511235589461,23619,0.0,0.9,0.004,0.5,-0.04,-0.04,-8.38,-1.75,-4.0,0.1,-0.22,-0.77,3.63,-4.06,-0.44,1205.13,1676.0,0.0,0.0,0.0,0.0
1775764511238221254,23719,0.0,0.8,0.044,0.3,0.12,-0.02,-7.69,-1.0,-4.19,0.68,-0.01,-0.26,-4.5,-11.38,9.63,1209.25,2096.0,0.0,0.0,0.0,0.0
1775764511303600827,23820,0.0,0.9,0.036,0.2,-0.02,-0.16,-6.44,0.06,-5.25,0.35,-0.17,-0.13,-7.94,-15.94,16.0,1231.2,1958.0,0.0,0.0,0.0,0.0
1775764511401838740,23919,0.0,0.9,0.008,1.5,-0.08,-0.1,-4.19,0.88,-6.19,-0.07,-0.12,0.7,-4.31,-0.63,29.56,1189.87,1958.0,0.0,0.0,0.0,0.0
1775764511504253057,24018,0.02,0.3,0.02,0.3,-0.08,-0.06,-1.56,-0.06,-5.63,-2.36,-0.21,-0.54,14.63,8.81,27.0,1185.75,2102.0,0.0,0.0,0.0,0.0
1775764511602559798,24118,0.0,1.4,0.008,0.1,0.08,-0.02,0.69,-0.5,-5.06,-1.79,0.4,-0.43,-4.44,-0.5,23.0,1257.61,1859.0,0.0,0.0,0.0,0.0
1775764511700855595,24217,0.0,1.4,0.02,0.4,-0.02,-0.2,3.0,-0.69,-4.38,-1.37,0.64,-0.79,9.88,3.19,22.37,1201.53,1859.0,0.0,0.0,0.0,0.0
1775764511799112358,24316,0.0,1.4,0.012,0.6,-0.06,-0.08,4.63,-1.25,-3.25,-0.93,0.23,-0.87,2.13,5.06,14.13,1197.24,2505.0,0.0,0.0,0.0,0.0
1775764511901563913,24416,0.0,1.2,0.012,0.5,-0.02,-0.06,5.81,-1.56,-2.38,-0.44,0.46,-0.46,12.25,5.19,9.31,1199.3,2505.0,0.0,0.0,0.0,0.0
1775764511999842156,24516,0.0,1.4,0.004,0.4,-0.08,0.02,6.13,-1.75,-1.0,-0.43,0.42,-0.24,2.5,9.44,-2.38,1197.41,2611.0,0.0,0.0,0.0,0.0
1775764512119590038,24616,0.0,1.4,0.0,0.5,0.06,-0.1,5.38,-2.44,-1.5,0.12,0.3,0.0,-11.81,10.25,-10.25,1188.67,2459.0,0.0,0.0,0.0,0.0
1775764512200520997,24716,0.0,1.3,0.044,0.6,-0.02,-0.18,4.13,-3.06,-2.81,0.01,0.19,-0.07,-16.12,4.81,-19.31,1188.67,2459.0,0.0,0.0,0.0,0.0
1775764512302898160,24816,0.0,1.4,0.036,0.2,-0.06,-0.12,1.63,-2.56,-4.63,-0.71,-0.22,0.22,-14.81,-8.13,-28.31,1203.24,1759.0,0.0,0.0,0.0,0.0
1775764512401160489,24916,0.0,1.3,0.024,0.3,-0.04,-0.06,-0.12,-2.13,-4.13,-1.17,-0.78,-0.96,16.5,3.38,-9.44,1222.11,1911.0,0.0,0.0,0.0,0.0
1775764512503561539,25017,0.0,1.4,0.024,0.2,0.08,0.04,-1.0,-2.69,-3.13,-0.17,-0.97,-0.31,7.38,4.06,-8.81,1229.31,1911.0,0.0,0.0,0.0,0.0
1775764512601883492,25118,0.0,1.2,0.0,1.2,0.08,-0.27,-1.37,-3.25,-2.56,-0.61,-0.41,-0.52,-4.81,-3.31,0.06,1234.46,387.0,0.0,0.0,0.0,0.0
1775764512704276043,25218,0.024,0.2,0.012,0.5,0.12,-0.16,-1.0,-3.5,-2.69,-0.4,-0.21,-0.19,-4.38,0.25,5.19,1301.17,980.0,0.0,0.0,0.0,0.0
1775764512802564592,25318,0.0,0.8,0.008,0.1,-0.04,-0.27,-0.5,-3.56,-3.19,0.02,-0.44,-0.3,-9.56,-3.44,7.44,1266.36,980.0,0.0,0.0,0.0,0.0
1775764512900834438,25417,0.0,1.0,0.0,0.5,-0.14,-0.1,1.25,-3.13,-3.88,-0.43,-0.06,-0.5,-6.19,-9.88,22.5,1219.36,1101.0,0.0,0.0,0.0,0.0
1775764513003252339,25517,0.0,0.7,0.0,0.2,0.0,-0.18,3.31,-2.63,-3.94,-0.27,-0.13,-0.52,-4.13,-3.94,18.31,1250.75,2255.0,0.0,0.0,0.0,0.0
1775764513101546323,25617,0.0,0.8,0.012,0.5,-0.08,-0.2,4.94,-2.38,-4.5,-0.12,0.08,-0.28,-9.13,-5.25,15.13,1271.84,2255.0,0.0,0.0,0.0,0.0
1775764513203927088,25717,0.0,0.9,0.048,0.5,0.16,-0.18,6.56,-1.63,-5.31,0.1,0.44,-0.51,-7.88,-13.31,22.94,1302.89,1642.0,0.0,0.0,0.0,0.0
1775764513306327389,25818,0.0,1.0,0.04,0.3,0.06,-0.14,9.13,-0.5,-5.63,-0.21,0.33,-0.54,-1.69,-8.06,27.81,1251.44,1642.0,0.0,0.0,0.0,0.0
1775764513404567525,25919,0.0,0.9,0.02,0.3,0.1,-0.21,12.13,-0.0,-5.56,-0.15,0.1,-0.39,0.37,-4.44,28.94,1259.67,1660.0,0.0,0.0,0.0,0.0
1775764513502862806,26018,0.0,1.0,0.02,0.3,0.0,-0.2,14.5,0.19,-5.38,-0.27,0.12,-0.42,2.13,-4.81,25.06,1304.6,1137.0,0.0,0.0,0.0,0.0
1775764513605294845,26118,0.0,0.7,0.012,0.3,0.0,-0.04,16.75,0.37,-5.19,-0.04,-0.06,-0.39,1.75,-3.5,20.25,1289.68,1137.0,0.0,0.0,0.0,0.0
1775764513703591107,26219,0.028,0.1,0.0,1.5,0.02,-0.06,18.56,0.56,-4.88,-0.11,-0.03,-0.22,3.75,-3.69,16.62,1258.47,2353.0,0.0,0.0,0.0,0.0
1775764513805969724,26318,0.0,1.5,0.004,0.3,0.04,-0.1,20.06,0.81,-4.69,-0.1,0.02,-0.31,-1.75,-3.31,12.38,1246.98,2271.0,0.0,0.0,0.0,0.0
1775764513904264542,26419,0.0,1.2,0.0,0.2,-0.04,-0.04,20.94,0.94,-5.0,0.09,-0.08,-0.34,-2.88,-2.06,6.06,1257.09,2271.0,0.0,0.0,0.0,0.0
1775764514143591233,26519,0.0,1.1,0.004,1.0,-0.08,-0.2,21.44,1.19,-5.25,0.01,0.03,-0.28,-1.0,-3.13,4.25,1292.42,2645.0,0.0,0.0,0.0,0.0
1775764514207353685,26618,0.0,0.9,0.0,0.1,0.02,-0.08,21.81,1.44,-5.38,-0.09,0.03,-0.27,-2.31,-1.81,2.06,1319.86,2121.0,0.0,0.0,0.0,0.0
1775764514220331711,26719,0.0,0.9,0.052,0.2,-0.02,-0.27,21.87,1.44,-5.56,0.06,-0.04,-0.44,-0.81,0.56,-1.31,1261.55,2121.0,0.0,0.0,0.0,0.0
1775764514305607053,26819,0.0,0.6,0.04,0.3,-0.18,-0.06,21.62,1.44,-5.56,0.0,-0.03,-0.36,1.94,0.69,-3.13,1260.7,1899.0,0.0,0.0,0.0,0.0
1775764514407969755,26919,0.0,1.1,0.024,0.5,-0.04,-0.16,21.25,1.5,-5.38,0.02,0.1,-0.28,1.88,-0.12,-4.06,1288.99,1899.0,0.0,0.0,0.0,0.0
1775764514506291638,27020,0.028,0.2,0.0,1.5,-0.02,-0.1,20.87,1.44,-5.19,0.01,0.01,-0.34,1.44,0.63,-4.38,1258.64,2223.0,0.0,0.0,0.0,0.0
1775764514608703891,27120,0.036,0.9,0.008,0.1,-0.1,-0.04,20.44,1.5,-5.0,-0.03,0.08,-0.35,2.19,0.81,-4.31,1304.26,908.0,0.0,0.0,0.0,0.0
1775764514707002164,27220,0.0,1.3,0.012,0.2,-0.1,-0.33,20.12,1.44,-4.81,-0.06,0.1,-0.24,1.37,0.88,-2.63,1274.42,908.0,0.0,0.0,0.0,0.0
1775764514809399548,27321,0.0,1.2,0.008,0.7,-0.06,-0.16,19.94,1.31,-4.81,0.07,0.01,-0.3,-1.0,0.81,-0.56,1266.18,1993.0,0.0,0.0,0.0,0.0
1775764514963588508,27421,0.0,1.3,0.0,0.3,-0.12,-0.2,19.94,1.25,-4.88,0.05,0.03,-0.35,-0.31,1.56,-0.19,1292.25,1157.0,0.0,0.0,0.0,0.0
1775764515005929673,27521,0.0,1.2,0.0,0.2,-0.02,-0.2,19.87,1.06,-4.88,-0.03,-0.03,-0.36,-0.63,1.56,-0.19,1256.41,1157.0,0.0,0.0,0.0,0.0
1775764515108364953,27621,0.0,1.1,0.008,0.5,-0.1,-0.08,19.87,1.0,-4.94,0.05,-0.01,-0.35,-0.37,0.31,-0.69,1290.88,2037.0,0.0,0.0,0.0,0.0
1775764515206654441,27721,0.0,1.2,0.056,0.3,-0.02,-0.08,19.75,1.0,-4.88,-0.02,0.03,-0.32,0.94,-0.06,-1.37,1269.44,2893.0,0.0,0.0,0.0,0.0
1775764515309070964,27822,0.0,1.4,0.044,0.3,-0.12,-0.1,19.69,1.0,-4.94,-0.01,-0.11,-0.33,-1.88,-0.5,-0.88,1273.9,2893.0,0.0,0.0,0.0,0.0
1775764515407293661,27922,0.0,1.3,0.024,0.2,0.08,-0.14,19.62,1.12,-5.19,0.05,-0.03,-0.32,-2.44,-0.5,-1.0,1321.75,1876.0,0.0,0.0,0.0,0.0
1775764515509703498,28021,0.0,1.3,0.02,0.2,0.0,-0.16,19.37,1.12,-5.38,-0.04,-0.14,-0.4,-2.44,-1.19,-2.75,1302.2,567.0,0.0,0.0,0.0,0.0
1775764515608026466,28122,0.0,1.4,0.0,0.2,-0.02,-0.1,19.12,1.25,-5.56,0.07,-0.0,-0.42,-1.19,-0.37,-3.31,1333.07,567.0,0.0,0.0,0.0,0.0
1775764515710409305,28222,0.0,1.3,0.012,0.4,0.08,-0.21,18.81,1.31,-5.5,-0.02,0.02,-0.41,0.88,0.25,-2.56,1261.9,1844.0,0.0,0.0,0.0,0.0
1775764515808704071,28321,0.0,1.3,0.008,0.2,-0.02,-0.1,18.5,1.25,-5.38,0.09,-0.03,-0.34,1.0,1.06,-3.0,1260.53,1844.0,0.0,0.0,0.0,0.0
1775764515931591592,28421,0.0,1.3,0.008,0.3,0.02,-0.2,18.31,1.19,-5.38,-0.01,-0.06,-0.36,-0.37,1.31,-2.69,1255.72,2114.0,0.0,0.0,0.0,0.0
1775764516009383102,28522,0.032,0.1,0.0,0.9,-0.14,-0.04,18.0,1.19,-5.44,0.11,-0.0,-0.38,-0.69,0.44,-3.69,1276.99,1372.0,0.0,0.0,0.0,0.0
1775764516107678935,28621,0.0,0.9,0.008,0.4,-0.04,-0.08,17.62,1.19,-5.44,0.08,0.01,-0.36,0.5,0.06,-2.81,1270.81,1372.0,0.0,0.0,0.0,0.0
1775764516210075802,28721,0.0,0.9,0.052,0.1,-0.14,-0.04,17.37,1.19,-5.31,0.24,0.02,-0.43,2.13,1.12,-2.81,1278.88,814.0,0.0,0.0,0.0,0.0
1775764516308357154,28822,0.06,0.0,0.0,1.6,0.02,-0.06,17.06,1.12,-5.25,0.35,-0.02,-0.5,3.69,-0.0,-2.81,1319.18,682.0,0.0,0.0,0.0,0.0
1775764516410700322,28921,0.0,1.2,0.032,0.1,-0.12,-0.08,16.81,1.12,-5.31,0.61,-0.0,-0.55,8.88,0.81,-2.13,1257.09,682.0,0.0,0.0,0.0,0.0
1775764516509005690,29022,0.0,1.3,0.024,0.3,-0.08,-0.12,16.62,1.12,-5.13,0.34,0.35,-0.85,17.37,5.5,-2.5,1308.03,2007.0,0.0,0.0,0.0,0.0
1775764516611442166,29122,0.0,1.3,0.012,0.2,-0.02,-0.16,16.5,0.31,-2.75,0.07,0.19,-1.84,36.63,11.38,-0.12,1214.91,2007.0,0.0,0.0,0.0,0.0
1775764516709722888,29222,0.0,1.5,0.008,0.3,-0.04,-0.12,16.31,-0.63,-0.12,-0.45,-0.08,-2.25,17.5,8.13,-4.25,1175.12,2199.0,0.0,0.0,0.0,0.0
1775764516808061217,29322,0.0,1.3,0.012,0.1,0.16,-0.18,15.69,-1.37,1.0,-0.28,-0.08,-1.87,3.81,5.94,-9.88,1153.51,2144.0,0.0,0.0,0.0,0.0
1775764516910425846,29421,0.0,1.4,0.004,0.1,-0.02,-0.16,14.81,-1.63,1.25,-0.71,0.14,-1.82,-1.25,-2.69,-8.56,1153.34,2144.0,0.0,0.0,0.0,0.0
1775764517008705032,29521,0.0,1.3,0.0,0.3,0.0,-0.1,13.56,-1.56,0.94,-0.75,-0.27,-1.49,-5.63,-1.81,-14.5,1008.25,2072.0,0.0,0.0,0.0,0.0
1775764517111081929,29622,0.0,1.4,0.016,0.2,-0.04,-0.16,12.19,-0.94,0.12,-0.7,-0.47,-0.87,-10.0,-8.25,-11.19,915.81,1105.0,0.0,0.0,0.0,0.0
1775764517209383402,29722,0.0,1.3,0.048,0.5,0.04,-0.14,11.19,0.31,-0.75,-0.46,-0.52,-0.36,-8.88,-18.12,-8.81,841.38,1105.0,0.0,0.0,0.0,0.0
1775764517307685468,29821,0.0,1.5,0.056,0.2,0.1,-0.02,10.38,2.88,-1.31,-0.39,-0.52,0.57,-1.69,-26.87,-8.94,766.6,1485.0,0.0,0.0,0.0,0.0
1775764517410063032,29921,0.0,1.3,0.036,0.2,-0.12,-0.06,9.56,4.94,-0.94,0.29,0.63,-0.24,20.19,-14.13,-7.81,684.11,1926.0,0.0,0.0,0.0,0.0
1775764517508326156,30020,0.0,1.4,0.02,0.2,0.06,-0.2,8.44,5.44,0.31,0.21,0.71,0.37,19.12,6.5,-14.19,585.5,1926.0,0.0,0.0,0.0,0.0
1775764517606650405,30119,0.0,1.3,0.02,0.3,0.0,-0.18,7.38,4.31,2.31,-0.05,0.31,0.89,20.81,13.88,-9.94,517.42,696.0,0.0,0.0,0.0,0.0
1775764517709030302,30220,0.0,1.2,0.012,0.4,0.02,-0.06,6.75,3.25,3.81,-0.15,0.13,0.51,6.63,5.31,-3.06,479.51,467.0,0.0,0.0,0.0,0.0
1775764517947615221,30321,0.0,1.2,0.016,0.4,-0.08,-0.04,6.5,2.94,3.81,-0.4,0.58,0.6,-7.19,1.06,-1.25,398.05,467.0,0.0,0.0,0.0,0.0
1775764517999821132,30420,0.0,1.5,0.0,1.3,0.1,0.06,6.19,2.0,3.06,-0.49,0.45,0.38,-10.19,14.88,-5.25,11953.89,374.0,0.0,0.0,0.0,0.0
1775764518011662192,30520,0.016,0.0,0.0,1.0,-0.1,-0.14,5.88,0.63,2.19,-0.36,-0.52,0.5,-8.31,15.63,-0.19,11953.72,290.0,0.0,0.0,0.0,0.0
1775764518118340341,30620,0.0,1.0,0.008,0.3,0.0,-0.16,6.13,0.12,1.81,-0.32,-0.31,0.43,2.44,-0.75,3.63,11953.55,290.0,0.0,0.0,0.0,0.0
1775764518210613304,30721,0.0,1.0,0.052,0.0,-0.14,-0.1,6.38,-0.12,2.63,-0.28,0.18,-0.7,15.19,9.25,-2.13,11955.44,307.0,0.0,0.0,0.0,0.0
1775764518311067538,30821,0.0,1.1,0.032,0.2,-0.16,0.02,5.81,-0.94,4.81,-0.35,0.27,0.2,30.5,3.69,-8.38,11952.69,199.0,0.0,0.0,0.0,0.0
1775764518409344876,30921,0.0,0.9,0.032,0.3,0.14,-0.14,5.38,-2.19,4.31,-0.8,0.47,0.94,-27.69,-8.19,1.37,176.47,199.0,0.0,0.0,0.0,0.0
1775764518519630631,31021,0.0,0.9,0.024,0.2,0.0,-0.04,5.38,-1.69,2.13,1.63,-0.5,-0.5,-5.88,-5.63,1.12,11951.66,174.0,0.0,0.0,0.0,0.0
1775764518610071228,31121,0.0,1.0,0.0,1.3,0.1,-0.18,5.5,-1.5,2.88,-1.67,-0.25,-0.36,5.0,-1.25,1.0,193.8,174.0,0.0,0.0,0.0,0.0
1775764518708357232,31221,0.0,1.3,0.008,0.5,0.0,-0.02,5.5,-1.5,2.88,-0.1,-0.08,-0.41,1.0,1.63,0.63,189.68,163.0,0.0,0.0,0.0,0.0
1775764518810748843,31321,0.0,1.5,0.004,0.4,-0.02,0.0,5.5,-1.56,2.81,-0.01,0.04,-0.36,0.25,-0.56,-0.19,185.56,163.0,0.0,0.0,0.0,0.0
1775764518921058763,31422,0.0,1.4,0.008,0.3,-0.08,-0.12,5.5,-1.56,2.88,-0.07,-0.09,-0.39,-0.25,-0.12,-0.12,11953.72,180.0,0.0,0.0,0.0,0.0
1775764519011430236,31522,0.0,1.4,0.008,0.5,-0.04,-0.14,5.5,-1.63,2.88,-0.09,-0.09,-0.4,-0.19,0.44,0.0,193.8,154.0,0.0,0.0,0.0,0.0
1775764519121735683,31623,0.0,1.1,0.012,0.5,-0.04,-0.18,5.5,-1.63,2.94,-0.11,-0.03,-0.4,-0.0,0.06,0.0,11954.24,166.0,0.0,0.0,0.0,0.0
1775764519214113189,31723,0.0,1.4,0.06,0.3,0.1,-0.06,5.5,-1.63,3.0,-0.11,-0.04,-0.38,0.12,-0.06,-0.12,11953.55,166.0,0.0,0.0,0.0,0.0
1775764519310500178,31823,0.0,1.3,0.04,0.2,0.14,-0.1,5.5,-1.69,3.0,-0.1,-0.03,-0.39,-0.0,-0.19,-0.06,11951.32,182.0,0.0,0.0,0.0,0.0
1775764519435568410,31923,0.0,1.0,0.0,1.3,-0.16,-0.08,5.5,-1.69,3.0,-0.06,-0.04,-0.36,0.06,-0.12,0.0,11951.83,169.0,0.0,0.0,0.0,0.0
1775764519513105081,32023,0.0,1.1,0.032,0.1,0.04,-0.16,5.5,-1.69,3.06,-0.06,-0.05,-0.36,0.12,0.19,-0.06,11951.66,169.0,0.0,0.0,0.0,0.0
1775764519621391936,32123,0.0,0.8,0.02,0.3,-0.04,-0.04,5.5,-1.69,3.06,-0.07,-0.03,-0.37,-0.0,-0.0,-0.06,11951.83,164.0,0.0,0.0,0.0,0.0
1775764519713715149,32223,0.0,0.9,0.024,1.0,-0.06,-0.12,5.5,-1.75,3.13,-0.08,-0.02,-0.38,0.06,-0.06,-0.06,11950.98,177.0,0.0,0.0,0.0,0.0
1775764519814133971,32323,0.012,0.2,0.012,0.3,-0.02,0.02,5.5,-1.75,3.13,-0.06,-0.04,-0.39,-0.0,-0.0,-0.06,11952.86,177.0,0.0,0.0,0.0,0.0
1775764519920372810,32423,0.0,1.4,0.008,0.5,-0.02,-0.08,5.5,-1.75,3.13,-0.07,-0.03,-0.4,0.06,-0.0,0.0,11950.63,169.0,0.0,0.0,0.0,0.0
1775764520119592599,32523,0.0,1.4,0.008,0.3,-0.08,-0.1,5.5,-1.75,3.13,-0.06,-0.04,-0.37,0.06,-0.06,0.0,11952.01,169.0,0.0,0.0,0.0,0.0
1775764520132132489,32623,0.0,1.4,0.0,0.3,0.1,-0.12,5.5,-1.75,3.13,-0.06,-0.02,-0.37,-0.06,0.12,0.0,11952.69,170.0,0.0,0.0,0.0,0.0
1775764520211451249,32723,0.0,1.5,0.056,0.5,-0.04,-0.2,5.5,-1.75,3.13,-0.06,-0.04,-0.38,0.12,-0.12,0.0,180.76,170.0,0.0,0.0,0.0,0.0
1775764520313776757,32823,0.0,1.3,0.048,0.4,0.08,0.0,5.5,-1.75,3.13,-0.06,-0.03,-0.39,-0.0,-0.0,0.0,11951.49,194.0,0.0,0.0,0.0,0.0
1775764520418089600,32923,0.0,1.1,0.04,0.2,-0.08,-0.2,5.5,-1.75,3.13,-0.05,-0.03,-0.38,-0.0,0.06,0.06,11953.21,176.0,0.0,0.0,0.0,0.0
1775764520522420496,33024,0.0,1.5,0.0,0.2,0.04,-0.04,5.5,-1.75,3.13,-0.05,-0.03,-0.36,0.12,-0.06,0.0,11952.01,183.0,0.0,0.0,0.0,0.0
1775764520614782035,33124,0.0,1.0,0.028,0.2,0.02,-0.16,5.5,-1.75,3.13,-0.07,-0.05,-0.41,-0.06,-0.0,0.06,11953.21,183.0,0.0,0.0,0.0,0.0
1775764520723116767,33224,0.0,1.0,0.012,0.2,0.04,-0.04,5.5,-1.75,3.13,-0.06,-0.02,-0.38,0.06,0.12,-0.06,11954.92,175.0,0.0,0.0,0.0,0.0
1775764520815365925,33325,0.0,1.0,0.012,0.6,0.04,-0.27,5.5,-1.75,3.13,-0.07,-0.03,-0.37,0.06,-0.06,0.06,11952.52,177.0,0.0,0.0,0.0,0.0
1775764520915867271,33425,0.0,1.0,0.012,0.3,0.14,-0.21,5.5,-1.75,3.13,-0.08,-0.01,-0.39,0.06,-0.06,0.0,219.01,177.0,0.0,0.0,0.0,0.0
1775764521016088839,33525,0.0,0.6,0.0,1.2,-0.14,-0.12,5.5,-1.75,3.13,-0.04,-0.01,-0.38,-0.06,0.12,0.0,11953.38,177.0,0.0,0.0,0.0,0.0
1775764521124444522,33625,0.012,0.3,0.0,0.2,0.02,-0.02,5.5,-1.75,3.13,-0.05,-0.03,-0.39,-0.0,0.06,-0.06,11952.52,177.0,0.0,0.0,0.0,0.0
1775764521214837276,33725,0.0,1.3,0.048,0.1,-0.04,-0.06,5.5,-1.75,3.13,-0.05,-0.03,-0.37,-0.0,0.12,0.0,246.96,160.0,0.0,0.0,0.0,0.0
1775764521313237660,33824,0.0,1.5,0.044,0.7,0.02,-0.14,5.5,-1.75,3.13,-0.06,-0.03,-0.4,0.06,0.19,0.0,11952.69,179.0,0.0,0.0,0.0,0.0
1775764521411346121,33924,0.0,1.4,0.0,1.1,-0.1,-0.04,5.5,-1.75,3.13,-0.06,-0.03,-0.37,0.06,0.06,0.0,11953.55,179.0,0.0,0.0,0.0,0.0
1775764521515669473,34023,0.04,0.2,0.0,1.0,-0.08,-0.1,5.5,-1.75,3.13,-0.05,-0.03,-0.36,0.06,-0.12,-0.06,11954.41,183.0,0.0,0.0,0.0,0.0
1775764521614012713,34123,0.0,1.1,0.016,0.3,0.02,-0.12,5.5,-1.75,3.13,-0.06,-0.02,-0.37,-0.06,-0.19,0.06,11954.58,158.0,0.0,0.0,0.0,0.0
1775764521927600484,34223,0.0,0.8,0.012,0.2,-0.02,-0.06,5.5,-1.75,3.13,-0.08,-0.03,-0.38,-0.0,-0.06,0.0,11955.44,158.0,0.0,0.0,0.0,0.0
1775764521940323820,34323,0.0,0.9,0.012,0.1,0.06,-0.16,5.5,-1.75,3.13,-0.05,-0.03,-0.37,0.06,-0.0,-0.06,11951.49,181.0,0.0,0.0,0.0,0.0
1775764522001186445,34423,0.0,1.0,0.0,1.5,-0.02,-0.16,5.5,-1.75,3.13,-0.04,-0.03,-0.4,0.06,-0.19,0.0,205.8,181.0,0.0,0.0,0.0,0.0
1775764522014101821,34523,0.012,0.3,0.0,1.4,-0.1,-0.16,5.5,-1.75,3.13,-0.06,-0.01,-0.4,0.06,-0.06,0.0,11952.86,168.0,0.0,0.0,0.0,0.0
1775764522115832562,34623,0.016,0.1,0.0,1.5,0.06,-0.14,5.5,-1.75,3.13,-0.05,-0.02,-0.36,-0.0,0.12,0.0,231.35,168.0,0.0,0.0,0.0,0.0
1775764522214161537,34723,0.06,0.2,0.0,0.3,-0.04,-0.02,5.5,-1.75,3.13,-0.04,-0.02,-0.39,-0.06,-0.06,0.06,227.07,188.0,0.0,0.0,0.0,0.0
1775764522316514343,34824,0.0,1.2,0.0,0.9,-0.04,-0.18,5.5,-1.75,3.13,-0.04,-0.02,-0.37,-0.0,0.19,0.0,248.16,176.0,0.0,0.0,0.0,0.0
1775764522414801636,34924,0.032,0.4,0.0,1.1,-0.21,0.04,5.5,-1.75,3.13,-0.06,-0.02,-0.37,0.12,-0.12,0.0,201.51,176.0,0.0,0.0,0.0,0.0
1775764522513088837,35024,0.032,0.4,0.036,1.4,0.02,-0.06,5.5,-1.75,3.13,-0.05,-0.03,-0.37,-0.25,-0.0,0.06,218.32,179.0,0.0,0.0,0.0,0.0
1775764522615540413,35124,0.0,1.3,0.0,1.2,0.0,-0.08,5.5,-1.75,3.13,-0.05,-0.03,-0.38,-0.06,-0.12,0.12,235.47,184.0,0.0,0.0,0.0,0.0
1775764522713820152,35224,0.02,0.1,0.0,1.1,-0.06,-0.08,5.5,-1.75,3.13,-0.05,-0.03,-0.38,-0.0,-0.06,0.06,197.4,184.0,0.0,0.0,0.0,0.0
1775764522812336983,35323,0.02,0.0,0.0,1.2,0.02,-0.2,5.5,-1.75,3.13,-0.05,-0.03,-0.39,-0.06,-0.0,0.06,197.4,169.0,0.0,0.0,0.0,0.0
1775764522914511691,35423,0.0,0.2,0.0,1.2,-0.1,-0.23,5.5,-1.75,3.13,-0.02,-0.05,-0.39,-0.06,-0.12,-0.06,230.32,169.0,0.0,0.0,0.0,0.0
1775764523012786096,35523,0.0,1.3,0.008,0.2,0.08,-0.08,5.5,-1.75,3.13,-0.04,-0.02,-0.39,-0.0,-0.12,0.0,214.03,176.0,0.0,0.0,0.0,0.0
1775764523115171263,35623,0.0,1.4,0.008,0.3,0.02,0.0,5.5,-1.75,3.13,-0.05,-0.03,-0.38,-0.25,0.12,0.06,227.24,176.0,0.0,0.0,0.0,0.0
1775764523213525712,35723,0.0,1.4,0.056,0.3,0.0,-0.12,5.5,-1.75,3.13,-0.04,-0.04,-0.36,-0.0,0.06,0.06,231.52,176.0,0.0,0.0,0.0,0.0
1775764523315831348,35823,0.0,1.4,0.04,0.5,0.0,-0.02,5.5,-1.75,3.13,-0.04,-0.03,-0.4,0.06,0.06,0.0,11952.01,179.0,0.0,0.0,0.0,0.0
1775764523414124431,35923,0.0,1.4,0.032,0.3,0.02,-0.14,5.5,-1.75,3.13,-0.05,-0.04,-0.41,-0.12,0.25,0.0,238.73,171.0,0.0,0.0,0.0,0.0
1775764523524392085,36024,0.0,1.1,0.028,0.4,-0.04,-0.16,5.5,-1.75,3.13,-0.05,-0.01,-0.38,0.06,0.06,0.0,11952.35,181.0,0.0,0.0,0.0,0.0
1775764523616827845,36124,0.0,1.3,0.016,0.2,-0.06,-0.14,5.5,-1.75,3.13,-0.07,-0.02,-0.38,-0.06,-0.06,0.06,11953.38,181.0,0.0,0.0,0.0,0.0
1775764523725132108,36225,0.0,0.9,0.016,0.5,-0.08,-0.08,5.5,-1.75,3.13,-0.04,-0.03,-0.38,0.06,-0.19,0.0,11950.63,175.0,0.0,0.0,0.0,0.0
1775764523815589534,36325,0.0,0.2,0.0,1.5,0.04,-0.14,5.5,-1.75,3.13,-0.05,-0.04,-0.37,-0.0,-0.0,0.0,235.47,175.0,0.0,0.0,0.0,0.0
1775764523917903540,36425,0.0,1.3,0.0,1.1,-0.04,-0.02,5.5,-1.75,3.13,-0.05,-0.02,-0.38,-0.0,-0.19,0.0,235.47,171.0,0.0,0.0,0.0,0.0
1775764524024110290,36525,0.02,0.3,0.0,1.1,-0.06,0.0,5.5,-1.75,3.13,-0.06,-0.03,-0.39,0.06,-0.12,0.0,11950.29,176.0,0.0,0.0,0.0,0.0
1775764524116400445,36625,0.0,0.9,0.0,0.0,0.14,-0.12,5.5,-1.75,3.13,-0.07,-0.03,-0.36,0.06,-0.06,-0.06,11949.95,166.0,0.0,0.0,0.0,0.0
1775764524355580397,36725,0.0,1.0,0.052,0.5,0.0,-0.12,5.5,-1.75,3.13,-0.06,-0.03,-0.37,-0.0,-0.06,-0.06,11952.01,166.0,0.0,0.0,0.0,0.0
1775764524405271200,36826,0.0,1.1,0.04,0.5,-0.04,-0.1,5.5,-1.75,3.13,-0.05,-0.03,-0.38,0.12,0.06,0.0,11951.49,175.0,0.0,0.0,0.0,0.0
1775764524419463713,36926,0.0,0.9,0.032,0.3,-0.02,-0.12,5.5,-1.75,3.13,-0.08,-0.01,-0.36,0.06,0.06,0.0,11953.21,175.0,0.0,0.0,0.0,0.0
1775764524525905015,37026,0.0,0.7,0.024,0.4,-0.08,-0.2,5.5,-1.75,3.13,-0.05,-0.02,-0.38,0.12,-0.0,0.12,238.73,174.0,0.0,0.0,0.0,0.0
1775764524626155761,37127,0.0,0.6,0.0,1.5,-0.08,-0.04,5.5,-1.75,3.13,-0.05,-0.03,-0.39,0.12,0.12,-0.06,11950.12,155.0,0.0,0.0,0.0,0.0
1775764524755620637,37227,0.016,0.0,0.0,1.1,-0.02,-0.12,5.5,-1.75,3.13,-0.05,-0.02,-0.36,-0.0,0.06,0.0,11952.86,155.0,0.0,0.0,0.0,0.0
1775764524818923108,37327,0.008,0.1,0.0,0.9,-0.02,-0.06,5.5,-1.75,3.13,-0.06,-0.01,-0.38,-0.19,-0.06,0.0,180.76,185.0,0.0,0.0,0.0,0.0
1775764524917179373,37427,0.0,1.3,0.008,0.2,0.04,-0.14,5.5,-1.75,3.13,-0.06,-0.02,-0.4,-0.0,-0.0,0.06,180.76,185.0,0.0,0.0,0.0,0.0
1775764525019656397,37527,0.0,1.3,0.0,0.1,0.08,-0.1,5.5,-1.75,3.13,-0.04,-0.03,-0.4,0.12,-0.06,-0.12,180.76,181.0,0.0,0.0,0.0,0.0
1775764525117910046,37627,0.0,1.2,0.016,0.6,-0.04,-0.1,5.5,-1.75,3.13,-0.04,-0.02,-0.4,-0.06,-0.19,0.0,184.88,181.0,0.0,0.0,0.0,0.0
1775764525220300754,37728,0.0,1.2,0.048,0.4,0.0,-0.2,5.5,-1.75,3.13,-0.05,-0.03,-0.36,-0.06,0.12,0.0,193.28,170.0,0.0,0.0,0.0,0.0
1775764525322631394,37829,0.0,1.1,0.044,0.5,-0.06,-0.21,5.5,-1.75,3.13,-0.05,-0.03,-0.36,0.06,0.19,-0.06,193.28,161.0,0.0,0.0,0.0,0.0
1775764525420925613,37928,0.0,0.9,0.032,0.4,0.0,-0.06,5.5,-1.75,3.13,-0.04,-0.02,-0.39,-0.0,0.06,0.06,201.68,161.0,0.0,0.0,0.0,0.0
1775764525519215537,38028,0.0,1.0,0.048,0.3,0.06,-0.2,5.5,-1.75,3.13,-0.06,-0.04,-0.38,-0.0,0.06,-0.06,200.48,175.0,0.0,0.0,0.0,0.0
1775764525621713294,38129,0.0,1.0,0.02,0.3,0.08,-0.14,5.5,-1.75,3.13,-0.05,-0.03,-0.4,0.06,-0.0