timestamp_ns,time_ms,voltage_left,current_left_ma,voltage_right,current_right_ma,motor_current_left,motor_current_right,euler_x,euler_y,euler_z,acc_lin_x,acc_lin_y,acc_lin_z,gyro_x,gyro_y,gyro_z,sonar_mm,tof_mm,rpm_left,rpm_right,rotations_left,rotations_right
1776358615752295215,174559,0.004,0.2,0.0,1.2,0.12,-0.29,-66.69,-3.31,2.44,0.12,0.03,-0.34,-0.0,-0.0,0.12,,-0.06,0.06,11935.37,193.0,0.0
1776358618570659910,174559,0.004,0.2,0.0,1.2,0.12,-0.29,-66.69,-3.31,2.44,0.12,0.03,-0.34,-0.0,-0.0,0.12,,,,,,
1776358618660535210,1903,0.016,0.4,0.0,0.4,-0.02,-0.04,0.06,-3.13,1.63,0.0,0.02,-0.34,-0.06,0.12,-0.06,11937.26,188.0,0.0,0.0,0.0,0.0
1776358618863216072,2003,0.0,0.6,0.0,0.3,0.04,-0.31,0.06,-3.13,1.63,0.01,-0.0,-0.37,-0.0,-0.06,0.0,11936.23,194.0,0.0,0.0,0.0,0.0
1776358618876879165,2103,0.0,0.7,0.0,0.9,-0.06,-0.16,0.06,-3.13,1.63,0.01,-0.01,-0.36,-0.12,-0.0,-0.06,11934.51,188.0,0.0,0.0,0.0,0.0
1776358618959628840,2203,0.004,0.3,0.0,0.9,0.04,-0.23,0.06,-3.13,1.63,0.01,0.01,-0.39,0.06,-0.0,0.0,11935.89,188.0,0.0,0.0,0.0,0.0
1776358619066074319,2302,0.0,0.3,0.0,1.2,-0.12,0.02,0.06,-3.13,1.63,0.01,-0.0,-0.36,0.06,-0.0,0.0,251.93,192.0,0.0,0.0,0.0,0.0
1776358619158378467,2402,0.0,0.9,0.0,0.7,-0.04,-0.21,0.06,-3.13,1.63,0.0,0.03,-0.34,-0.0,-0.0,0.06,184.02,192.0,0.0,0.0,0.0,0.0
1776358619256671445,2502,0.052,0.3,0.0,0.9,0.0,-0.08,0.06,-3.13,1.63,0.0,0.03,-0.35,-0.0,-0.0,0.0,247.65,193.0,0.0,0.0,0.0,0.0
1776358619359101480,2603,0.04,0.1,0.0,0.7,-0.08,-0.06,0.06,-3.13,1.63,0.0,0.01,-0.37,0.12,-0.0,0.12,184.02,193.0,0.0,0.0,0.0,0.0
1776358619457422221,2703,0.0,0.5,0.032,1.0,-0.02,-0.14,0.06,-3.13,1.63,0.0,0.04,-0.34,0.06,-0.06,0.0,250.73,185.0,0.0,0.0,0.0,0.0
1776358619559785990,2803,0.0,0.1,0.0,0.8,-0.06,-0.18,0.06,-3.13,1.63,0.02,0.03,-0.34,-0.06,-0.19,-0.06,222.09,189.0,0.0,0.0,0.0,0.0
1776358619670136805,2904,0.02,0.1,0.0,0.9,0.06,-0.16,0.06,-3.13,1.63,0.0,0.02,-0.35,-0.12,0.06,0.0,11932.8,189.0,0.0,0.0,0.0,0.0
1776358619760552638,3004,0.0,1.1,0.0,0.2,-0.08,-0.06,0.06,-3.13,1.63,0.0,0.01,-0.36,-0.06,-0.06,-0.06,216.78,189.0,0.0,0.0,0.0,0.0
1776358619862948799,3105,0.0,0.5,0.0,1.2,0.04,-0.25,0.06,-3.13,1.63,0.0,-0.0,-0.36,-0.0,-0.06,0.0,251.93,195.0,0.0,0.0,0.0,0.0
1776358619983226295,3205,0.004,0.1,0.0,0.6,-0.06,-0.1,0.06,-3.13,1.63,0.0,-0.0,-0.36,0.12,0.06,0.0,221.06,195.0,0.0,0.0,0.0,0.0
1776358620063668386,3305,0.0,0.3,0.0,0.6,0.0,-0.16,0.06,-3.13,1.63,0.0,0.02,-0.36,0.06,-0.0,0.0,226.21,190.0,0.0,0.0,0.0,0.0
1776358620161976523,3405,0.004,0.3,0.0,1.4,0.0,-0.08,0.06,-3.13,1.63,0.0,0.01,-0.35,0.06,-0.0,-0.06,184.02,180.0,0.0,0.0,0.0,0.0
1776358620264401083,3506,0.052,0.7,0.0,0.8,-0.02,-0.18,0.06,-3.13,1.63,0.0,0.01,-0.37,-0.06,-0.06,0.06,208.54,180.0,0.0,0.0,0.0,0.0
1776358620362688219,3607,0.044,0.2,0.032,0.2,-0.04,-0.08,0.06,-3.13,1.63,0.0,-0.0,-0.36,0.06,-0.12,0.0,226.21,190.0,0.0,0.0,0.0,0.0
1776358620465092961,3706,0.028,0.1,0.0,1.0,0.02,-0.06,0.06,-3.13,1.63,0.0,-0.0,-0.37,0.19,-0.12,-0.06,230.5,190.0,0.0,0.0,0.0,0.0
1776358620563360539,3806,0.024,0.1,0.0,0.0,-0.02,-0.2,0.06,-3.13,1.63,0.0,0.03,-0.36,-0.0,0.19,-0.06,212.66,185.0,0.0,0.0,0.0,0.0
1776358620661696846,3906,0.0,1.0,0.0,0.9,0.02,-0.16,0.06,-3.13,1.63,-0.01,-0.0,-0.36,0.06,0.19,0.06,246.62,181.0,0.0,0.0,0.0,0.0
1776358620759983389,4005,0.012,0.2,0.0,0.7,-0.02,-0.2,0.06,-3.13,1.63,-0.01,-0.0,-0.36,-0.12,0.12,0.19,229.47,181.0,0.0,0.0,0.0,0.0
1776358620862440619,4105,0.008,0.1,0.0,0.5,0.02,-0.1,0.06,-3.13,1.63,0.01,0.03,-0.38,-0.06,-0.12,-0.06,246.62,194.0,0.0,0.0,0.0,0.0
1776358620964845825,4206,0.0,0.5,0.0,1.1,0.04,-0.08,0.06,-3.13,1.63,-0.01,0.02,-0.39,0.19,-0.0,0.0,184.02,190.0,0.0,0.0,0.0,0.0
1776358621063174241,4305,0.004,0.2,0.0,1.0,0.04,-0.21,0.06,-3.13,1.63,0.0,0.03,-0.36,0.06,-0.06,-0.06,184.02,190.0,0.0,0.0,0.0,0.0
1776358621211216294,4405,0.004,0.6,0.0,1.1,-0.06,-0.25,0.06,-3.13,1.63,0.0,-0.0,-0.37,-0.0,0.06,0.0,184.02,186.0,0.0,0.0,0.0,0.0
1776358621263886586,4505,0.048,0.2,0.0,1.0,-0.04,-0.12,0.06,-3.13,1.63,0.0,0.03,-0.35,0.06,0.06,0.0,201.17,191.0,0.0,0.0,0.0,0.0
1776358621362180696,4604,0.04,0.0,0.0,0.3,-0.08,-0.08,0.06,-3.13,1.63,0.0,0.02,-0.35,-0.0,-0.0,0.0,239.41,191.0,0.0,0.0,0.0,0.0
1776358621460430450,4704,0.032,0.0,0.0,0.9,-0.02,-0.21,0.06,-3.13,1.63,0.0,0.04,-0.38,-0.0,-0.0,0.0,179.73,188.0,0.0,0.0,0.0,0.0
1776358621562869557,4804,0.0,0.6,0.0,0.2,-0.06,-0.16,0.06,-3.13,1.63,0.02,0.03,-0.36,0.06,-0.12,0.0,182.99,190.0,0.0,0.0,0.0,0.0
1776358621663239036,4904,0.0,0.9,0.0,0.8,0.1,-0.18,0.06,-3.13,1.63,0.0,0.02,-0.36,-0.0,-0.0,-0.06,11932.8,198.0,0.0,0.0,0.0,0.0
1776358621867223878,5004,0.0,0.4,0.0,1.1,0.04,-0.08,0.06,-3.13,1.63,0.03,0.01,-0.35,0.06,-0.06,0.0,11935.89,198.0,0.0,0.0,0.0,0.0
1776358621881354215,5104,0.008,0.4,0.0,1.3,0.0,-0.02,0.06,-3.13,1.63,0.0,-0.0,-0.35,-0.06,0.06,0.0,251.93,198.0,0.0,0.0,0.0,0.0
1776358621962252048,5204,0.0,0.2,0.0,1.2,-0.06,-0.12,0.06,-3.13,1.63,-0.01,0.03,-0.33,0.12,-0.0,0.0,11934.68,189.0,0.0,0.0,0.0,0.0
1776358622062641808,5304,0.004,0.1,0.0,0.7,0.02,-0.2,0.06,-3.13,1.63,0.0,0.03,-0.35,-0.0,-0.06,0.12,255.02,193.0,0.0,0.0,0.0,0.0
1776358622165059979,5405,0.008,0.0,0.0,0.7,0.04,-0.12,0.06,-3.13,1.63,0.02,0.01,-0.34,-0.0,0.12,-0.06,192.94,193.0,0.0,0.0,0.0,0.0
1776358622263369123,5506,0.052,0.1,0.04,0.5,-0.08,-0.16,0.06,-3.13,1.63,0.01,0.03,-0.37,-0.06,-0.0,0.06,192.94,200.0,0.0,0.0,0.0,0.0
1776358622365804111,5607,0.044,0.0,0.0,1.0,-0.04,-0.18,0.06,-3.13,1.63,0.0,0.01,-0.36,0.06,-0.06,-0.12,183.85,184.0,0.0,0.0,0.0,0.0
1776358622464056674,5706,0.028,0.0,0.0,1.0,-0.06,-0.12,0.06,-3.13,1.63,0.01,0.01,-0.37,0.06,-0.19,-0.12,256.05,184.0,0.0,0.0,0.0,0.0
1776358622572472314,5807,0.0,0.8,0.012,0.3,-0.04,-0.29,0.06,-3.13,1.63,0.02,0.01,-0.34,-0.0,-0.0,0.0,11936.57,183.0,0.0,0.0,0.0,0.0
1776358622664875795,5907,0.016,0.0,0.0,0.6,0.02,-0.18,0.06,-3.13,1.63,0.0,0.02,-0.36,-0.06,-0.0,0.12,184.02,183.0,0.0,0.0,0.0,0.0
1776358622767214532,6007,0.0,0.6,0.004,0.6,0.04,-0.02,0.06,-3.13,1.63,0.0,-0.0,-0.35,-0.0,-0.06,0.0,226.38,187.0,0.0,0.0,0.0,0.0
1776358622873522782,6108,0.0,0.4,0.0,1.1,-0.06,-0.16,0.06,-3.13,1.63,0.02,0.01,-0.37,-0.06,-0.0,0.06,11934.51,193.0,0.0,0.0,0.0,0.0
1776358622967957052,6208,0.0,0.1,0.0,0.8,-0.1,-0.18,0.06,-3.13,1.63,0.0,-0.0,-0.38,0.06,-0.06,0.0,182.99,193.0,0.0,0.0,0.0,0.0
1776358623091226321,6307,0.0,0.6,0.0,0.4,0.0,-0.16,0.06,-3.13,1.63,0.02,0.01,-0.35,-0.12,-0.12,0.0,184.02,178.0,0.0,0.0,0.0,0.0
1776358623164545684,6407,0.0,0.4,0.008,1.0,0.08,-0.18,0.06,-3.13,1.63,0.0,0.01,-0.35,-0.0,-0.0,0.12,246.62,188.0,0.0,0.0,0.0,0.0
1776358623267030023,6507,0.056,0.1,0.0,1.1,0.08,-0.21,0.06,-3.13,1.63,0.0,0.03,-0.38,-0.06,-0.12,0.0,217.46,188.0,0.0,0.0,0.0,0.0
1776358623367295518,6607,0.0,0.6,0.032,0.1,-0.02,-0.16,0.06,-3.13,1.63,0.01,0.01,-0.38,-0.12,0.06,0.0,11936.23,194.0,0.0,0.0,0.0,0.0
1776358623467657004,6707,0.0,0.4,0.0,1.0,-0.08,-0.06,0.06,-3.13,1.63,0.0,-0.0,-0.37,-0.0,-0.0,0.06,259.31,191.0,0.0,0.0,0.0,0.0
1776358623567835007,6807,0.0,1.1,0.0,0.3,-0.1,-0.2,0.06,-3.13,1.63,0.01,-0.0,-0.37,-0.0,0.06,-0.06,11934.51,201.0,0.0,0.0,0.0,0.0
1776358623666361856,6907,0.016,0.4,0.0,0.8,0.08,-0.14,0.06,-3.13,1.63,0.02,0.01,-0.35,0.06,0.06,0.0,11933.48,201.0,0.0,0.0,0.0,0.0
1776358623774749779,7006,0.012,0.1,0.0,1.2,0.04,0.02,0.06,-3.13,1.63,0.0,0.02,-0.37,-0.06,-0.06,-0.06,11936.57,190.0,0.0,0.0,0.0,0.0
1776358623867044583,7106,0.008,0.1,0.0,0.7,-0.04,-0.12,0.06,-3.13,1.63,0.0,-0.0,-0.36,-0.06,0.06,0.12,11934.34,189.0,0.0,0.0,0.0,0.0
1776358623965427638,7206,0.008,0.1,0.0,1.0,0.0,-0.14,0.06,-3.13,1.63,0.01,0.01,-0.34,-0.0,-0.0,0.0,11934.51,189.0,0.0,0.0,0.0,0.0
1776358624067775814,7306,0.008,0.4,0.0,0.9,-0.04,-0.2,0.06,-3.13,1.63,0.01,0.01,-0.38,-0.0,0.06,0.06,11934.17,188.0,0.0,0.0,0.0,0.0
1776358624165987609,7406,0.008,0.3,0.0,0.1,-0.06,-0.27,0.06,-3.13,1.63,0.01,0.02,-0.35,-0.0,0.06,0.06,11935.03,188.0,0.0,0.0,0.0,0.0
1776358624268487168,7506,0.056,0.1,0.0,0.2,-0.12,-0.08,0.06,-3.13,1.63,-0.02,-0.01,-0.4,-0.81,-0.19,-0.12,11936.57,189.0,0.0,0.0,0.0,0.0
1776358624364854548,7606,0.0,0.3,0.0,0.6,0.0,-0.12,0.06,-3.13,1.63,0.03,0.02,-0.36,0.37,0.19,-0.06,11936.74,181.0,0.0,0.0,0.0,0.0
1776358624467199147,7706,0.024,0.3,0.0,1.0,-0.12,-0.12,-0.0,-3.13,1.69,-0.01,-0.05,-0.38,-0.44,-0.0,0.0,11937.94,181.0,0.0,0.0,0.0,0.0
1776358624567458934,7806,0.0,0.4,0.0,0.7,-0.08,-0.18,-0.0,-3.13,1.69,-0.01,0.03,-0.37,-0.06,0.06,-0.06,11935.37,187.0,0.0,0.0,0.0,0.0
1776358624669808866,7906,0.0,0.1,0.0,1.1,-0.04,-0.14,-0.0,-3.13,1.69,-0.04,0.05,-0.36,0.06,-0.06,0.12,11934.17,189.0,0.0,0.0,0.0,0.0
1776358624768286448,8006,0.0,0.9,0.0,0.7,0.06,-0.18,-0.0,-3.13,1.69,-0.01,0.11,-0.43,0.12,-0.19,0.06,11933.14,189.0,0.0,0.0,0.0,0.0
1776358624868624022,8107,0.0,0.3,0.0,1.2,-0.02,-0.08,-0.0,-3.13,1.69,0.01,0.02,-0.39,0.06,0.12,-0.06,230.5,189.0,0.0,0.0,0.0,0.0
1776358624968971726,8207,0.004,0.2,0.0,1.0,-0.29,-0.23,0.06,-3.13,1.63,-0.05,0.02,-0.39,-0.06,0.19,-0.12,11936.06,191.0,0.0,0.0,0.0,0.0
1776358625071360456,8307,0.0,0.9,0.0,0.3,0.06,-0.06,0.06,-3.13,1.63,0.05,-0.0,-0.34,0.25,-0.06,0.0,11937.26,192.0,0.0,0.0,0.0,0.0
1776358625187235794,8407,0.0,0.1,0.0,0.8,0.0,-0.16,0.06,-3.13,1.63,0.09,0.05,-0.33,0.44,-0.44,0.12,11934.51,191.0,0.0,0.0,0.0,0.0
1776358625278091453,8507,0.056,0.2,0.04,0.3,-0.2,-0.16,0.06,-3.25,1.69,0.22,0.69,0.17,0.56,4.5,-0.19,11935.54,191.0,0.0,0.0,0.0,0.0
1776358625368360126,8607,0.032,0.2,0.032,0.5,-0.08,-0.1,-0.25,-4.0,1.94,-0.62,0.28,0.3,1.56,9.44,-4.81,233.93,199.0,0.0,0.0,0.0,0.0
1776358625466619353,8707,0.0,0.6,0.0,1.0,0.1,-0.08,-0.69,-4.69,1.69,0.18,0.2,1.58,0.5,6.81,-6.5,264.45,199.0,0.0,0.0,0.0,0.0
1776358625576971004,8808,0.0,0.2,0.024,0.5,-0.2,-0.27,-1.69,-5.56,2.75,0.29,-0.11,2.54,22.31,8.06,-10.5,11935.03,205.0,0.0,0.0,0.0,0.0
1776358625669424349,8908,0.008,0.3,0.0,0.7,-0.06,-0.06,-2.75,-6.56,5.56,-0.41,-0.61,1.97,32.19,10.19,-7.81,11932.8,268.0,0.0,0.0,0.0,0.0
1776358625769795258,9008,0.0,0.7,0.0,1.1,-0.12,-0.12,-3.31,-6.88,7.94,-0.2,-0.4,1.2,18.87,-1.75,-3.06,11935.54,268.0,0.0,0.0,0.0,0.0
1776358625868109954,9108,0.0,-0.1,0.0,0.9,0.0,-0.16,-3.63,-6.25,8.69,0.04,-0.49,0.92,-0.25,-11.94,0.12,497.52,445.0,0.0,0.0,0.0,0.0
1776358625978547466,9208,0.0,0.3,0.0,0.9,-0.08,-0.2,-3.44,-5.31,7.63,0.05,-0.32,0.4,-19.5,-7.75,1.0,11933.31,820.0,0.0,0.0,0.0,0.0
1776358626068838181,9308,0.008,0.1,0.0,0.7,-0.12,-0.02,-3.25,-4.75,5.0,0.48,-0.4,-1.13,-30.19,-6.0,2.19,740.88,820.0,0.0,0.0,0.0,0.0
1776358626167118041,9408,0.016,0.4,0.016,1.1,0.1,-0.16,-2.69,-3.75,2.25,0.56,-0.48,-2.31,-26.25,-13.44,6.5,880.31,1030.0,0.0,0.0,0.0,0.0
1776358626269550350,9507,0.056,0.2,0.0,1.0,-0.06,-0.12,-1.81,-2.38,0.56,0.03,-0.36,-3.03,-13.63,-12.0,15.06,920.95,1030.0,0.0,0.0,0.0,0.0
1776358626495211639,9608,0.036,0.2,0.0,1.3,-0.14,-0.18,-0.25,-1.75,-0.31,-0.39,0.2,-2.47,-8.94,0.44,14.38,989.38,1538.0,0.0,0.0,0.0,0.0
1776358626504292580,9708,0.028,0.2,0.0,1.1,-0.06,-0.14,1.37,-2.31,-1.12,-0.23,0.33,-1.56,-11.06,6.13,17.69,1032.26,1932.0,0.0,0.0,0.0,0.0
1776358626568580717,9808,0.02,0.4,0.008,0.3,-0.04,-0.14,3.06,-2.25,-2.0,0.15,-0.0,-1.24,-7.06,-10.31,11.94,1090.74,1932.0,0.0,0.0,0.0,0.0
1776358626670974262,9908,0.02,0.0,0.0,1.0,-0.06,-0.21,3.88,-0.88,-2.5,0.22,0.64,-1.11,-2.19,-15.31,2.25,1098.97,988.0,0.0,0.0,0.0,0.0
1776358626771213918,10008,0.0,0.2,0.008,0.3,-0.02,-0.02,3.56,0.12,-2.5,-0.33,0.45,-0.62,-0.12,-5.31,-9.63,11933.14,1875.0,0.0,0.0,0.0,0.0
1776358626871709156,10108,0.0,0.3,0.0,0.5,0.1,-0.02,2.75,0.25,-2.56,-0.28,0.17,-0.46,-3.0,5.13,-6.0,1105.15,1875.0,0.0,0.0,0.0,0.0
1776358626971941293,10209,0.0,0.1,0.008,0.4,0.06,-0.2,2.13,-0.5,-2.63,-0.32,0.07,-0.41,-3.56,12.13,-5.38,11934.51,1177.0,0.0,0.0,0.0,0.0
1776358627072429346,10309,0.0,0.2,0.004,0.9,0.04,-0.16,1.69,-1.5,-2.88,-0.15,-0.01,-0.3,-3.13,8.25,-1.0,1112.35,1177.0,0.0,0.0,0.0,0.0
1776358627170731175,10408,0.004,0.2,0.0,0.5,0.1,-0.14,2.06,-1.88,-3.0,0.37,-0.15,-0.45,-0.25,-4.56,11.63,1130.01,1166.0,0.0,0.0,0.0,0.0
1776358627269022225,10509,0.052,0.1,0.0,0.7,0.06,-0.06,3.63,-1.5,-2.94,0.59,0.37,-0.61,4.56,-2.0,18.75,1180.26,331.0,0.0,0.0,0.0,0.0
1776358627371457703,10609,0.0,0.4,0.0,1.2,-0.04,-0.16,5.25,-1.5,-3.0,0.45,0.16,-0.91,10.0,6.81,15.38,1160.03,331.0,0.0,0.0,0.0,0.0
1776358627473841804,10710,0.0,0.1,0.0,0.2,-0.02,-0.18,6.44,-1.88,-2.5,0.16,0.06,-0.78,4.5,-0.25,8.94,1122.98,2174.0,0.0,0.0,0.0,0.0
1776358627572127280,10810,0.0,0.4,0.012,0.5,-0.04,-0.12,6.81,-1.56,-2.56,0.37,0.24,-0.6,-0.31,-2.44,1.25,1133.79,474.0,0.0,0.0,0.0,0.0
1776358627670431887,10910,0.008,0.2,0.012,0.2,-0.02,-0.02,7.0,-1.5,-3.0,0.38,0.2,-0.47,-0.56,8.88,3.13,1097.09,474.0,0.0,0.0,0.0,0.0
1776358627772882792,11010,0.0,0.2,0.0,0.9,-0.1,-0.21,7.5,-2.56,-3.81,0.68,0.06,-0.57,-2.69,11.69,6.81,1102.06,2251.0,0.0,0.0,0.0,0.0
1776358627899228195,11110,0.0,0.0,0.0,1.2,-0.1,-0.2,8.06,-3.44,-4.81,0.44,0.02,-0.14,-1.44,7.88,5.56,1164.66,2295.0,0.0,0.0,0.0,0.0
1776358627973615228,11209,0.004,0.4,0.0,0.2,-0.04,-0.23,8.0,-4.0,-5.13,-0.12,-0.1,0.13,-4.75,3.56,-7.88,1075.82,2295.0,0.0,0.0,0.0,0.0
1776358628091227149,11309,0.0,0.6,0.0,0.2,-0.02,-0.18,6.56,-4.0,-5.63,-0.55,-0.2,0.42,-5.75,-1.12,-18.06,11935.03,1092.0,0.0,0.0,0.0,0.0
1776358628170252304,11409,0.008,1.0,0.0,0.8,-0.02,-0.1,4.69,-4.25,-5.19,-0.63,-0.56,-0.22,-1.06,1.37,-21.12,1168.94,1092.0,0.0,0.0,0.0,0.0
1776358628272626871,11509,0.048,0.1,0.048,0.6,-0.06,-0.1,2.75,-4.88,-4.5,-0.81,-0.48,-0.46,2.56,0.75,-16.75,1132.59,1478.0,0.0,0.0,0.0,0.0
1776358628370937392,11609,0.04,0.0,0.0,0.8,-0.02,-0.14,2.19,-5.56,-3.31,-0.46,-0.26,-0.8,1.25,-0.94,1.06,1146.99,1849.0,0.0,0.0,0.0,0.0
1776358628473305013,11709,0.0,0.2,0.0,1.0,0.12,-0.04,2.75,-5.94,-3.0,-0.04,-0.09,-0.96,0.44,1.5,7.75,1168.09,1849.0,0.0,0.0,0.0,0.0
1776358628571627850,11809,0.0,0.3,0.0,1.1,-0.12,-0.12,3.69,-6.19,-3.0,0.38,-0.02,-0.89,0.94,-0.19,10.88,1118.35,1657.0,0.0,0.0,0.0,0.0
1776358628674070831,11910,0.0,0.2,0.0,0.7,-0.12,-0.18,4.44,-6.31,-3.06,0.45,-0.3,-0.74,6.19,-2.81,4.38,1115.95,1152.0,0.0,0.0,0.0,0.0
1776358628772369906,12010,0.008,0.7,0.0,1.0,-0.06,-0.21,4.5,-5.94,-2.94,-0.01,-0.35,-0.33,4.88,-15.88,0.25,1150.77,1152.0,0.0,0.0,0.0,0.0
1776358628874783514,12110,0.0,0.9,0.0,0.5,-0.02,-0.21,5.06,-3.94,-2.81,-0.66,0.1,0.55,-1.37,-17.81,8.06,1136.87,1400.0,0.0,0.0,0.0,0.0
1776358628973093275,12210,0.0,0.3,0.0,1.0,-0.08,-0.08,5.75,-2.94,-2.88,-0.39,0.59,0.43,-1.5,-5.0,7.44,1091.43,1400.0,0.0,0.0,0.0,0.0
1776358629075501070,12311,0.0,1.0,0.0,1.0,-0.04,-0.02,6.56,-2.63,-2.75,-0.34,0.66,-0.2,-0.19,3.06,8.31,1130.36,1591.0,0.0,0.0,0.0,0.0
1776358629203254971,12410,0.016,0.2,0.0,0.2,0.12,-0.2,7.44,-2.25,-2.06,-0.53,0.46,-0.65,-0.63,7.13,10.5,1132.41,82.0,0.0,0.0,0.0,0.0
1776358629284349317,12511,0.06,0.5,0.0,0.9,-0.06,-0.1,8.19,-2.19,-1.69,-0.12,0.48,-0.8,-3.06,1.88,5.0,11935.2,2053.0,0.0,0.0,0.0,0.0
1776358629376514847,12611,0.0,0.3,0.0,0.5,0.18,-0.14,8.63,-2.0,-1.88,0.33,0.5,-0.68,-0.37,0.56,4.0,11934.34,1409.0,0.0,0.0,0.0,0.0
1776358629476906309,12711,0.028,0.0,0.0,1.0,0.1,-0.06,8.81,-1.69,-2.38,0.45,0.25,-0.72,5.63,3.06,0.06,1112.69,1409.0,0.0,0.0,0.0,0.0
1776358629575221078,12811,0.0,0.3,0.0,1.1,-0.18,-0.06,8.69,-1.63,-2.25,0.24,0.14,-0.51,5.81,0.88,-1.94,1119.21,1409.0,0.0,0.0,0.0,0.0
1776358629673499028,12911,0.016,0.3,0.012,1.0,-0.1,-0.1,8.38,-1.88,-2.19,0.5,0.15,-0.76,-0.75,5.63,-4.0,1125.73,1728.0,0.0,0.0,0.0,0.0
1776358629775966220,13011,0.008,0.3,0.0,1.1,0.04,-0.1,7.88,-2.25,-3.19,0.44,0.19,-0.31,-7.0,6.25,-7.38,1125.38,1289.0,0.0,0.0,0.0,0.0
1776358629878378981,13112,0.004,0.3,0.0,1.1,-0.08,-0.04,6.81,-2.56,-3.81,0.0,-0.2,0.54,2.13,1.06,-15.94,1142.19,1289.0,0.0,0.0,0.0,0.0
1776358629978596240,13212,0.012,0.0,0.0,1.0,-0.04,-0.16,4.88,-2.13,-3.0,-0.83,-0.37,-0.12,12.0,-6.81,-22.0,11936.06,2304.0,0.0,0.0,0.0,0.0
1776358630079098363,13313,0.008,0.2,0.0,1.0,-0.06,-0.1,2.81,-1.5,-2.25,-1.28,-0.34,-0.63,2.13,-2.75,-22.25,1115.26,1309.0,0.0,0.0,0.0,0.0
1776358630177407269,13414,0.02,0.1,0.0,0.2,-0.08,-0.04,0.69,-1.56,-1.81,-0.91,-0.58,-0.24,-4.69,1.5,-18.5,1134.82,1309.0,0.0,0.0,0.0,0.0
1776358630275673226,13513,0.0,0.3,0.0,0.5,-0.06,-0.02,-0.44,-1.88,-2.19,-0.04,-0.78,-1.0,-3.88,2.94,-4.0,1166.71,2187.0,0.0,0.0,0.0,0.0
1776358630378148222,13613,0.0,1.1,0.04,0.2,0.02,-0.08,-0.75,-2.75,-2.44,-0.03,-0.67,-0.7,0.12,-0.06,-3.81,1106.0,2187.0,0.0,0.0,0.0,0.0
1776358630476435552,13713,0.032,0.2,0.0,0.9,0.02,-0.12,-0.94,-3.06,-2.31,0.2,-0.3,-0.64,3.38,-5.0,0.94,1139.96,1728.0,0.0,0.0,0.0,0.0
1776358630578829521,13813,0.02,0.4,0.0,1.0,0.1,-0.16,-0.63,-2.69,-2.13,0.36,-0.16,-0.66,3.94,-5.69,6.06,1108.06,1051.0,0.0,0.0,0.0,0.0
1776358630687203337,13914,0.0,0.3,0.0,1.0,0.0,-0.21,0.19,-2.5,-2.56,0.57,-0.13,-0.56,1.75,-1.69,8.25,1164.14,1051.0,0.0,0.0,0.0,0.0
1776358630779546267,14014,0.012,0.3,0.0,0.9,-0.04,0.0,1.0,-2.88,-2.75,0.15,-0.19,0.08,2.19,5.13,9.25,1108.23,1018.0,0.0,0.0,0.0,0.0
1776358630877915976,14114,0.012,0.3,0.0,0.3,0.06,0.0,1.75,-3.44,-2.19,-0.32,-0.21,0.17,8.5,3.31,6.13,1165.69,1777.0,0.0,0.0,0.0,0.0
1776358630980280275,14215,0.0,0.0,0.0,0.7,0.02,-0.06,2.13,-3.56,-1.37,-0.85,0.14,-0.1,6.0,-0.63,5.0,1100.69,1777.0,0.0,0.0,0.0,0.0
1776358631078495232,14315,0.0,1.0,0.0,0.8,0.0,-0.08,3.13,-3.06,-0.06,-0.8,0.47,-0.21,-1.06,-1.5,13.0,1238.57,1474.0,0.0,0.0,0.0,0.0
1776358631181014944,14415,0.0,0.0,0.024,0.3,0.0,-0.18,4.63,-2.19,0.63,-0.57,0.47,-0.27,-8.44,1.56,16.44,1162.6,1640.0,0.0,0.0,0.0,0.0
1776358631281216143,14515,0.052,0.1,0.0,0.7,-0.02,-0.08,6.06,-1.75,0.5,-0.26,0.41,-0.16,-7.31,2.5,11.0,11935.37,2233.0,0.0,0.0,0.0,0.0
1776358631381680851,14615,0.0,0.5,0.0,1.3,0.02,-0.08,6.31,-1.88,0.31,0.27,0.15,-0.7,1.19,3.13,-2.63,1150.42,2233.0,0.0,0.0,0.0,0.0
1776358631480057385,14715,0.032,0.3,0.0,1.2,-0.04,-0.14,6.0,-2.0,0.37,0.35,-0.07,-0.88,1.94,-0.31,-1.88,1143.39,2233.0,0.0,0.0,0.0,0.0
1776358631590306249,14816,0.016,0.2,0.0,1.1,-0.06,-0.18,5.94,-1.88,-0.06,0.61,-0.02,-0.83,-1.75,-2.06,-0.94,11936.74,1654.0,0.0,0.0,0.0,0.0
1776358631743220201,14916,0.016,0.1,0.0,0.9,0.0,-0.2,5.63,-1.75,-1.19,0.7,0.16,-0.48,-1.88,2.06,-5.81,1135.33,1840.0,0.0,0.0,0.0,0.0
1776358631779024764,15015,0.0,0.7,0.0,0.9,-0.04,-0.12,4.5,-2.19,-2.31,0.58,-0.11,0.12,-2.31,7.94,-16.75,1215.59,1840.0,0.0,0.0,0.0,0.0
1776358631881417537,15115,0.0,0.9,0.0,0.7,0.0,-0.18,2.5,-2.63,-2.88,0.0,-0.18,0.65,-3.88,0.56,-23.75,1141.68,2180.0,0.0,0.0,0.0,0.0
1776358631979760623,15214,0.0,0.3,0.0,0.8,0.04,-0.18,-0.0,-2.56,-3.13,-0.91,-0.33,0.0,0.25,2.5,-25.94,1178.2,2373.0,0.0,0.0,0.0,0.0
1776358632079975108,15314,0.0,0.5,0.0,0.3,0.02,0.0,-2.19,-2.75,-3.31,-1.02,-0.4,-0.86,-2.44,2.81,-19.44,11935.71,1268.0,0.0,0.0,0.0,0.0
1776358632180487127,15414,0.0,0.3,0.0,0.9,-0.02,-0.14,-3.56,-3.31,-2.69,-0.61,-0.34,-0.64,-2.88,1.63,-11.56,1124.01,1268.0,0.0,0.0,0.0,0.0
1776358632278781034,15514,0.056,0.0,0.0,0.9,0.2,-0.14,-4.13,-3.69,-2.38,-0.04,-0.28,-0.8,3.19,-0.06,1.63,1148.71,1851.0,0.0,0.0,0.0,0.0
1776358632381192763,15614,0.04,0.3,0.0,1.0,0.1,-0.23,-3.56,-3.81,-2.0,0.1,-0.12,-0.7,4.13,-3.75,10.25,1137.56,1851.0,0.0,0.0,0.0,0.0
1776358632479477392,15714,0.024,0.2,0.0,0.8,-0.06,-0.1,-2.38,-3.56,-1.69,0.5,0.04,-0.55,4.13,-2.63,13.25,1178.2,2245.0,0.0,0.0,0.0,0.0
1776358632581865748,15814,0.024,0.3,0.012,0.6,-0.02,-0.2,-1.12,-3.69,-1.75,0.45,-0.29,-0.47,4.69,1.94,12.44,1252.64,2245.0,0.0,0.0,0.0,0.0
1776358632680216365,15913,0.012,0.3,0.016,0.5,0.18,-0.06,-0.0,-4.31,-1.63,0.52,-0.71,-0.56,4.81,1.06,13.13,1146.82,147.0,0.0,0.0,0.0,0.0
1776358632778535182,16013,0.012,0.1,0.0,0.8,0.0,-0.14,1.37,-4.88,-1.56,-0.17,-0.27,-0.44,0.12,-2.13,14.38,1100.17,321.0,0.0,0.0,0.0,0.0
1776358632885462069,16112,0.012,0.2,0.0,0.1,-0.02,-0.12,2.56,-4.81,-1.75,-0.46,-0.2,0.13,-7.69,-1.19,7.5,1141.68,321.0,0.0,0.0,0.0,0.0
1776358632979257227,16211,0.0,0.3,0.0,1.2,-0.08,-0.2,3.31,-4.63,-2.25,-0.44,0.11,0.48,-5.69,-3.69,6.88,1183.52,2325.0,0.0,0.0,0.0,0.0
1776358633077568752,16312,0.008,0.4,0.0,0.5,0.0,-0.21,3.94,-4.38,-2.31,-0.5,0.48,-0.28,1.56,-0.94,6.88,1108.06,1523.0,0.0,0.0,0.0,0.0
1776358633187901081,16411,0.024,0.3,0.0,1.1,0.0,-0.1,4.94,-3.75,-1.25,-0.66,0.49,-0.7,1.37,-0.94,12.19,11936.06,1417.0,0.0,0.0,0.0,0.0
1776358633278291691,16512,0.0,1.0,0.0,0.8,-0.08,-0.12,5.88,-3.0,-0.25,-0.31,0.34,-0.68,-1.06,-0.5,5.63,1116.12,1417.0,0.0,0.0,0.0,0.0
1776358633380691967,16612,0.04,0.0,0.0,0.3,0.02,-0.1,6.13,-2.94,-0.25,0.2,0.22,-0.52,-0.19,2.75,1.81,1218.68,1417.0,0.0,0.0,0.0,0.0
1776358633479000907,16713,0.0,0.4,0.0,0.8,-0.18,-0.1,6.13,-3.19,-0.44,0.55,0.08,-0.56,1.5,3.44,-1.56,1126.58,1725.0,0.0,0.0,0.0,0.0
1776358633581360511,16814,0.02,-0.1,0.0,0.8,0.04,-0.12,5.63,-3.44,-1.0,0.66,0.03,-0.65,2.25,3.38,-7.75,1115.26,970.0,0.0,0.0,0.0,0.0
1776358633679702955,16914,0.0,0.2,0.0,1.2,0.12,-0.14,4.5,-3.63,-1.69,0.31,0.19,-0.45,-2.69,3.94,-15.06,1110.29,970.0,0.0,0.0,0.0,0.0
1776358633782138030,17013,0.012,0.2,0.0,1.2,0.02,-0.1,2.81,-3.88,-2.38,0.0,0.15,0.1,-6.38,2.5,-18.06,1148.02,2266.0,0.0,0.0,0.0,0.0
1776358633880436821,17114,0.0,0.9,0.0,1.1,-0.06,-0.1,1.25,-3.69,-2.75,-0.47,-0.0,0.76,1.56,-3.69,-16.19,1073.42,1375.0,0.0,0.0,0.0,0.0
1776358633982837986,17214,0.008,0.0,0.0,0.8,-0.12,-0.1,-0.5,-3.06,-1.94,-0.42,-0.28,-0.68,11.75,-7.19,-18.94,1087.48,1375.0,0.0,0.0,0.0,0.0
1776358634081152969,17314,0.004,0.5,0.0,0.1,-0.02,-0.12,-2.5,-2.38,-1.31,-1.05,-0.41,-0.5,2.31,-4.88,-20.81,1109.6,1959.0,0.0,0.0,0.0,0.0
1776358634183549812,17415,0.0,0.0,0.0,0.3,0.0,-0.06,-3.94,-2.81,-0.63,-0.43,-0.47,-0.37,-6.88,0.5,-8.94,1132.07,1883.0,0.0,0.0,0.0,0.0
1776358634283765548,17516,0.0,1.0,0.0,0.9,-0.06,-0.08,-3.81,-3.06,-1.31,0.22,-0.53,-0.92,-6.63,2.94,7.19,11936.57,2182.0,0.0,0.0,0.0,0.0
1776358634384280056,17616,0.044,0.2,0.0,0.7,-0.04,-0.14,-2.81,-3.69,-2.13,0.4,-0.27,-0.91,-2.38,0.44,12.44,1197.93,2182.0,0.0,0.0,0.0,0.0
1776358634486684029,17716,0.024,0.3,0.02,0.7,-0.06,-0.16,-1.5,-4.06,-2.69,0.52,-0.12,-0.51,2.81,-0.75,13.81,1184.72,2524.0,0.0,0.0,0.0,0.0
1776358634585000910,17817,0.0,0.3,0.0,1.3,-0.12,-0.14,-0.37,-4.5,-3.13,0.67,-0.29,-0.61,8.0,-0.5,9.19,1128.64,2524.0,0.0,0.0,0.0,0.0
1776358634683265137,17916,0.008,0.4,0.0,1.0,-0.02,-0.12,0.31,-5.0,-3.13,0.27,-0.2,-0.34,6.13,-1.31,8.88,1083.19,1486.0,0.0,0.0,0.0,0.0
1776358634785713948,18016,0.0,-0.1,0.0,0.9,-0.06,-0.06,1.44,-4.81,-2.69,-0.64,0.09,0.51,2.88,-2.88,15.5,1078.05,1486.0,0.0,0.0,0.0,0.0
1776358634884026365,18116,0.008,0.4,0.0,0.6,0.06,-0.16,2.81,-5.0,-2.31,-0.93,0.51,0.11,1.81,4.19,10.19,1080.45,1515.0,0.0,0.0,0.0,0.0
1776358634982319873,18215,0.0,0.9,0.0,1.0,0.04,-0.12,3.88,-5.44,-2.19,-0.87,0.61,-0.33,-0.94,4.13,16.25,1113.55,2249.0,0.0,0.0,0.0,0.0
1776358635084729925,18315,0.0,0.4,0.0,1.0,-0.14,-0.18,6.0,-4.69,-0.63,-0.77,0.64,-0.27,-2.13,0.5,26.12,1157.63,2249.0,0.0,0.0,0.0,0.0
1776358635183041395,18415,0.016,0.1,0.0,0.8,0.04,-0.14,8.38,-3.5,0.31,-0.45,0.72,-0.61,-5.88,0.94,17.94,1107.55,974.0,0.0,0.0,0.0,0.0
1776358635281339585,18514,0.0,0.6,0.044,0.9,-0.02,-0.16,9.31,-3.5,-0.06,0.11,0.24,-0.72,-6.81,2.31,2.38,1114.41,2105.0,0.0,0.0,0.0,0.0
1776358635383783521,18615,0.04,0.4,0.036,0.3,0.08,-0.16,9.38,-3.38,-0.56,0.3,-0.06,-0.43,-2.0,-5.44,0.5,1309.57,2105.0,0.0,0.0,0.0,0.0
1776358635482039633,18715,0.0,0.5,0.0,0.1,-0.06,-0.2,9.19,-2.94,-0.75,0.64,0.08,-0.72,7.25,-2.13,-3.25,1082.85,1245.0,0.0,0.0,0.0,0.0
1776358635584433341,18814,0.0,0.3,0.0,1.0,-0.12,-0.16,8.56,-3.13,-1.06,0.72,0.14,-0.9,4.06,7.31,-8.5,1111.49,1245.0,0.0,0.0,0.0,0.0
1776358635682785870,18914,0.016,0.4,0.0,0.9,0.04,-0.25,7.25,-4.13,-2.06,0.4,-0.11,-0.17,-3.06,14.19,-18.75,1188.84,2047.0,0.0,0.0,0.0,0.0
1776358635781126583,19013,0.012,0.1,0.0,1.0,-0.06,-0.21,4.81,-4.88,-2.63,-0.9,-0.1,1.33,-3.19,0.81,-29.25,1082.34,2052.0,0.0,0.0,0.0,0.0
1776358635879413680,19112,0.0,0.4,0.0,0.3,-0.04,-0.14,1.94,-4.06,-2.81,-0.89,-0.06,-0.07,2.88,-9.13,-29.94,1109.6,2052.0,0.0,0.0,0.0,0.0
1776358636419244732,19212,0.0,0.1,0.0,0.8,0.12,-0.08,-0.5,-3.13,-2.69,-1.06,-0.2,-0.61,-2.38,-7.94,-21.87,1089.71,1826.0,0.0,0.0,0.0,0.0
1776358636481574398,19311,0.0,0.2,0.0,0.9,0.04,0.06,-2.19,-3.0,-2.31,-0.26,-0.33,-0.88,-5.13,0.25,-11.25,1175.12,2472.0,0.0,0.0,0.0,0.0
1776358636485928829,19410,0.0,0.2,0.0,0.9,-0.14,-0.14,-2.25,-3.38,-2.75,-0.17,-0.37,-0.91,-4.19,3.56,8.69,11935.37,1488.0,0.0,0.0,0.0,0.0
1776358636489814899,19510,0.056,0.4,0.0,0.0,-0.06,-0.08,-1.12,-3.94,-2.75,-0.13,-0.29,-0.62,-0.69,-1.31,14.0,1123.15,1488.0,0.0,0.0,0.0,0.0
1776358636493885154,19611,0.0,0.9,0.024,0.3,-0.1,-0.21,0.31,-3.81,-2.63,0.09,-0.11,-0.5,1.25,-3.5,14.75,1103.77,1460.0,0.0,0.0,0.0,0.0
1776358636498120739,19710,0.0,0.5,0.016,0.4,0.02,-0.1,1.63,-3.69,-2.5,0.32,-0.3,-0.41,2.38,-3.88,11.75,1219.54,1460.0,0.0,0.0,0.0,0.0
1776358636579856585,19811,0.012,0.3,0.0,0.5,0.06,-0.18,2.94,-3.88,-2.88,0.41,-0.51,-0.31,-1.56,-4.81,14.94,1100.0,1737.0,0.0,0.0,0.0,0.0
1776358636682402916,19911,0.0,0.6,0.0,1.1,-0.02,-0.1,4.31,-4.19,-3.38,0.17,-0.48,-0.1,3.63,-8.88,12.0,1116.98,1485.0,0.0,0.0,0.0,0.0
1776358636782505783,20012,0.012,1.1,0.0,0.7,-0.25,-0.06,5.06,-3.38,-2.69,-0.35,-0.0,-0.09,8.13,-9.13,1.63,11938.29,1637.0,0.0,0.0,0.0,0.0
1776358636878875892,20112,0.004,0.6,0.0,0.5,-0.08,-0.18,5.0,-3.13,-2.19,-0.67,0.5,-0.13,0.75,5.06,4.44,1087.82,1637.0,0.0,0.0,0.0,0.0
1776358636981305489,20211,0.0,0.4,0.0,1.1,-0.08,-0.12,6.13,-3.63,-1.75,-0.69,0.33,-0.24,-3.88,7.75,19.37,1122.3,1637.0,0.0,0.0,0.0,0.0
1776358637083711295,20312,0.004,0.2,0.0,0.6,-0.02,0.0,8.25,-3.5,-1.12,-0.5,0.48,-0.53,-3.88,1.75,21.62,1129.84,1188.0,0.0,0.0,0.0,0.0
1776358637182078786,20413,0.016,0.4,0.0,0.8,0.04,-0.18,9.44,-2.94,-1.0,-0.14,0.5,-0.74,-3.0,-0.81,1.56,1112.69,1701.0,0.0,0.0,0.0,0.0
1776358637284493083,20513,0.0,0.2,0.0,0.9,-0.25,-0.1,9.13,-2.63,-1.31,-0.09,0.29,-0.59,-4.5,1.69,-5.88,1100.86,1701.0,0.0,0.0,0.0,0.0
1776358637384745593,20613,0.0,0.9,0.032,0.2,-0.08,-0.06,8.63,-2.75,-1.75,0.13,0.2,-0.52,-3.81,4.38,-5.69,11939.66,1134.0,0.0,0.0,0.0,0.0
1776358637480999227,20713,0.0,0.2,0.0,0.5,0.02,-0.1,8.06,-3.31,-2.06,0.69,0.11,-0.7,-0.75,6.44,-4.81,1193.3,2102.0,0.0,0.0,0.0,0.0
1776358637589380890,20812,0.016,0.3,0.0,0.6,-0.12,-0.1,7.44,-3.56,-3.06,0.53,0.27,-0.46,2.94,5.13,-8.0,11939.14,1980.0,0.0,0.0,0.0,0.0
1776358637681784071,20912,0.0,0.3,0.0,0.7,-0.08,-0.18,5.88,-3.75,-3.44,0.23,0.11,-0.03,0.94,6.44,-20.69,1140.13,1980.0,0.0,0.0,0.0,0.0
1776358637792202397,21012,0.0,1.0,0.012,0.4,0.02,-0.04,3.81,-3.81,-3.5,-0.43,0.2,0.28,0.69,-5.19,-18.75,11936.4,1087.0,0.0,0.0,0.0,0.0
1776358638015267303,21112,0.008,0.0,0.0,1.0,-0.02,-0.16,2.44,-2.63,-3.25,-0.38,0.14,-0.16,5.25,-13.5,-12.69,11940.34,1507.0,0.0,0.0,0.0,0.0
1776358638070922527,21212,0.008,0.9,0.0,0.7,-0.14,-0.08,0.81,-1.44,-2.19,-0.79,-0.34,-0.51,10.5,-9.38,-21.19,1094.68,1507.0,0.0,0.0,0.0,0.0
1776358638083437274,21312,0.004,0.6,0.0,0.5,0.0,-0.18,-1.0,-0.75,-1.25,-1.07,-0.44,-0.36,2.69,-5.81,-14.31,11938.63,1728.0,0.0,0.0,0.0,0.0
1776358638181478918,21411,0.0,0.5,0.0,1.1,0.1,-0.14,-1.44,-1.25,-0.37,-0.24,-0.43,-0.26,0.5,5.63,3.56,1093.83,1728.0,0.0,0.0,0.0,0.0
1776358638283920699,21512,0.056,0.3,0.056,0.2,0.08,-0.06,-0.94,-2.44,-0.06,0.05,-0.53,-0.79,4.5,10.13,5.75,1086.45,1877.0,0.0,0.0,0.0,0.0
1776358638382219498,21613,0.0,0.1,0.0,1.0,0.12,-0.23,-0.25,-3.44,0.25,0.11,-0.31,-0.69,3.5,3.38,8.63,1146.13,1877.0,0.0,0.0,0.0,0.0
1776358638480624345,21712,0.028,0.5,0.0,0.9,-0.02,-0.1,0.75,-3.81,0.12,0.61,-0.14,-0.77,1.44,-0.69,12.13,11942.23,2484.0,0.0,0.0,0.0,0.0
1776358638582916610,21812,0.0,0.4,0.0,1.3,0.04,-0.08,2.0,-3.75,-0.37,0.3,-0.34,-0.26,-2.69,-5.69,15.13,989.9,779.0,0.0,0.0,0.0,0.0
1776358638681162867,21913,0.016,0.2,0.0,0.8,-0.12,-0.18,3.5,-3.38,-0.88,0.16,-0.48,-0.13,-3.5,-6.44,12.06,1074.62,779.0,0.0,0.0,0.0,0.0
1776358638783658134,22012,0.012,0.3,0.0,0.3,0.0,-0.14,4.31,-3.13,-1.06,-0.28,-0.14,0.18,-0.63,-6.75,6.75,1065.53,1350.0,0.0,0.0,0.0,0.0
1776358638883886919,22112,0.0,0.4,0.0,0.3,-0.02,-0.2,4.88,-2.75,-0.81,-0.38,0.65,-0.2,5.19,-0.56,5.31,11940.17,1338.0,0.0,0.0,0.0,0.0
1776358638984380212,22212,0.0,0.5,0.0,0.5,-0.04,-0.25,5.63,-2.75,-0.06,-0.7,0.47,-0.49,2.5,1.88,13.38,1118.01,1338.0,0.0,0.0,0.0,0.0
1776358639082683872,22311,0.0,0.2,0.0,0.6,0.02,-0.35,7.38,-2.06,0.37,-0.86,0.59,-0.28,-7.5,-6.19,18.81,1093.31,1023.0,0.0,0.0,0.0,0.0
1776358639191067882,22411,0.024,0.6,0.0,0.9,-0.04,-0.14,8.63,-1.12,0.44,-0.12,0.5,-0.44,-5.69,2.19,3.13,1148.71,1023.0,0.0,0.0,0.0,0.0
1776358639283399154,22512,0.052,0.3,0.0,1.0,0.0,-0.12,8.63,-1.37,0.06,0.3,0.18,-0.73,-0.81,2.06,-0.63,1107.89,1317.0,0.0,0.0,0.0,0.0
1776358639385827415,22612,0.032,0.3,0.032,0.3,-0.04,-0.02,8.75,-1.37,-0.19,0.36,0.07,-0.59,1.37,-0.88,3.88,1093.31,1321.0,0.0,0.0,0.0,0.0
1776358639484128883,22713,0.028,-0.1,0.0,1.2,0.0,-0.14,9.06,-1.37,-0.56,0.46,0.18,-0.75,-0.56,5.25,0.25,1108.06,1321.0,0.0,0.0,0.0,0.0
1776358639582379883,22812,0.02,0.1,0.0,0.9,0.02,0.0,8.56,-1.88,-1.81,0.78,0.19,-0.66,-6.31,8.63,-9.63,1098.63,2800.0,0.0,0.0,0.0,0.0
1776358639684830923,22913,0.004,0.4,0.0,1.1,-0.06,-0.1,7.38,-2.19,-3.19,0.74,0.33,0.06,-7.81,2.63,-12.69,1090.57,1361.0,0.0,0.0,0.0,0.0
1776358639783177507,23013,0.012,-0.1,0.0,1.3,-0.1,-0.21,6.13,-2.06,-4.25,-0.07,0.22,0.4,-5.44,-1.0,-13.25,1091.43,1361.0,0.0,0.0,0.0,0.0
1776358640003235941,23112,0.0,0.1,0.0,0.9,-0.02,-0.04,4.88,-1.69,-4.56,-0.93,0.23,0.63,0.25,-4.38,-12.44,1148.54,2885.0,0.0,0.0,0.0,0.0
1776358640016321920,23212,0.0,0.1,0.0,0.5,0.04,-0.14,3.75,-1.19,-4.13,-1.06,-0.21,-0.55,4.56,-3.38,-11.5,1108.75,1622.0,0.0,0.0,0.0,0.0
1776358640082175635,23313,0.004,0.2,0.0,0.2,-0.08,-0.12,2.56,-1.12,-3.06,-1.27,-0.53,-0.58,-0.94,-3.19,-12.13,1130.87,1622.0,0.0,0.0,0.0,0.0
1776358640184550595,23412,0.024,0.2,0.0,0.6,0.04,-0.14,2.06,-1.5,-2.0,-0.28,-0.27,-0.6,1.31,1.56,1.0,1159.51,1662.0,0.0,0.0,0.0,0.0
1776358640282896663,23512,0.0,0.2,0.0,0.5,0.06,-0.08,2.5,-1.94,-1.56,-0.08,-0.08,-0.89,4.56,4.94,5.06,1105.15,1662.0,0.0,0.0,0.0,0.0
1776358640385307626,23612,0.04,0.7,0.0,0.7,-0.08,0.02,3.13,-2.56,-1.19,0.06,-0.15,-0.8,2.0,5.38,8.88,1107.38,1201.0,0.0,0.0,0.0,0.0
1776358640483625284,23711,0.028,0.7,0.0,1.2,-0.06,-0.18,4.06,-3.19,-1.25,0.53,-0.44,-0.71,2.25,0.06,10.25,1147.51,2002.0,0.0,0.0,0.0,0.0
1776358640585979279,23812,0.024,0.2,0.0,0.1,-0.02,-0.14,4.88,-3.31,-1.5,0.68,-0.35,-0.42,7.13,-5.88,7.38,1101.37,2002.0,0.0,0.0,0.0,0.0
1776358640684334477,23912,0.0,0.2,0.0,1.0,-0.02,0.02,5.75,-3.25,-1.69,0.34,-0.28,-0.37,5.13,-8.31,11.25,1184.21,1927.0,0.0,0.0,0.0,0.0
1776358640782627595,24012,0.0,0.6,0.0,0.1,0.0,-0.04,6.63,-2.69,-1.5,-0.23,-0.05,0.16,0.88,-3.69,5.19,1122.81,2287.0,0.0,0.0,0.0,0.0
1776358640885050208,24112,0.0,0.7,0.0,0.8,0.02,-0.08,6.69,-2.88,-1.19,-0.3,0.04,-0.01,3.31,7.69,-2.69,1058.67,2287.0,0.0,0.0,0.0,0.0
1776358640987455264,24213,0.004,0.1,0.0,0.8,0.0,-0.25,6.56,-3.5,-0.63,-0.51,0.35,-0.24,3.0,8.81,2.63,1078.22,1257.0,0.0,0.0,0.0,0.0
1776358641085768763,24313,0.0,0.1,0.0,1.2,-0.02,-0.14,7.69,-3.31,0.25,-0.52,0.6,-0.39,-4.5,3.0,17.56,1093.48,1899.0,0.0,0.0,0.0,0.0
1776358641194121084,24413,0.024,0.2,0.0,0.8,-0.1,-0.14,9.25,-2.31,0.5,-0.24,0.6,-0.14,-9.63,2.25,11.69,1136.53,1899.0,0.0,0.0,0.0,0.0
1776358641286480722,24513,0.048,0.0,0.0,0.8,-0.08,-0.18,9.56,-2.44,0.0,0.28,0.17,-0.78,-2.25,1.88,-4.63,1136.36,1006.0,0.0,0.0,0.0,0.0
1776358641384785475,24612,0.0,1.0,0.036,0.2,0.04,-0.12,9.06,-2.44,-0.12,0.36,0.03,-0.97,0.44,-1.94,-4.75,1141.33,1006.0,0.0,0.0,0.0,0.0
1776358641487203423,24713,0.0,0.6,0.0,1.0,-0.1,-0.1,8.5,-2.44,-0.44,0.57,-0.03,-1.1,4.0,2.06,-8.13,1072.73,1239.0,0.0,0.0,0.0,0.0
1776358641585528455,24812,0.02,0.0,0.0,1.4,-0.06,-0.16,7.5,-2.81,-1.0,0.62,-0.09,-1.3,2.75,0.81,-12.13,1177.69,2099.0,0.0,0.0,0.0,0.0
1776358641719218534,24912,0.02,0.0,0.0,0.9,-0.04,-0.08,6.06,-2.88,-1.63,0.49,0.01,-1.37,3.63,0.5,-19.81,1040.49,2099.0,0.0,0.0,0.0,0.0
1776358641786229043,25013,0.012,0.4,0.0,1.1,-0.1,-0.29,3.75,-3.13,-1.5,-0.58,-0.25,-1.31,4.13,2.56,-26.25,994.19,2022.0,0.0,0.0,0.0,0.0
1776358641886560603,25112,0.008,0.3,0.0,1.0,-0.04,-0.12,1.37,-3.06,-1.19,-1.3,-0.3,-1.15,-0.44,-2.13,-21.81,11939.32,1565.0,0.0,0.0,0.0,0.0
1776358641995029565,25212,0.004,0.3,0.0,0.9,0.06,-0.18,-0.12,-3.56,0.5,-0.73,-0.42,-1.2,-3.31,-4.19,-8.13,11939.14,2892.0,0.0,0.0,0.0,0.0
1776358642085251228,25312,0.0,0.0,0.0,0.3,-0.06,-0.14,-0.0,-3.38,0.37,-0.68,-0.04,-1.88,-8.94,-2.69,5.5,833.66,2892.0,0.0,0.0,0.0,0.0
1776358642187681662,25412,0.0,0.7,0.0,0.8,-0.02,-0.21,0.88,-3.44,0.0,-0.51,-0.08,-1.54,-8.06,0.56,9.38,793.36,1858.0,0.0,0.0,0.0,0.0
1776358642285970307,25512,0.0,0.9,0.04,0.8,0.06,-0.14,1.88,-3.44,-0.25,-0.49,0.38,-0.96,-0.25,0.37,9.38,714.98,1858.0,0.0,0.0,0.0,0.0
1776358642384378444,25612,0.04,0.1,0.0,0.6,-0.02,-0.12,2.63,-3.38,0.37,-0.31,0.25,-0.14,8.31,-3.75,5.75,11942.92,812.0,0.0,0.0,0.0,0.0
1776358642486627157,25712,0.028,0.3,0.0,1.1,-0.08,-0.08,3.13,-2.38,1.63,-0.31,0.2,0.29,14.38,-14.06,4.25,11942.4,2776.0,0.0,0.0,0.0,0.0
1776358642586886567,25812,0.02,0.2,0.0,0.6,0.04,-0.16,3.06,-1.31,3.25,-0.31,0.06,0.82,18.37,-4.81,-4.56,11939.14,601.0,0.0,0.0,0.0,0.0
1776358642687411280,25912,0.012,0.1,0.0,1.2,0.02,-0.2,2.44,-1.12,5.06,-0.17,0.11,0.51,17.69,-1.31,-4.06,11940.52,601.0,0.0,0.0,0.0,0.0
1776358642787720009,26012,0.012,0.3,0.0,1.1,-0.16,-0.2,2.31,-1.19,6.5,0.02,0.33,1.17,12.31,2.88,-1.0,11940.0,328.0,0.0,0.0,0.0,0.0
1776358642888116283,26113,0.004,0.5,0.0,1.4,-0.04,-0.1,2.38,-1.81,6.94,0.48,0.16,1.05,3.0,9.69,1.19,11940.86,328.0,0.0,0.0,0.0,0.0
1776358642994411666,26213,0.0,0.1,0.0,0.4,0.04,-0.06,2.63,-2.25,6.44,0.63,0.07,0.36,-5.06,0.69,1.69,11939.49,263.0,0.0,0.0,0.0,0.0
1776358643096865758,26312,0.0,1.0,0.0,0.3,-0.1,0.0,2.63,-1.94,5.75,0.29,0.26,0.17,-8.94,-5.56,-0.63,11939.32,222.0,0.0,0.0,0.0,0.0
1776358643195205488,26413,0.016,0.2,0.0,0.3,-0.04,-0.21,2.5,-1.44,4.81,0.14,0.32,0.46,-4.31,4.38,-2.31,11940.86,222.0,0.0,0.0,0.0,0.0
1776358643297552252,26513,0.056,0.0,0.0,0.7,-0.06,-0.08,2.38,-2.38,4.06,-0.28,0.17,0.45,-12.06,15.63,-1.81,11939.83,193.0,0.0,0.0,0.0,0.0
1776358643387808016,26613,0.044,0.3,0.0,0.9,0.04,-0.23,2.13,-3.06,3.38,-0.13,-0.26,-0.36,-2.94,-1.44,-3.56,11939.66,206.0,0.0,0.0,0.0,0.0
1776358643486133096,26713,0.0,0.1,0.0,0.9,-0.1,-0.21,1.75,-3.25,2.63,-0.49,0.14,-0.9,-13.69,5.81,-4.06,11938.63,206.0,0.0,0.0,0.0,0.0
1776358643588548459,26813,0.008,0.1,0.0,0.8,-0.08,-0.1,1.56,-3.69,0.5,0.49,-1.12,0.05,-27.19,-7.25,-2.75,213.86,206.0,0.0,0.0,0.0,0.0
1776358643686880429,26913,0.0,1.0,0.012,0.6,0.1,-0.14,1.5,-2.5,-0.88,0.66,0.67,-0.73,5.31,-8.19,2.06,231.18,198.0,0.0,0.0,0.0,0.0
1776358644111217451,27014,0.0,0.6,0.008,0.3,-0.04,-0.12,1.5,-2.44,-0.81,0.08,0.36,-0.46,-0.25,3.38,1.0,11941.2,211.0,0.0,0.0,0.0,0.0
1776358644178417247,27114,0.008,0.0,0.0,1.0,-0.08,-0.21,1.5,-2.56,-0.81,-0.01,-0.14,-0.45,-0.56,-0.75,0.0,11940.17,203.0,0.0,0.0,0.0,0.0
1776358644191566864,27214,0.004,0.0,0.0,0.6,-0.18,-0.16,1.5,-2.5,-0.94,0.18,-0.03,-0.36,0.44,0.31,0.0,11942.23,203.0,0.0,0.0,0.0,0.0
1776358644204694645,27315,0.0,0.2,0.004,0.5,0.04,-0.16,1.5,-2.5,-1.0,0.11,-0.02,-0.3,-0.12,-0.0,-0.06,11938.97,204.0,0.0,0.0,0.0,0.0
1776358644216949435,27415,0.024,0.1,0.0,1.1,0.06,-0.18,1.5,-2.56,-1.0,0.11,-0.03,-0.35,-0.19,-0.0,0.06,11938.12,208.0,0.0,0.0,0.0,0.0
1776358644289036702,27515,0.048,0.1,0.044,0.2,-0.06,-0.18,1.5,-2.56,-1.06,0.13,-0.02,-0.37,0.12,-0.12,0.0,233.75,208.0,0.0,0.0,0.0,0.0
1776358644391483851,27615,0.0,0.1,0.0,0.6,0.02,-0.29,1.5,-2.56,-1.12,0.11,-0.03,-0.36,-0.12,-0.12,0.12,233.58,214.0,0.0,0.0,0.0,0.0
1776358644491739513,27716,0.0,0.5,0.024,1.0,-0.04,-0.02,1.5,-2.56,-1.12,0.1,-0.03,-0.39,-0.0,0.06,-0.06,11938.46,196.0,0.0,0.0,0.0,0.0
1776358644592164468,27816,0.0,1.1,0.02,0.3,-0.04,-0.21,1.5,-2.56,-1.12,0.13,-0.01,-0.36,-0.12,-0.0,0.0,239.41,196.0,0.0,0.0,0.0,0.0
1776358644692509397,27916,0.02,0.3,0.0,1.0,0.0,-0.12,1.5,-2.56,-1.19,0.08,-0.0,-0.37,-0.12,-0.19,0.0,11937.43,201.0,0.0,0.0,0.0,0.0
1776358644792879903,28016,0.008,0.1,0.0,1.1,0.12,-0.14,1.5,-2.56,-1.19,0.11,-0.01,-0.35,0.06,0.31,0.06,217.98,201.0,0.0,0.0,0.0,0.0
1776358644891211286,28116,0.008,0.1,0.0,0.5,-0.04,-0.16,1.5,-2.63,-1.25,0.11,-0.01,-0.37,-0.12,-0.0,0.0,226.38,208.0,0.0,0.0,0.0,0.0
1776358644995606771,28217,0.0,0.7,0.0,0.9,-0.08,-0.04,1.5,-2.63,-1.25,0.08,-0.0,-0.35,-0.12,0.19,-0.06,11939.14,212.0,0.0,0.0,0.0,0.0
1776358645199223113,28317,0.004,0.0,0.0,1.1,-0.12,-0.16,1.5,-2.63,-1.25,0.09,-0.02,-0.35,0.12,-0.06,0.0,11939.83,212.0,0.0,0.0,0.0,0.0
1776358645211781928,28417,0.028,0.3,0.0,0.8,-0.12,-0.21,1.5,-2.63,-1.25,0.09,-0.0,-0.37,0.12,0.12,0.06,11939.32,207.0,0.0,0.0,0.0,0.0
1776358645294668820,28517,0.0,0.3,0.044,0.1,-0.04,-0.14,1.5,-2.63,-1.25,0.1,-0.01,-0.37,-0.12,-0.12,0.0,11939.49,223.0,0.0,0.0,0.0,0.0
1776358645395015090,28617,0.036,0.2,0.0,1.3,0.04,-0.25,1.5,-2.63,-1.25,0.07,-0.0,-0.36,0.06,0.12,0.0,11939.14,223.0,0.0,0.0,0.0,0.0
1776358645493364631,28717,0.0,0.9,0.0,1.0,0.0,-0.23,1.5,-2.63,-1.25,0.09,-0.0,-0.34,0.06,-0.06,0.06,11939.83,192.0,0.0,0.0,0.0,0.0
1776358645591597753,28817,0.0,0.6,0.0,1.3,-0.16,-0.18,1.5,-2.63,-1.25,0.07,-0.01,-0.37,-0.12,0.06,-0.06,235.3,192.0,0.0,0.0,0.0,0.0
1776358645694048540,28917,0.012,0.3,0.0,0.9,-0.12,-0.14,1.5,-2.63,-1.25,0.09,-0.02,-0.37,0.12,-0.06,0.0,235.3,206.0,0.0,0.0,0.0,0.0
1776358645815219602,29017,0.008,0.4,0.0,1.1,-0.04,-0.18,1.5,-2.63,-1.25,0.09,0.01,-0.37,0.12,-0.06,-0.06,11937.43,202.0,0.0,0.0,0.0,0.0
1776358645902839430,29117,0.0,1.1,0.0,0.2,0.04,-0.1,1.5,-2.63,-1.25,0.08,-0.02,-0.39,0.06,0.12,0.12,11938.46,214.0,0.0,0.0,0.0,0.0
1776358645995414936,29217,0.012,0.4,0.0,1.0,0.08,-0.14,1.5,-2.63,-1.25,0.09,-0.01,-0.36,-0.0,-0.12,-0.12,11938.97,214.0,0.0,0.0,0.0,0.0
1776358646095455668,29318,0.0,0.5,0.0,0.5,-0.04,-0.08,1.5,-2.63,-1.25,0.1,-0.01,-0.37,-0.0,-0.0,0.06,233.58,214.0,0.0,0.0,0.0,0.0
1776358646196049433,29419,0.0,0.5,0.036,0.5,-0.08,0.02,1.5,-2.63,-1.25,0.08,-0.04,-0.34,-0.19,-0.12,-0.12,11938.12,212.0,0.0,0.0,0.0,0.0
1776358646296194599,29519,0.0,0.3,0.0,1.0,0.08,-0.12,1.5,-2.63,-1.25,0.08,-0.01,-0.37,-0.0,0.12,0.06,217.98,216.0,0.0,0.0,0.0,0.0
1776358646398615556,29620,0.0,0.1,0.032,0.2,0.08,-0.14,1.5,-2.63,-1.25,0.08,-0.0,-0.37,-0.12,-0.06,0.06,11938.8,220.0,0.0,0.0,0.0,0.0
1776358646496889043,29720,0.024,0.1,0.0,1.1,0.06,-0.23,1.5,-2.63,-1.25,0.09,-0.01,-0.37,0.12,0.06,0.06,213.86,220.0,0.0,0.0,0.0,0.0
1776358646595204738,29820,0.0,0.4,0.0,1.0,0.04,-0.1,1.5,-2.63,-1.25,0.08,-0.01,-0.37,0.06,0.19,-0.06,230.5,210.0,0.0,0.0,0.0,0.0
1776358646697628307,29921,0.012,0.1,0.0,0.9,-0.04,-0.1,1.5,-2.63,-1.25,0.08,-0.01,-0.38,-0.06,-0.0,0.06,230.5,210.0,0.0,0.0,0.0,0.0
1776358646800047579,30021,0.012,0.4,0.004,1.1,-0.08,-0.16,1.5,-2.63,-1.25,0.08,-0.01,-0.36,-0.06,-0.19,0.0,221.06,216.0,0.0,0.0,0.0,0.0
1776358646900361891,30121,0.0,0.3,0.0,1.1,-0.04,-0.16,1.5,-2.63,-1.25,0.09,-0.0,-0.37,-0.06,-0.06,0.0,11939.32,208.0,0.0,0.0,0.0,0.0
1776358646996616111,30221,0.004,0.3,0.0,1.1,0.08,-0.04,1.5,-2.63,-1.25,0.08,-0.03,-0.37,-0.06,-0.12,0.06,209.74,208.0,0.0,0.0,0.0,0.0
1776358647203224565,30321,0.0,1.0,0.0,1.0,-0.12,-0.12,1.5,-2.63,-1.25,0.08,-0.01,-0.37,0.06,-0.06,-0.06,11943.26,214.0,0.0,0.0,0.0,0.0
1776358647215645360,30422,0.0,0.6,0.0,0.9,0.08,-0.02,1.5,-2.63,-1.25,0.1,-0.0,-0.37,-0.06,-0.0,0.06,11940.69,206.0,0.0,0.0,0.0,0.0
1776358647299811179,30522,0.0,0.7,0.044,0.3,0.08,-0.08,1.5,-2.63,-1.25,0.08,-0.0,-0.37,0.12,-0.19,0.0,11938.8,203.0,0.0,0.0,0.0,0.0
1776358647398058302,30622,0.0,0.4,0.0,0.2,0.08,-0.14,1.5,-2.63,-1.25,0.1,-0.0,-0.37,-0.0,-0.12,0.0,11941.89,203.0,0.0,0.0,0.0,0.0
1776358647508461159,30723,0.0,0.1,0.0,1.0,-0.02,-0.16,1.5,-2.63,-1.25,0.08,-0.0,-0.36,-0.0,-0.12,0.06,11940.34,220.0,0.0,0.0,0.0,0.0
1776358647608930439,30823,0.0,0.9,0.0,0.2,-0.16,-0.08,1.5,-2.63,-1.25,0.09,-0.0,-0.35,-0.0,-0.0,0.12,238.9,220.0,0.0,0.0,0.0,0.0
1776358647701227977,30923,0.0,0.4,0.0,1.4,0.0,0.04,1.5,-2.63,-1.25,0.11,-0.0,-0.36,0.06,-0.0,0.0,225.35,212.0,0.0,0.0,0.0,0.0
1776358647811667559,31024,0.008,0.9,0.004,0.3,0.1,-0.12,1.5,-2.63,-1.25,0.1,-0.0,-0.37,-0.0,-0.0,0.06,11942.23,214.0,0.0,0.0,0.0,0.0
1776358647901940070,31124,0.0,0.1,0.0,0.2,-0.02,-0.06,1.5,-2.63,-1.25,0.1,-0.03,-0.39,-0.06,0.19,0.06,221.58,214.0,0.0,0.0,0.0,0.0
1776358648023256000,31224,0.004,1.0,0.0,0.8,-0.18,-0.14,1.5,-2.63,-1.25,0.09,-0.0,-0.36,0.06,0.06,-0.06,11939.14,204.0,0.0,0.0,0.0,0.0
1776358648110684068,31324,0.004,0.6,0.0,0.7,-0.02,-0.06,1.5,-2.63,-1.25,0.08,-0.0,-0.34,-0.0,0.12,0.06,11939.32,208.0,0.0,0.0,0.0,0.0
1776358648200954056,31424,0.0,0.0,0.044,0.4,0.0,-0.1,1.5,-2.63,-1.25,0.11,-0.02,-0.37,0.06,0.06,0.06,238.9,208.0,0.0,0.0,0.0,0.0
1776358648299263733,31523,0.0,0.5,0.0,0.2,0.08,-0.14,1.5,-2.63,-1.25,0.11,-0.01,-0.36,-0.0,-0.0,0.0,204.94,208.0,0.0,0.0,0.0,0.0
1776358648401683263,31623,0.0,0.5,0.036,0.5,0.02,-0.16,1.5,-2.63,-1.25,0.08,-0.0,-0.39,-0.06,0.06,-0.06,243.02,204.0,0.0,0.0,0.0,0.0
1776358648499997348,31723,0.0,0.6,0.0,1.0,-0.12,-0.02,1.5,-2.63,-1.25,0.08,-0.01,-0.37,-0.0,0.06,0.0,212.83,204.0,0.0,0.0,0.0,0.0
1776358648602353262,31823,0.02,0.2,0.0,0.0,0.02,-0.08,1.5,-2.63,-1.25,0.08,-0.0,-0.37,-0.0,-0.06,0.0,216.95,204.0,0.0,0.0,0.0,0.0
1776358648700676829,31923,0.0,1.0,0.0,0.2,-0.14,-0.12,1.5,-2.63,-1.25,0.08,-0.0,-0.37,-0.12,-0.12,0.0,225.35,220.0,0.0,0.0,0.0,0.0
1776358648803107601,32024,0.0,0.7,0.0,1.1,-0.06,-0.06,1.5,-2.63,-1.25,0.09,-0.01,-0.37,-0.12,0.06,0.0,241.99,210.0,0.0,0.0,0.0,0.0
1776358648901416463,32123,0.0,0.7,0.0,0.8,0.0,-0.25,1.5,-2.63,-1.25,0.08,-0.02,-0.38,0.06,0.06,-0.12,226.21,210.0,0.0,0.0,0.0,0.0
1776358649003800917,32223,0.008,0.0,0.0,1.0,0.0,-0.16,1.5,-2.63,-1.25,0.1,-0.0,-0.36,-0.0,0.06,0.06,225.18,211.0,0.0,0.0,0.0,0.0
1776358649102137570,32324,0.004,0.7,0.0,1.2,0.14,-0.31,1.5,-2.63,-1.25,0.1,-0.02,-0.39,-0.06,0.06,0.0,230.5,205.0,0.0,0.0,0.0,0.0
1776358649202555977,32423,0.032,0.2,0.032,0.9,-0.02,-0.04,1.5,-2.63,-1.25,0.08,-0.0,-0.38,-0.0,-0.0,-0.06,11937.26,202.0,0.0,0.0,0.0,0.0
1776358649310960807,32523,0.06,0.2,0.0,0.8,-0.08,0.02,1.5,-2.63,-1.25,0.1,-0.0,-0.37,-0.0,-0.0,-0.06,11939.14,202.0,0.0,0.0,0.0,0.0
1776358649401126353,32623,0.04,0.2,0.0,0.9,-0.1,-0.02,1.5,-2.63,-1.25,0.1,-0.0,-0.37,-0.06,-0.0,0.06,209.06,202.0,0.0,0.0,0.0,0.0
1776358649503536282,32723,0.028,0.3,0.0,0.9,-0.16,-0.06,1.5,-2.63,-1.25,0.11,-0.01,-0.37,-0.0,-0.12,0.0,230.67,203.0,0.0,0.0,0.0,0.0
1776358649601876103,32823,0.02,0.3,0.0,0.4,0.06,-0.02,1.5,-2.63,-1.25,0.1,-0.01,-0.41,0.06,-0.0,-0.06,200.83,204.0,0.0,0.0,0.0,0.0
1776358649712300588,32923,0.0,0.6,0.0,0.6,0.0,-0.14,1.5,-2.63,-1.25,0.09,-0.0,-0.36,0.12,0.06,0.12,11941.2,209.0,0.0,0.0,0.0,0.0
1776358649802595590,33024,0.004,0.5,0.0,0.9,-0.08,-0.16,1.5,-2.63,-1.25,0.1,-0.0,-0.36,0.12,-0.06,0.06,200.83,209.0,0.0,0.0,0.0,0.0
1776358649900907594,33124,0.008,0.3,0.0,1.2,0.0,-0.16,1.5,-2.63,-1.25,0.08,-0.01,-0.38,0.06,-0.12,0.06,200.66,210.0,0.0,0.0,0.0,0.0
1776358650147223977,33223,0.0,0.3,0.0,0.8,0.04,-0.18,1.5,-2.63,-1.25,0.1,-0.01,-0.39,0.06,-0.06,-0.12,11938.12,205.0,0.0,0.0,0.0,0.0
1776358650204030384,33324,0.0,0.6,0.0,0.8,-0.04,-0.12,1.5,-2.63,-1.25,0.1,-0.0,-0.38,-0.0,-0.0,0.0,217.98,205.0,0.0,0.0,0.0,0.0
1776358650216665319,33425,0.0,0.8,0.0,0.1,0.02,-0.14,1.5,-2.63,-1.25,0.09,-0.02,-0.37,-0.06,0.06,0.0,226.38,210.0,0.0,0.0,0.0,0.0
1776358650302332232,33524,0.0,1.0,0.0,1.0,-0.04,-0.1,1.5,-2.63,-1.25,0.1,-0.02,-0.38,0.06,-0.12,-0.06,222.26,210.0,0.0,0.0,0.0,0.0
1776358650404706020,33624,0.0,0.7,0.0,1.3,-0.16,-0.16,1.5,-2.63,-1.25,0.09,-0.0,-0.37,-0.06,0.06,0.0,213.86,198.0,0.0,0.0,0.0,0.0
1776358650503031389,33725,0.024,0.5,0.032,0.3,-0.21,-0.04,1.5,-2.63,-1.25,0.06,-0.01,-0.38,0.06,-0.06,0.0,204.43,198.0,0.0,0.0,0.0,0.0
1776358650605413844,33825,0.016,0.2,0.0,1.2,0.1,-0.18,1.5,-2.63,-1.25,0.07,-0.02,-0.37,0.06,-0.0,0.06,209.74,225.0,0.0,0.0,0.0,0.0
1776358650703702228,33925,0.0,0.9,0.0,0.9,0.1,-0.1,1.5,-2.63,-1.25,0.08,-0.0,-0.37,-0.06,0.12,-0.06,201.34,211.0,0.0,0.0,0.0,0.0
1776358650806169154,34026,0.008,0.1,0.0,0.7,-0.08,-0.08,1.5,-2.63,-1.25,0.08,-0.0,-0.37,-0.12,-0.0,0.06,243.7,211.0,0.0,0.0,0.0,0.0
1776358650904491449,34125,0.012,0.6,0.0,0.5,-0.18,-0.06,1.5,-2.63,-1.25,0.11,-0.01,-0.37,-0.0,0.12,0.0,234.27,206.0,0.0,0.0,0.0,0.0
1776358651006874793,34225,0.0,0.1,0.0,0.3,0.0,0.06,1.5,-2.63,-1.25,0.09,-0.0,-0.4,-0.06,0.06,0.0,231.18,211.0,0.0,0.0,0.0,0.0
1776358651105204860,34325,0.0,0.3,0.0,1.1,0.0,-0.12,1.5,-2.63,-1.25,0.07,-0.01,-0.36,-0.06,-0.0,-0.06,238.38,211.0,0.0,0.0,0.0,0.0
1776358651223228599,34425,0.036,0.3,0.0,1.0,0.14,-0.04,1.5,-2.63,-1.25,0.09,-0.01,-0.36,0.06,-0.0,0.06,205.63,192.0,0.0,0.0,0.0,0.0
1776358651305915709,34525,0.048,0.2,0.0,0.5,0.23,-0.1,1.5,-2.63,-1.25,0.12,-0.01,-0.38,-0.0,0.12,0.06,201.51,209.0,0.0,0.0,0.0,0.0
1776358651404227867,34625,0.04,0.4,0.0,1.1,-0.14,-0.04,1.5,-2.63,-1.25,0.1,-0.0,-0.38,-0.0,-0.0,-0.12,209.74,209.0,0.0,0.0,0.0,0.0
1776358651506593889,34724,0.028,0.3,0.0,0.8,0.12,-0.16,1.5,-2.63,-1.25,0.1,-0.0,-0.38,0.06,0.06,-0.06,225.35,208.0,0.0,0.0,0.0,0.0
1776358651604916270,34825,0.0,0.5,0.012,0.3,-0.04,-0.18,1.5,-2.63,-1.25,0.1,-0.02,-0.37,-0.0,-0.0,0.0,230.5,208.0,0.0,0.0,0.0,0.0
1776358651707374096,34926,0.0,0.4,0.0,0.1,0.04,-0.02,1.5,-2.63,-1.25,0.1,-0.0,-0.36,-0.0,-0.06,0.12,226.38,201.0,0.0,0.0,0.0,0.0
1776358651827223359,35025,0.0,0.5,0.0,0.9,0.0,-0.14,1.5,-2.63,-1.25,0.11,-0.01,-0.36,-0.06,-0.06,0.0,221.24,203.0,0.0,0.0,0.0,0.0
1776358651908067388,35126,0.0,0.1,0.0,0.5,-0.12,0.0,1.5,-2.63,-1.25,0.11,-0.01,-0.35,-0.0,-0.06,-0.06,225.52,203.0,0.0,0.0,0.0,0.0
1776358652006356192,35227,0.0,0.2,0.0,1.0,0.1,-0.06,1.5,-2.63,-1.25,0.09,-0.0,-0.36,-0.06,-0.0,-0.06,209.74,217.0,0.0,0.0,0.0,0.0
1776358652108784232,35326,0.0,0.1,0.0,0.9,-0.16,-0.2,1.5,-2.63,-1.25,0.08,-0.04,-0.37,0.06,-0.0,0.0,200.31,211.0,0.0,0.0,0.0,0.0
1776358652207092625,35427,0.036,0.1,0.0,0.8,0.1,-0.02,1.5,-2.63,-1.25,0.1,-0.02,-0.37,-0.19,0.12,0.0,212.83,211.0,0.0,0.0,0.0,0.0
1776358652309491792,35527,0.048,0.2,0.0,0.8,0.02,-0.14,1.5,-2.63,-1.25,0.09,-0.01,-0.36,0.12,-0.0,-0.06,227.07,206.0,0.0,0.0,0.0,0.0
1776358652411898552,35628,0.0,0.5,0.0,0.6,0.06,-0.06,1.5,-2.63,-1.25,0.12,-0.01,-0.37,-0.0,0.12,0.0,229.98,215.0,0.0,0.0,0.0,0.0
1776358652510174201,35729,0.028,-0.1,0.0,1.0,0.04,-0.12,1.5,-2.63,-1.25,0.09,-0.0,-0.38,0.06,-0.06,0.0,209.74,215.0,0.0,0.0,0.0,0.0
1776358652608449055,35829,0.016,0.3,0.0,1.2,-0.04,-0.14,1.5,-2.63,-1.25,0.09,-0.01,-0.38,0.06,0.06,-0.06,197.05,212.0,0.0,0.0,0.0,0.0
1776358652710933729,35930,0.0,0.3,0.004,0.2,-0.04,-0.1,1.5,-2.63,-1.25,0.11,-0.01,-0.36,0.12,-0.0,-0.12,205.46,196.0,0.0,0.0,0.0,0.0
1776358652839210904,36030,0.012,0.2,0.0,0.9,0.02,-0.12,1.5,-2.63,-1.25,0.1,-0.01,-0.38,-0.06,0.12,0.06,221.06,196.0,0.0,0.0,0.0,0.0
1776358652911650420,36129,0.008,0.1,0.0,1.1,-0.04,-0.16,1.5,-2.63,-1.25,0.11,-0.01,-0.36,-0.12,-0.0,0.06,204.43,219.0,0.0,0.0,0.0,0.0
1776358653020083521,36230,0.0,1.0,0.0,0.0,0.02,0.0,1.5,-2.63,-1.25,0.09,-0.0,-0.4,0.06,-0.0,-0.06,209.74,219.0,0.0,0.0,0.0,0.0
1776358653112357474,36330,0.0,0.9,0.0,1.0,0.04,-0.25,1.5,-2.63,-1.25,0.1,-0.01,-0.38,-0.0,-0.0,0.06,213.86,207.0,0.0,0.0,0.0,0.0
1776358653210670419,36429,0.044,0.3,0.0,0.9,-0.06,-0.12,1.5,-2.63,-1.25,0.07,-0.0,-0.37,-0.06,0.06,0.0,222.26,209.0,0.0,0.0,0.0,0.0
1776358653308948360,36529,0.04,0.1,0.0,0.4,-0.02,-0.18,1.5,-2.63,-1.25,0.1,-0.01,-0.38,-0.06,-0.0,0.0,229.64,209.0,0.0,0.0,0.0,0.0
1776358653411396805,36629,0.04,0.1,0.0,0.9,-0.18,-0.16,1.5,-2.63,-1.25,0.1,-0.0,-0.38,0.06,-0.12,0.0,230.67,222.0,0.0,0.0,0.0,0.0
1776358653509665042,36729,0.028,0.2,0.0,0.6,0.06,-0.18,1.5,-2.63,-1.25,0.1,-0.01,-0.39,0.06,-0.12,-0.06,209.06,219.0,0.0,0.0,0.0,0.0
1776358653612057129,36829,0.0,0.5,0.0,1.1,0.0,-0.14,1.5,-2.63,-1.25,0.14,-0.0,-0.35,-0.0,-0.06,0.0,226.38,219.0,0.0,0.0,0.0,0.0
1776358653710452415,36929,0.016,0.2,0.016,0.5,-0.02,-0.08,1.5,-2.63,-1.25,0.1,-0.01,-0.36,-0.0,-0.0,0.0,237.7,222.0,0.0,0.0,0.0,0.0
1776358653808714948,37028,0.0,0.3,0.0,0.6,0.0,-0.06,1.5,-2.63,-1.25,0.11,-0.01,-0.38,-0.12,-0.0,-0.12,217.98,222.0,0.0,0.0,0.0,0.0
1776358653927225399,37128,0.0,0.5,0.0,0.4,-0.06,-0.21,1.5,-2.63,-1.25,0.08,-0.02,-0.37,0.06,0.06,0.0,238.9,214.0,0.0,0.0,0.0,0.0
1776358654009423850,37228,0.0,0.5,0.0,1.1,0.12,-0.18,1.5,-2.63,-1.25,0.1,-0.0,-0.37,-0.0,-0.06,-0.06,238.9,207.0,0.0,0.0,0.0,0.0
1776358654109635562,37327,0.0,0.2,0.0,0.6,-0.04,-0.06,1.5,-2.63,-1.25,0.11,-0.01,-0.37,-0.0,-0.0,0.06,11938.29,215.0,0.0,0.0,0.0,0.0
1776358654212162195,37427,0.04,0.1,0.044,0.4,0.02,-0.2,1.5,-2.63,-1.25,0.09,-0.02,-0.4,0.06,-0.0,0.0,11938.97,209.0,0.0,0.0,0.0,0.0
1776358654308471875,37527,0.0,0.2,0.0,0.5,-0.16,-0.02,1.5,-2.63,-1.25,0.08,-0.01,-0.39,-0.06,-0.0,0.0,199.63,209.0,0.0,0.0,0.0,0.0
1776358654410833751,37626,0.0,0.0,0.0,0.8,0.0,-0.02,1.5,-2.63,-1.25,0.1,-0.01,-0.36,-0.06,0.12,-0.06,209.06,209.0,0.0,0.0,0.0,0.0
1776358654509216273,37727,0.0,0.6,0.0,1.3,-0.1,-0.18,1.5,-2.63,-1.25,0.09,-0.01,-0.4,-0.0,0.19,0.0,11938.12,198.0,0.0,0.0,0.0,0.0
1776358654607406388,37827,0.028,0.2,0.0,0.4,0.02,-0.1,1.5,-2.63,-1.25,0.1,-0.02,-0.38,-0.12,0.12,0.06,213.35,212.0,0.0,0.0,0.0,0.0
1776358654711911187,37926,0.012,-0.1,0.0,1.3,-0.04,-0.06,1.5,-2.63,-1.25,0.1,-0.01,-0.37,-0.0,0.25,0.0,11942.23,213.0,0.0,0.0,0.0,0.0
1776358654810312785,38026,0.0,0.2,0.0,0.9,-0.04,-0.08,1.5,-2.63,-1.25,0.12,-0.02,-0.38,-0.0,-0.0,-0.06,11942.06,213.0,0.0,0.0,0.0,0.0
1776358655011226142,38126,0.008,0.3,0.0,0.7,0.0,0.02,1.5,-2.63,-1.25,0.11,-0.03,-0.38,-0.06,-0.06,0.0,11940.69,212.0,0.0,0.0,0.0,0.0
1776358655023799575,38226,0.0,0.2,0.0,0.2,-0.06,-0.14,1.5,-2.63,-1.25,0.07,-0.0,-0.38,-0.06,0.12,0.06,204.94,212.0,0.0,0.0,0.0,0.0
1776358655109276371,38326,0.004,0.0,0.0,0.3,0.0,-0.21,1.5,-2.63,-1.25,0.11,-0.01,-0.4,-0.06,0.06,0.0,11939.14,204.0,0.0,0.0,0.0,0.0
1776358655209656002,38426,0.0,0.3,0.0,0.2,0.1,-0.08,1.5,-2.63,-1.25,0.11,-0.01,-0.39,-0.12,0.06,0.0,209.06,204.0,0.0,0.0,0.0,0.0
1776358655307952551,38525,0.048,0.3,0.0,1.1,-0.02,-0.21,1.5,-2.63,-1.25,0.1,-0.02,-0.39,-0.12,0.19,0.0,243.02,203.0,0.0,0.0,0.0,0.0
1776358655406267286,38625,0.0,0.4,0.0,0.9,-0.08,-0.12,1.5,-2.63,-1.25,0.1,-0.01,-0.38,-0.06,0.12,0.06,11938.46,210.0,0.0,0.0,0.0,0.0
1776358655508650531,38725,0.0,0.1,0.0,1.4,0.06,-0.25,1.5,-2.63,-1.25,0.09,-0.03,-0.37,-0.0,-0.0,-0.06,222.26,210.0,0.0,0.0,0.0,0.0
1776358655606974507,38824,0.0,0.9,0.0,0.9,-0.2,-0.2,1.5,-2.63,-1.25,0.09,-0.0,-0.4,-0.0,0.12,0.06,230.5,210.0,0.0,0.0,0.0,0.0
1776358655709374643,38924,0.016,0.1,0.0,0.8,-0.04,-0.16,1.5,-2.63,-1.25,0.11,-0.01,-0.37,0.06,0.12,0.0,226.38,204.0,0.0,0.0,0.0,0.0
1776358655807689674,39024,0.012,0.2,0.0,1.0,-0.08,-0.18,1.5,-2.63,-1.25,0.09,-0.01,-0.37,0.12,-0.0,0.0,216.95,204.0,0.0,0.0,0.0,0.0
1776358655906006410,39123,0.012,0.2,0.0,0.5,-0.04,-0.04,1.5,-2.63,-1.25,0.09,-0.01,-0.38,-0.06,-0.06,-0.06,217.98,230.0,0.0,0.0,0.0,0.0
1776358656008411823,39223,0.0,0.6,0.0,1.2,-0.02,-0.18,1.5,-2.63,-1.25,0.12,-0.02,-0.36,-0.0,-0.06,0.0,226.21,230.0,0.0,0.0,0.0,0.0
1776358656127223929,39323,0.004,1.0,0.0,0.2,0.0,-0.2,1.5,-2.63,-1.25,0.08,-0.02,-0.38,-0.0,0.06,0.0,200.66,204.0,0.0,0.0,0.0,0.0
1776358656205053957,39422,0.044,0.2,0.0,0.5,0.08,-0.1,1.5,-2.63,-1.25,0.1,-0.01,-0.36,-0.0,-0.25,0.12,209.06,202.0,0.0,0.0,0.0,0.0
1776358656307407770,39522,0.0,0.0,0.0,0.5,-0.02,-0.16,1.5,-2.63,-1.25,0.1,-0.01,-0.39,-0.0,-0.0,-0.06,200.83,202.0,0.0,0.0,0.0,0.0
1776358656405699149,39622,0.032,0.4,0.0,1.1,-0.04,-0.08,1.5,-2.63,-1.25,0.09,-0.0,-0.36,-0.0,-0.06,-0.06,216.43,214.0,0.0,0.0,0.0,0.0
1776358656504018660,39721,0.032,0.0,0.0,0.5,0.02,-0.2,1.5,-2.63,-1.25,0.09,-0.02,-0.37,0.19,-0.0,-0.06,200.83,213.0,0.0,0.0,0.0,0.0
1776358656606455777,39822,0.024,0.2,0.016,0.2,-0.08,-0.08,1.5,-2.63,-1.25,0.1,-0.0,-0.38,-0.12,0.06,-0.12,196.54,213.0,0.0,0.0,0.0,0.0
1776358656704774085,39922,0.012,0.2,0.0,0.9,0.1,-0.04,1.5,-2.63,-1.25,0.11,-0.02,-0.38,-0.06,0.06,0.06,200.83,204.0,0.0,0.0,0.0,0.0
1776358656807215221,40022,0.0,0.3,0.0,1.1,0.08,-0.02,1.5,-2.63,-1.25,0.08,-0.01,-0.37,0.06,-0.0,0.06,196.54,205.0,0.0,0.0,0.0,0.0
1776358656907479302,40122,0.004,0.0,0.0,1.4,-0.1,-0.1,1.5,-2.63,-1.25,0.1,-0.0,-0.37,-0.0,-0.0,-0.12,11938.12,213.0,0.0,0.0,0.0,0.0
1776358657007889971,40222,0.0,0.6,0.0,0.8,-0.16,-0.25,1.5,-2.63,-1.25,0.1,-0.01,-0.34,0.06,-0.25,0.0,205.46,213.0,0.0,0.0,0.0,0.0
1776358657106160903,40323,0.0,0.4,0.0,0.8,0.0,-0.18,1.5,-2.63,-1.25,0.11,-0.02,-0.36,-0.12,-0.12,0.06,199.63,202.0,0.0,0.0,0.0,0.0
1776358657208614649,40423,0.0,0.2,0.0,1.1,-0.1,-0.1,1.5,-2.63,-1.25,0.11,-0.0,-0.36,-0.19,-0.19,0.0,209.06,202.0,0.0,0.0,0.0,0.0
1776358657306901285,40523,0.056,0.1,0.0,1.1,0.06,-0.06,1.5,-2.63,-1.25,0.11,-0.0,-0.37,0.06,0.06,0.06,225.35,207.0,0.0,0.0,0.0,0.0
1776358657409331195,40624,0.0,0.7,0.0,0.2,-0.06,-0.16,1.5,-2.63,-1.25,0.1,-0.02,-0.39,-0.06,-0.06,0.19,213.86,207.0,0.0,0.0,0.0,0.0
1776358657507591700,40724,0.0,0.3,0.016,1.1,0.08,0.02,1.5,-2.63,-1.25,0.12,-0.01,-0.35,0.06,-0.06,-0.06,208.72,212.0,0.0,0.0,0.0,0.0
1776358657610025722,40824,0.0,0.2,0.016,0.0,0.06,-0.04,1.5,-2.63,-1.25,0.09,-0.02,-0.35,-0.0,0.06,0.0,209.06,217.0,0.0,0.0,0.0,0.0
1776358657718494545,40925,0.0,0.4,0.0,0.4,0.06,-0.21,1.5,-2.63,-1.25,0.1,-0.01,-0.35,-0.0,0.06,-0.12,209.74,217.0,0.0,0.0,0.0,0.0
1776358657810751121,41025,0.012,0.2,0.0,0.8,0.0,-0.12,1.5,-2.63,-1.25,0.1,-0.02,-0.37,-0.06,-0.0,0.06,200.31,189.0,0.0,0.0,0.0,0.0
1776358657909059111,41125,0.0,0.6,0.0,0.8,0.06,-0.16,1.5,-2.63,-1.25,0.1,-0.03,-0.37,-0.12,0.25,0.12,205.46,213.0,0.0,0.0,0.0,0.0
1776358658011478093,41226,0.008,0.0,0.0,0.5,0.16,-0.14,1.5,-2.63,-1.25,0.11,-0.01,-0.37,0.06,0.12,0.0,205.46,213.0,0.0,0.0,0.0,0.0
1776358658109773100,41326,0.004,0.3,0.0,0.2,0.08,-0.12,1.5,-2.63,-1.25,0.11,0.01,-0.36,-0.0,0.19,0.06,209.57,208.0,0.0,0.0,0.0,0.0
1776358658212183118,41425,0.04,0.4,0.036,0.8,0.12,-0.27,1.5,-2.63,-1.25,0.13,-0.02,-0.37,-0.06,0.12,0.19,213.86,208.0,0.0,0.0,0.0,0.0
1776358658310540112,41525,0.044,0.6,0.0,0.1,-0.04,-0.14,1.5,-2.63,-1.25,0.1,0.01,-0.37,-0.0,0.06,0.0,204.94,216.0,0.0,0.0,0.0,0.0
1776358658408896735,41625,0.0,0.2,0.036,0.2,-0.08,-0.21,1.5,-2.63,-1.25,0.1,-0.01,-0.35,-0.12,-0.0,0.0,11939.14,206.0,0.0,0.0,0.0,0.0
1776358658511165833,41725,0.0,0.5,0.0,0.8,0.04,0.0,1.5,-2.63,-1.25,0.1,-0.03,-0.34,-0.12,0.12,0.06,212.83,206.0,0.0,0.0,0.0,0.0
1776358658609490786,41825,0.0,0.7,0.008,0.5,0.12,-0.14,1.5,-2.63,-1.25,0.09,-0.02,-0.35,-0.0,0.06,0.0,201.34,197.0,0.0,0.0,0.0,0.0
1776358658711917065,41925,0.0,0.6,0.0,1.0,-0.04,-0.06,1.5,-2.63,-1.25,0.11,-0.02,-0.36,0.06,-0.0,0.06,204.43,210.0,0.0,0.0,0.0,0.0
1776358658810238667,42025,0.012,0.5,0.0,0.8,-0.06,-0.14,1.5,-2.63,-1.25,0.12,-0.0,-0.36,-0.06,0.12,-0.06,222.26,210.0,0.0,0.0,0.0,0.0
1776358658912694541,42126,0.004,0.3,0.0,0.9,-0.02,-0.02,1.5,-2.63,-1.25,0.1,-0.0,-0.37,-0.06,-0.0,0.0,235.3,206.0,0.0,0.0,0.0,0.0
1776358659010943191,42225,0.008,0.1,0.0,0.1,-0.08,-0.25,1.5,-2.63,-1.25,0.11,-0.02,-0.37,-0.0,0.06,-0.12,201.34,201.0,0.0,0.0,0.0,0.0
1776358659109258774,42324,0.004,0.4,0.0,0.3,-0.08,-0.23,1.5,-2.63,-1.25,0.1,-0.0,-0.37,-0.06,0.12,0.06,201.34,201.0,0.0,0.0,0.0,0.0
1776358659211669050,42424,0.0,0.6,0.0,1.2,-0.02,-0.04,1.5,-2.63,-1.25,0.12,-0.01,-0.37,-0.06,-0.12,0.06,218.15,215.0,0.0,0.0,0.0,0.0
1776358659551222167,42524,0.048,0.2,0.0,1.1,-0.02,-0.1,1.5,-2.63,-1.25,0.1,-0.0,-0.34,0.06,-0.12,0.06,204.43,196.0,0.0,0.0,0.0,0.0
1776358659609023573,42625,0.036,0.3,0.0,0.5,-0.1,-0.04,1.5,-2.63,-1.25,0.11,-0.01,-0.37,-0.06,0.12,0.12,209.74,196.0,0.0,0.0,0.0,0.0
1776358659617315841,42725,0.024,0.4,0.0,1.2,-0.04,-0.14,1.5,-2.63,-1.25,0.1,-0.0,-0.36,-0.06,-0.06,0.06,209.74,204.0,0.0,0.0,0.0,0.0
1776358659630324082,42824,0.02,0.9,0.016,0.6,0.0,-0.16,1.5,-2.63,-1.25,0.1,-0.01,-0.35,0.06,-0.0,-0.06,205.63,204.0,0.0,0.0,0.0,0.0
1776358659711395346,42924,0.012,0.1,0.0,0.3,-0.12,0.02,1.5,-2.63,-1.25,0.09,-0.04,-0.36,-0.06,-0.06,0.06,205.63,209.0,0.0,0.0,0.0,0.0
1776358659809721411,43025,0.0,0.1,0.0,0.3,0.06,-0.25,1.5,-2.63,-1.25,0.09,-0.01,-0.39,-0.0,-0.12,0.06,205.46,204.0,0.0,0.0,0.0,0.0
1776358659918148744,43124,0.008,0.3,0.0,0.6,0.16,-0.04,1.5,-2.63,-1.25,0.1,-0.01,-0.38,0.12,-0.19,0.06,216.95,204.0,0.0,0.0,0.0,0.0
1776358660010434601,43224,0.008,0.1,0.0,1.0,-0.14,-0.16,1.5,-2.63,-1.25,0.09,-0.01,-0.36,0.06,-0.12,-0.12,216.95,208.0,0.0,0.0,0.0,0.0
1776358660127220650,43324,0.004,0.2,0.0,0.5,-0.12,-0.31,1.5,-2.63,-1.25,0.1,-0.0,-0.36,0.06,-0.0,0.0,216.95,218.0,0.0,0.0,0.0,0.0
1776358660211181388,43424,0.0,0.8,0.036,0.9,-0.02,0.02,1.5,-2.63,-1.25,0.09,-0.02,-0.37,-0.0,-0.0,0.0,201.34,218.0,0.0,0.0,0.0,0.0
1776358660313513601,43525,0.052,0.2,0.0,1.0,0.02,-0.1,1.5,-2.63,-1.25,0.1,-0.02,-0.36,-0.0,0.12,0.06,213.86,217.0,0.0,0.0,0.0,0.0
1776358660411819479,43625,0.0,0.6,0.032,0.1,-0.04,-0.1,1.5,-2.63,-1.25,0.12,-0.02,-0.36,-0.06,-0.06,0.0,196.54,199.0,0.0,0.0,0.0,0.0
1776358660510168361,43724,0.0,0.6,0.0,1.4,-0.02,-0.18,1.5,-2.63,-1.25,0.09,-0.0,-0.36,0.12,-0.06,-0.06,199.63,199.0,0.0,0.0,0.0,0.0
1776358660612586600,43824,0.016,0.4,0.0,0.1,-0.02,-0.14,1.5,-2.63,-1.25,0.11,-0.0,-0.37,0.06,-0.0,0.0,226.38,203.0,0.0,0.0,0.0,0.0
1776358660714984616,43925,0.012,-0.1,0.0,0.5,0.1,-0.18,1.5,-2.63,-1.25,0.09,-0.0,-0.35,0.12,0.06,0.12,200.83,203.0,0.0,0.0,0.0,0.0
1776358660919223539,44026,0.0,0.4,0.0,1.2,-0.1,-0.06,1.5,-2.63,-1.25,0.1,-0.01,-0.37,-0.0,-0.12,0.0,11942.75,224.0,0.0,0.0,0.0,0.0
1776358660931431278,44126,0.012,1.1,0.004,0.6,-0.06,-0.08,1.5,-2.63,-1.25,0.1,-0.0,-0.35,0.12,-0.12,0.0,11941.72,223.0,0.0,0.0,0.0,0.0
1776358661021915820,44226,0.0,0.2,0.0,1.1,-0.04,-0.06,1.5,-2.63,-1.25,0.1,-0.02,-0.37,-0.0,-0.0,0.0,11941.54,204.0,0.0,0.0,0.0,0.0
1776358661114442759,44326,0.004,0.1,0.0,0.2,-0.1,-0.04,1.5,-2.63,-1.25,0.1,-0.01,-0.37,0.25,-0.12,-0.12,11942.4,204.0,0.0,0.0,0.0,0.0
1776358661214729172,44426,0.0,-0.1,0.0,0.7,-0.04,-0.14,1.5,-2.63,-1.25,0.08,-0.0,-0.36,0.06,-0.06,-0.06,204.94,203.0,0.0,0.0,0.0,0.0
1776358661313028550,44527,0.052,0.2,0.0,0.7,0.04,-0.06,1.5,-2.63,-1.25,0.09,-0.0,-0.37,-0.0,-0.06,-0.12,209.06,203.0,0.0,0.0,0.0,0.0
1776358661415410972,44626,0.0,0.4,0.0,0.8,-0.1,-0.16,1.5,-2.63,-1.25,0.11,-0.01,-0.37,-0.12,0.12,0.12,209.74,226.0,0.0,0.0,0.0,0.0
1776358661513733482,44726,0.028,0.2,0.0,0.8,-0.14,-0.06,1.5,-2.63,-1.25,0.12,-0.0,-0.38,-0.0,-0.0,0.0,218.15,226.0,0.0,0.0,0.0,0.0
1776358661616162260,44827,0.024,0.1,0.0,0.4,-0.14,-0.1,1.5,-2.63,-1.25,0.1,-0.0,-0.36,-0.0,-0.0,0.0,230.67,223.0,0.0,0.0,0.0,0.0
1776358661714466583,44926,0.016,0.3,0.0,1.0,-0.08,-0.12,1.5,-2.63,-1.25,0.11,-0.01,-0.36,-0.06,0.12,0.06,204.94,218.0,0.0,0.0,0.0,0.0
1776358661831227182,45026,0.008,0.2,0.0,0.9,-0.08,0.0,1.5,-2.63,-1.25,0.1,-0.02,-0.4,-0.06,-0.0,0.06,199.63,218.0,0.0,0.0,0.0,0.0
1776358661915182016,45126,0.004,0.3,0.0,0.1,0.16,-0.08,1.5,-2.63,-1.25,0.12,-0.01,-0.38,-0.0,0.12,-0.06,243.19,211.0,0.0,0.0,0.0,0.0
1776358662015519006,45227,0.004,0.1,0.0,0.5,-0.04,-0.2,1.5,-2.63,-1.25,0.08,-0.0,-0.38,0.06,-0.06,0.06,11940.86,221.0,0.0,0.0,0.0,0.0
1776358662115906041,45327,0.004,0.2,0.0,1.0,-0.06,-0.02,1.5,-2.63,-1.25,0.12,-0.02,-0.36,-0.12,-0.0,-0.06,209.06,221.0,0.0,0.0,0.0,0.0
1776358662214159509,45427,0.048,0.1,0.0,1.2,-0.08,-0.06,1.5,-2.63,-1.25,0.1,-0.01,-0.34,0.06,-0.0,0.06,241.99,206.0,0.0,0.0,0.0,0.0
1776358662316627847,45528,0.052,1.1,0.048,0.3,-0.02,-0.23,1.5,-2.63,-1.25,0.11,0.01,-0.39,0.06,0.06,-0.06,11939.14,206.0,0.0,0.0,0.0,0.0
1776358662414892779,45627,0.0,0.2,0.032,0.3,0.06,-0.14,1.5,-2.63,-1.25,0.09,-0.02,-0.37,-0.0,0.06,0.06,11938.97,220.0,0.0,0.0,0.0,0.0
1776358662517279461,45727,0.024,0.4,0.0,0.9,0.04,-0.1,1.5,-2.63,-1.25,0.1,-0.0,-0.37,-0.0,0.06,-0.06,11939.49,220.0,0.0,0.0,0.0,0.0
1776358662615635772,45828,0.0,0.5,0.0,1.2,0.0,0.04,1.5,-2.63,-1.25,0.1,-0.01,-0.37,-0.12,0.06,-0.06,221.58,220.0,0.0,0.0,0.0,0.0
1776358662726058934,45928,0.012,0.2,0.012,0.3,0.2,-0.29,1.5,-2.63,-1.25,0.09,-0.0,-0.35,-0.12,0.12,-0.06,11939.66,219.0,0.0,0.0,0.0,0.0
1776358662818373985,46028,0.004,0.3,0.0,0.4,0.14,-0.08,1.5,-2.63,-1.25,0.08,-0.02,-0.38,-0.06,0.06,0.0,11939.66,216.0,0.0,0.0,0.0,0.0
1776358662916668754,46128,0.0,0.4,0.0,0.1,-0.08,-0.14,1.5,-2.63,-1.25,0.11,-0.0,-0.37,-0.06,-0.06,-0.06,11938.46,211.0,0.0,0.0,0.0,0.0
1776358663017071474,46228,0.0,0.4,0.0,1.3,0.08,-0.18,1.5,-2.63,-1.25,0.09,-0.01,-0.37,0.06,-0.12,0.0,216.26,211.0,0.0,0.0,0.0,0.0
1776358663175225243,46329,0.0,0.3,0.0,1.4,-0.06,-0.14,1.5,-2.63,-1.25,0.09,-0.01,-0.38,0.12,-0.0,0.0,217.29,218.0,0.0,0.0,0.0,0.0
1776358663219808135,46429,0.048,1.0,0.0,0.7,-0.06,-0.23,1.5,-2.63,-1.25,0.1,-0.0,-0.37,-0.06,-0.06,0.0,11938.29,204.0,0.0,0.0,0.0,0.0
1776358663320202506,46529,0.048,0.1,0.0,0.1,-0.08,-0.1,1.5,-2.63,-1.25,0.12,-0.01,-0.37,-0.06,-0.06,0.12,11938.63,204.0,0.0,0.0,0.0,0.0
1776358663424489141,46629,0.0,0.2,0.0,0.8,0.06,-0.1,1.5,-2.63,-1.25,0.11,-0.0,-0.38,-0.06,-0.06,0.0,11938.63,213.0,0.0,0.0,0.0,0.0
1776358663518792656,46729,0.0,0.9,0.016,0.5,-0.08,-0.18,1.5,-2.63,-1.25,0.09,-0.02,-0.36,0.06,-0.0,-0.06,11940.17,210.0,0.0,0.0,0.0,0.0
1776358663621211731,46829,0.0,0.5,0.0,1.0,-0.04,-0.08,1.5,-2.63,-1.25,0.11,-0.02,-0.35,0.06,-0.06,0.06,11940.69,210.0,0.0,0.0,0.0,0.0
1776358663717515114,46929,0.0,0.6,0.0,0.3,0.16,-0.18,1.5,-2.63,-1.25,0.11,-0.01,-0.36,0.19,0.12,0.0,213.17,210.0,0.0,0.0,0.0,0.0
1776358663835231187,47029,0.0,0.7,0.004,0.5,0.0,-0.25,1.5,-2.63,-1.25,0.1,-0.02,-0.38,-0.06,-0.12,0.0,200.66,207.0,0.0,0.0,0.0,0.0
1776358663918242572,47129,0.004,0.0,0.0,0.3,0.0,-0.04,1.5,-2.63,-1.25,0.1,-0.03,-0.37,-0.06,-0.25,0.06,209.57,218.0,0.0,0.0,0.0,0.0
1776358664016550490,47228,0.004,0.3,0.0,1.0,0.0,-0.1,1.5,-2.63,-1.25,0.1,-0.01,-0.38,-0.06,-0.12,0.0,200.31,218.0,0.0,0.0,0.0,0.0
1776358664118956362,47328,0.0,0.4,0.0,1.3,0.04,-0.12,1.5,-2.63,-1.25,0.11,-0.02,-0.38,0.06,0.06,0.0,213.86,207.0,0.0,0.0,0.0,0.0
1776358664217235078,47429,0.048,0.4,0.0,0.1,0.12,-0.18,1.5,-2.63,-1.25,0.12,-0.02,-0.37,-0.06,0.06,0.0,221.24,208.0,0.0,0.0,0.0,0.0
1776358664319669915,47529,0.0,0.5,0.0,1.3,0.06,0.0,1.5,-2.63,-1.25,0.1,-0.0,-0.37,-0.0,0.06,0.0,234.27,208.0,0.0,0.0,0.0,0.0
1776358664417975004,47630,0.036,0.0,0.0,1.3,-0.06,-0.14,1.5,-2.63,-1.25,0.09,-0.01,-0.37,-0.06,0.06,-0.12,11938.46,198.0,0.0,0.0,0.0,0.0
1776358664520386654,47730,0.024,0.2,0.0,1.2,0.02,-0.2,1.5,-2.63,-1.25,0.12,-0.02,-0.38,0.12,-0.19,-0.12,209.06,198.0,0.0,0.0,0.0,0.0
1776358664618689057,47830,0.02,0.0,0.0,1.2,-0.02,-0.16,1.5,-2.63,-1.25,0.12,-0.02,-0.37,-0.06,-0.0,0.06,238.9,204.0,0.0,0.0,0.0,0.0
1776358664721110431,47930,0.016,0.1,0.012,0.3,0.04,-0.08,1.5,-2.63,-1.25,0.12,-0.0,-0.39,-0.06,-0.19,-0.06,241.99,207.0,0.0,0.0,0.0,0.0
1776358664819416279,48029,0.012,0.3,0.0,0.8,-0.02,-0.08,1.5,-2.63,-1.25,0.09,-0.02,-0.37,-0.0,-0.12,0.06,238.9,207.0,0.0,0.0,0.0,0.0
1776358664921821169,48130,0.0,0.3,0.0,0.0,-0.04,0.02,1.5,-2.63,-1.25,0.11,-0.01,-0.38,-0.0,-0.0,-0.06,251.42,205.0,0.0,0.0,0.0,0.0
1776358665020143535,48230,0.0,1.0,0.0,0.7,-0.02,-0.08,1.5,-2.63,-1.25,0.08,-0.0,-0.38,0.06,-0.06,0.06,234.78,217.0,0.0,0.0,0.0,0.0
1776358665118437422,48329,0.008,0.0,0.0,0.2,0.12,-0.12,1.5,-2.63,-1.25,0.11,-0.01,-0.38,0.06,-0.06,0.0,230.5,217.0,0.0,0.0,0.0,0.0
1776358665228896293,48429,0.0,0.6,0.052,0.1,-0.14,-0.16,1.5,-2.63,-1.25,0.1,-0.02,-0.37,-0.0,-0.06,0.12,11939.14,194.0,0.0,0.0,0.0,0.0
1776358665319219376,48529,0.052,0.2,0.048,0.3,0.0,-0.06,1.5,-2.63,-1.25,0.09,-0.0,-0.35,0.12,0.06,0.0,11938.97,207.0,0.0,0.0,0.0,0.0
1776358665417470870,48629,0.0,0.0,0.0,0.6,0.02,-0.18,1.5,-2.63,-1.25,0.09,-0.01,-0.37,-0.06,0.12,-0.12,11937.94,200.0,0.0,0.0,0.0,0.0
1776358665527791506,48729,0.0,0.7,0.0,1.2,0.0,-0.2,1.5,-2.63,-1.25,0.09,-0.02,-0.37,0.12,-0.12,0.0,11937.6,200.0,0.0,0.0,0.0,0.0
1776358665630387564,48829,0.02,0.3,0.0,0.2,-0.02,-0.16,1.5,-2.63,-1.25,0.09,-0.01,-0.38,0.12,0.12,0.06,11936.23,205.0,0.0,0.0,0.0,0.0
1776358665720593896,48929,0.008,0.1,0.0,0.6,0.02,-0.14,1.5,-2.63,-1.25,0.08,-0.01,-0.37,0.19,-0.0,0.06,230.5,205.0,0.0,0.0,0.0,0.0
1776358665839230423,49029,0.0,0.3,0.0,0.9,0.0,-0.16,1.5,-2.63,-1.25,0.11,-0.01,-0.37,0.06,0.06,0.0,11937.26,211.0,0.0,0.0,0.0,0.0
1776358665959222962,49129,0.004,0.3,0.0,1.1,-0.16,-0.18,1.5,-2.63,-1.25,0.1,-0.0,-0.37,0.06,-0.0,0.06,238.9,211.0,0.0,0.0,0.0,0.0
1776358666021678121,49229,0.0,0.6,0.0,0.7,-0.04,-0.06,1.5,-2.63,-1.25,0.1,-0.03,-0.4,-0.06,-0.06,-0.06,11937.94,219.0,0.0,0.0,0.0,0.0
1776358666130038024,49329,0.0,0.7,0.0,0.5,-0.04,-0.27,1.5,-2.63,-1.25,0.11,-0.01,-0.39,-0.06,0.06,0.06,11936.23,205.0,0.0,0.0,0.0,0.0
1776358666222366740,49429,0.052,0.4,0.044,0.2,0.04,-0.14,1.5,-2.63,-1.25,0.09,-0.02,-0.38,-0.0,0.06,0.0,11935.37,205.0,0.0,0.0,0.0,0.0
1776358666318605331,49529,0.0,1.0,0.0,0.3,-0.1,-0.08,1.5,-2.63,-1.25,0.12,-0.01,-0.4,-0.12,0.06,-0.06,11936.91,205.0,0.0,0.0,0.0,0.0
1776358666426992995,49629,0.0,0.8,0.0,1.0,-0.04,-0.2,1.5,-2.63,-1.25,0.1,-0.02,-0.4,-0.06,-0.06,-0.19,11937.6,220.0,0.0,0.0,0.0,0.0
1776358666521183881,49729,0.0,0.2,0.0,0.7,0.08,-0.14,1.5,-2.63,-1.25,0.09,-0.03,-0.37,-0.0,0.12,0.0,11936.91,204.0,0.0,0.0,0.0,0.0
1776358666623860264,49829,0.0,0.3,0.0,0.3,-0.16,-0.04,1.5,-2.63,-1.25,0.11,-0.03,-0.37,0.06,-0.06,-0.19,11940.0,204.0,0.0,0.0,0.0,0.0
1776358666720062519,49929,0.0,1.0,0.0,0.6,-0.1,-0.2,1.5,-2.63,-1.25,0.1,-0.0,-0.37,-0.0,-0.12,-0.12,209.06,204.0,0.0,0.0,0.0,0.0
1776358666822462451,50029,0.016,0.2,0.004,0.2,-0.06,-0.16,1.5,-2.63,-1.25,0.11,-0.0,-0.4,0.06,-0.0,0.0,216.26,202.0,0.0,0.0,0.0,0.0
1776358667023222388,50129,0.0,0.2,0.0,0.9,-0.08,-0.2,1.5,-2.63,-1.25,0.07,-0.01,-0.42,-0.0,-0.06,-0.12,11940.86,214.0,0.0,0.0,0.0,0.0
1776358667035061894,50229,0.008,0.1,0.0,1.0,-0.04,-0.21,1.5,-2.63,-1.25,0.1,-0.03,-0.37,-0.19,-0.0,0.0,237.7,214.0,0.0,0.0,0.0,0.0
1776358667121501484,50329,0.0,0.8,0.0,0.2,0.1,-0.14,1.5,-2.63,-1.25,0.1,-0.01,-0.38,-0.19,-0.0,-0.06,216.95,213.0,0.0,0.0,0.0,0.0
1776358667219800675,50429,0.0,0.3,0.0,0.7,0.02,-0.14,1.5,-2.63,-1.25,0.11,-0.0,-0.4,0.06,-0.12,-0.12,217.98,226.0,0.0,0.0,0.0,0.0
1776358667322176683,50530,0.052,0.4,0.0,1.0,0.02,-0.16,1.5,-2.63,-1.25,0.11,-0.02,-0.38,-0.12,-0.0,0.0,196.54,226.0,0.0,0.0,0.0,0.0
1776358667420476059,50630,0.036,0.4,0.0,0.7,-0.16,-0.06,1.5,-2.63,-1.25,0.11,-0.01,-0.38,-0.06,-0.0,-0.06,200.66,219.0,0.0,0.0,0.0,0.0
1776358667531076502,50729,0.0,0.6,0.0,1.0,0.12,-0.14,1.5,-2.63,-1.25,0.1,-0.0,-0.38,-0.0,-0.06,0.0,11941.37,217.0,0.0,0.0,0.0,0.0
1776358667621243044,50829,0.0,0.8,0.008,0.5,0.04,-0.18,1.5,-2.63,-1.25,0.09,-0.01,-0.38,-0.06,0.12,0.0,209.06,217.0,0.0,0.0,0.0,0.0
1776358667731665582,50929,0.0,0.3,0.0,1.0,-0.1,-0.29,1.5,-2.63,-1.25,0.1,-0.01,-0.38,0.06,0.06,0.12,11941.37,201.0,0.0,0.0,0.0,0.0
1776358667821949930,51030,0.008,0.4,0.0,0.6,-0.12,-0.2,1.5,-2.63,-1.25,0.09,-0.01,-0.38,0.06,-0.12,0.0,238.9,202.0,0.0,0.0,0.0,0.0
1776358667932379098,51131,0.0,0.5,0.0,1.0,-0.02,-0.02,1.5,-2.63,-1.25,0.1,-0.03,-0.39,-0.06,0.06,0.0,11939.49,206.0,0.0,0.0,0.0,0.0
1776358668024783731,51230,0.0,0.2,0.0,0.2,-0.1,-0.04,1.5,-2.63,-1.25,0.1,-0.02,-0.38,-0.0,0.19,-0.06,11939.66,206.0,0.0,0.0,0.0,0.0
1776358668125068404,51331,0.0,0.2,0.0,0.3,0.14,-0.25,1.5,-2.63,-1.25,0.09,-0.01,-0.37,-0.0,-0.06,-0.06,209.06,206.0,0.0,0.0,0.0,0.0
1776358668223380656,51431,0.0,0.6,0.052,0.5,0.02,-0.1,1.5,-2.63,-1.25,0.09,-0.01,-0.37,-0.06,0.19,0.06,230.5,211.0,0.0,0.0,0.0,0.0
1776358668325804745,51531,0.052,0.2,0.0,1.1,-0.08,-0.16,1.5,-2.63,-1.25,0.11,-0.0,-0.37,-0.06,-0.0,-0.06,234.78,212.0,0.0,0.0,0.0,0.0
1776358668430084912,51631,0.032,0.1,0.0,1.3,0.06,-0.1,1.5,-2.63,-1.25,0.08,-0.01,-0.39,-0.0,0.12,0.06,11937.6,207.0,0.0,0.0,0.0,0.0
1776358668534581227,51731,0.0,0.9,0.0,0.9,-0.02,-0.14,1.5,-2.63,-1.25,0.13,-0.03,-0.37,-0.06,-0.06,-0.06,11937.26,207.0,0.0,0.0,0.0,0.0
1776358668627017833,51831,0.0,0.4,0.0,0.5,0.08,-0.16,1.5,-2.63,-1.25,0.1,-0.0,-0.37,-0.0,0.06,0.12,11937.94,202.0,0.0,0.0,0.0,0.0
1776358668725272709,51931,0.0,0.4,0.0,1.0,-0.16,-0.23,1.5,-2.63,-1.25,0.09,-0.0,-0.35,0.06,-0.0,0.0,11935.2,213.0,0.0,0.0,0.0,0.0
1776358668833547054,52031,0.012,0.2,0.0,0.5,-0.12,-0.14,1.5,-2.63,-1.25,0.1,-0.0,-0.38,-0.0,-0.06,0.06,11936.91,213.0,0.0,0.0,0.0,0.0
1776358668925865020,52131,0.0,0.1,0.0,0.8,0.12,-0.14,1.5,-2.63,-1.25,0.1,-0.0,-0.37,0.06,-0.12,0.06,11936.91,205.0,0.0,0.0,0.0,0.0
1776358669034254408,52231,0.0,0.0,0.0,0.9,0.08,-0.12,1.5,-2.63,-1.25,0.08,-0.01,-0.4,-0.06,0.06,0.0,11935.54,212.0,0.0,0.0,0.0,0.0
1776358669124556307,52331,0.0,0.6,0.0,1.2,-0.06,-0.06,1.5,-2.63,-1.25,0.1,-0.02,-0.37,0.12,0.12,-0.06,234.61,212.0,0.0,0.0,0.0,0.0
1776358669222845377,52431,0.0,1.0,0.044,0.4,-0.1,-0.21,1.5,-2.63,-1.25,0.1,-0.02,-0.36,-0.0,0.06,0.12,222.09,212.0,0.0,0.0,0.0,0.0
1776358669325300677,52531,0.052,0.3,0.0,0.4,-0.06,-0.12,1.5,-2.63,-1.25,0.09,-0.0,-0.36,-0.06,0.06,0.06,11935.2,203.0,0.0,0.0,0.0,0.0
1776358669423583487,52631,0.036,0.1,0.0,0.2,0.06,-0.14,1.5,-2.63,-1.25,0.09,-0.02,-0.37,-0.12,-0.0,0.06,11936.4,202.0,0.0,0.0,0.0,0.0
1776358669527960221,52731,0.028,0.1,0.0,0.3,-0.1,-0.14,1.5,-2.63,-1.25,0.09,-0.02,-0.39,-0.06,-0.06,0.19,11934.68,204.0,0.0,0.0,0.0,0.0
1776358669626449772,52831,0.0,0.6,0.016,0.3,0.14,-0.04,1.5,-2.63,-1.25,0.07,-0.02,-0.39,-0.06,-0.0,0.12,11937.26,204.0,0.0,0.0,0.0,0.0
1776358669734734103,52931,0.0,0.4,0.0,0.3,-0.08,-0.16,1.5,-2.63,-1.25,0.09,-0.01,-0.37,-0.06,-0.06,0.12,11937.43,219.0,0.0,0.0,0.0,0.0
1776358670143216627,53031,0.0,1.1,0.0,0.2,-0.08,-0.18,1.5,-2.63,-1.25,0.11,-0.0,-0.36,0.06,-0.12,-0.06,11936.57,207.0,0.0,0.0,0.0,0.0
1776358670155677630,53131,0.0,0.1,0.0,0.2,0.08,-0.1,1.5,-2.63,-1.25,0.1,-0.01,-0.36,0.06,-0.06,0.0,217.98,207.0,0.0,0.0,0.0,0.0
1776358670226443427,53231,0.0,0.0,0.0,0.6,0.0,-0.08,1.5,-2.63,-1.25,0.1,-0.01,-0.37,-0.12,0.12,0.06,222.09,207.0,0.0,0.0,0.0,0.0
1776358670239635959,53331,0.0,0.1,0.0,0.3,0.08,-0.12,1.5,-2.63,-1.25,0.11,-0.01,-0.37,-0.12,-0.12,-0.06,213.86,205.0,0.0,0.0,0.0,0.0
1776358670253290847,53431,0.0,0.3,0.0,0.9,-0.06,-0.14,1.5,-2.63,-1.25,0.11,-0.03,-0.37,-0.06,-0.0,0.0,217.98,206.0,0.0,0.0,0.0,0.0
1776358670324719334,53531,0.056,0.4,0.04,1.0,0.16,-0.18,1.5,-2.63,-1.25,0.08,-0.02,-0.39,0.12,-0.06,0.0,11936.06,197.0,0.0,0.0,0.0,0.0
1776358670427132450,53632,0.0,0.8,0.032,0.3,-0.04,-0.33,1.5,-2.63,-1.25,0.1,-0.01,-0.38,-0.06,0.06,0.19,216.95,197.0,0.0,0.0,0.0,0.0
1776358670525431341,53732,0.0,0.7,0.02,0.9,-0.02,-0.2,1.5,-2.63,-1.25,0.08,-0.01,-0.36,0.06,-0.0,-0.06,209.57,203.0,0.0,0.0,0.0,0.0
1776358670623744492,53831,0.0,0.1,0.012,0.2,0.02,-0.14,1.5,-2.63,-1.25,0.1,-0.0,-0.37,-0.0,0.06,0.06,217.98,203.0,0.0,0.0,0.0,0.0
1776358670726182055,53931,0.016,0.3,0.0,1.1,0.06,-0.06,1.5,-2.63,-1.25,0.1,-0.01,-0.37,-0.06,0.06,0.0,209.57,202.0,0.0,0.0,0.0,0.0
1776358670824515653,54031,0.0,0.4,0.0,1.0,-0.1,-0.23,1.5,-2.63,-1.25,0.1,-0.0,-0.37,-0.06,0.06,0.06,230.5,206.0,0.0,0.0,0.0,0.0
1776358670943220322,54130,0.008,0.2,0.0,1.0,-0.04,-0.1,1.5,-2.63,-1.25,0.11,-0.01,-0.38,-0.06,0.06,0.0,11938.12,203.0,0.0,0.0,0.0,0.0
1776358671025207323,54231,0.004,0.2,0.0,0.4,0.0,-0.14,1.5,-2.63,-1.25,0.09,-0.01,-0.38,0.19,-0.06,0.0,234.78,203.0,0.0,0.0,0.0,0.0
1776358671127584293,54332,0.0,0.2,0.0,0.6,-0.06,-0.1,1.5,-2.63,-1.25,0.11,-0.0,-0.37,-0.12,-0.0,0.06,230.5,203.0,0.0,0.0,0.0,0.0
1776358671225919378,54432,0.0,0.7,0.0,1.1,0.0,-0.1,1.5,-2.63,-1.25,0.1,-0.01,-0.37,0.06,0.12,0.06,218.15,207.0,0.0,0.0,0.0,0.0
1776358671328332721,54532,0.0,0.6,0.0,1.0,0.04,-0.12,1.5,-2.63,-1.25,0.09,-0.02,-0.36,-0.0,-0.12,-0.06,11939.83,211.0,0.0,0.0,0.0,0.0
1776358671426695235,54632,0.036,0.3,0.0,0.9,0.04,-0.14,1.5,-2.63,-1.25,0.11,-0.0,-0.37,-0.12,-0.19,-0.12,11937.26,193.0,0.0,0.0,0.0,0.0
1776358671536988293,54732,0.028,0.3,0.0,1.0,0.0,-0.04,1.5,-2.63,-1.25,0.11,-0.01,-0.36,0.06,0.12,0.06,11936.91,193.0,0.0,0.0,0.0,0.0
1776358671629394136,54833,0.0,0.4,0.0,0.9,-0.04,-0.16,1.5,-2.63,-1.25,0.09,-0.0,-0.38,-0.12,0.12,0.06,11937.09,220.0,0.0,0.0,0.0,0.0
1776358671729765461,54933,0.0,0.6,0.0,0.5,0.04,-0.08,1.5,-2.63,-1.25,0.1,-0.01,-0.38,-0.12,-0.0,-0.06,217.98,220.0,0.0,0.0,0.0,0.0
1776358671935218316,55033,0.0,1.1,0.004,0.5,-0.04,-0.06,1.5,-2.63,-1.25,0.12,-0.01,-0.36,-0.0,0.06,0.0,11935.89,210.0,0.0,0.0,0.0,0.0
1776358671947986030,55133,0.004,0.0,0.0,0.8,-0.1,-0.1,1.5,-2.63,-1.25,0.13,-0.02,-0.37,-0.06,-0.25,0.06,11936.74,223.0,0.0,0.0,0.0,0.0
1776358672030692527,55233,0.004,0.2,0.0,1.0,0.02,-0.12,1.5,-2.63,-1.25,0.07,-0.01,-0.34,0.06,-0.19,0.06,11933.14,203.0,0.0,0.0,0.0,0.0
1776358672129069992,55333,0.004,0.5,0.0,0.7,-0.18,-0.16,1.5,-2.63,-1.25,0.09,-0.0,-0.37,-0.0,-0.06,0.0,11935.54,203.0,0.0,0.0,0.0,0.0
1776358672231513863,55433,0.048,0.2,0.0,0.3,-0.08,-0.16,1.5,-2.63,-1.25,0.12,-0.0,-0.36,0.12,-0.06,-0.06,11934.17,213.0,0.0,0.0,0.0,0.0
1776358672327862348,55533,0.0,0.9,0.044,0.3,0.0,-0.08,1.5,-2.63,-1.25,0.09,-0.01,-0.35,-0.0,-0.06,-0.06,230.5,213.0,0.0,0.0,0.0,0.0
1776358672426158379,55632,0.04,0.2,0.028,1.2,0.04,-0.21,1.5,-2.63,-1.25,0.13,-0.02,-0.36,-0.06,-0.06,0.06,11936.74,221.0,0.0,0.0,0.0,0.0
1776358672536442849,55732,0.0,0.1,0.0,0.3,0.06,-0.12,1.5,-2.63,-1.25,0.1,-0.0,-0.35,0.06,0.19,0.12,11936.4,207.0,0.0,0.0,0.0,0.0
1776358672628935188,55832,0.016,0.1,0.0,1.1,-0.02,0.04,1.5,-2.63,-1.25,0.1,-0.0,-0.37,0.06,-0.19,0.06,11938.46,207.0,0.0,0.0,0.0,0.0
1776358672737292335,55932,0.0,1.0,0.012,0.5,0.06,-0.08,1.5,-2.63,-1.25,0.1,-0.03,-0.36,0.06,-0.0,0.06,11937.09,225.0,0.0,0.0,0.0,0.0
1776358672835513045,56032,0.0,0.5,0.0,1.0,-0.04,-0.12,1.5,-2.63,-1.25,0.11,-0.03,-0.35,-0.06,-0.0,0.06,11936.06,207.0,0.0,0.0,0.0,0.0
1776358672930005622,56132,0.0,0.4,0.0,0.9,-0.04,-0.06,1.5,-2.63,-1.25,0.11,-0.01,-0.36,-0.0,-0.06,0.0,11938.97,207.0,0.0,0.0,0.0,0.0
1776358673028268555,56232,0.0,0.3,0.0,0.7,0.06,-0.2,1.5,-2.63,-1.25,0.1,-0.01,-0.37,0.06,-0.06,-0.06,229.47,214.0,0.0,0.0,0.0,0.0
1776358673138700636,56332,0.0,0.3,0.0,1.1,0.02,-0.02,1.5,-2.63,-1.25,0.11,-0.01,-0.37,0.12,-0.06,0.06,11936.06,215.0,0.0,0.0,0.0,0.0
1776358673229032602,56432,0.052,0.1,0.0,1.3,-0.08,-0.02,1.5,-2.63,-1.25,0.11,-0.01,-0.34,0.19,-0.0,0.06,237.87,215.0,0.0,0.0,0.0,0.0
1776358673327367588,56531,0.044,0.3,0.0,0.3,-0.02,-0.08,1.5,-2.63,-1.25,0.11,-0.01,-0.36,0.06,0.06,-0.06,11936.74,206.0,0.0,0.0,0.0,0.0
1776358673435696330,56631,0.036,0.2,0.0,0.1,0.0,-0.18,1.5,-2.63,-1.25,0.09,-0.01,-0.37,-0.19,0.19,0.0,11936.91,205.0,0.0,0.0,0.0,0.0
1776358673527976213,56731,0.0,0.0,0.0,0.9,-0.06,-0.21,1.5,-2.63,-1.25,0.11,-0.01,-0.37,-0.19,0.06,0.0,209.06,205.0,0.0,0.0,0.0,0.0
1776358673628380127,56830,0.0,0.2,0.0,0.4,-0.1,-0.18,1.5,-2.63,-1.25,0.11,-0.0,-0.36,-0.25,-0.0,-0.06,11939.32,195.0,0.0,0.0,0.0,0.0
1776358673728716572,56930,0.016,0.2,0.0,0.3,-0.04,-0.18,1.5,-2.63,-1.25,0.12,-0.0,-0.37,-0.0,-0.0,0.12,217.46,195.0,0.0,0.0,0.0,0.0
1776358673963223041,57031,0.0,0.1,0.0,1.1,0.04,-0.18,1.5,-2.63,-1.25,0.09,-0.01,-0.35,-0.12,-0.06,0.06,11939.49,203.0,0.0,0.0,0.0,0.0
1776358674031845485,57132,0.004,0.3,0.0,1.2,-0.06,-0.14,1.5,-2.63,-1.25,0.1,-0.01,-0.39,-0.06,-0.0,-0.06,11939.32,201.0,0.0,0.0,0.0,0.0
1776358674046100420,57232,0.008,0.3,0.0,1.4,-0.08,-0.06,1.5,-2.63,-1.25,0.12,-0.01,-0.35,-0.0,-0.06,-0.12,225.69,201.0,0.0,0.0,0.0,0.0
1776358674132147637,57333,0.0,0.9,0.0,0.9,-0.06,-0.2,1.5,-2.63,-1.25,0.09,-0.0,-0.39,-0.12,-0.0,0.0,11938.63,210.0,0.0,0.0,0.0,0.0
1776358674230516207,57433,0.052,0.3,0.0,0.2,-0.08,-0.16,1.5,-2.63,-1.25,0.11,-0.0,-0.37,0.06,-0.12,0.0,11939.14,218.0,0.0,0.0,0.0,0.0
1776358674330869031,57533,0.04,0.4,0.036,0.1,0.04,-0.08,1.5,-2.63,-1.25,0.09,-0.0,-0.36,-0.06,-0.0,0.0,11940.0,218.0,0.0,0.0,0.0,0.0
1776358674429135332,57632,0.0,0.8,0.0,1.0,0.0,-0.04,1.5,-2.63,-1.25,0.08,-0.0,-0.37,-0.12,0.06,0.06,212.83,222.0,0.0,0.0,0.0,0.0
1776358674527418432,57732,0.024,0.1,0.0,0.8,0.04,-0.27,1.5,-2.63,-1.25,0.1,-0.01,-0.37,-0.0,-0.0,-0.06,229.47,222.0,0.0,0.0,0.0,0.0
1776358674629893540,57832,0.016,0.4,0.004,0.2,0.0,0.0,1.5,-2.63,-1.25,0.1,-0.0,-0.35,0.06,0.12,0.0,218.15,210.0,0.0,0.0,0.0,0.0
1776358674728193233,57932,0.012,0.4,0.0,1.2,0.0,-0.2,1.5,-2.63,-1.25,0.1,-0.03,-0.35,0.12,-0.06,0.0,230.5,210.0,0.0,0.0,0.0,0.0
1776358674830607410,58032,0.012,0.5,0.0,0.2,-0.04,-0.12,1.5,-2.63,-1.25,0.08,-0.02,-0.4,0.12,-0.0,-0.06,226.38,217.0,0.0,0.0,0.0,0.0
1776358674947223869,58132,0.0,0.2,0.0,0.8,-0.08,-0.27,1.5,-2.63,-1.25,0.1,-0.02,-0.38,0.06,-0.06,0.0,11937.94,211.0,0.0,0.0,0.0,0.0
1776358675031326407,58232,0.0,0.9,0.0,0.8,-0.06,-0.18,1.5,-2.63,-1.25,0.09,-0.01,-0.37,-0.0,-0.06,-0.06,217.98,211.0,0.0,0.0,0.0,0.0
1776358675137575899,58333,0.008,0.2,0.0,0.7,-0.06,-0.2,1.5,-2.63,-1.25,0.12,-0.01,-0.37,-0.12,0.19,0.0,11936.74,216.0,0.0,0.0,0.0,0.0
1776358675240076571,58433,0.0,0.2,0.0,1.3,0.0,-0.16,1.5,-2.63,-1.25,0.09,-0.01,-0.35,-0.19,-0.12,0.06,11936.4,205.0,0.0,0.0,0.0,0.0
1776358675330321249,58533,0.052,0.7,0.044,0.7,0.14,-0.1,1.5,-2.63,-1.25,0.08,-0.02,-0.37,-0.0,-0.0,0.06,11937.26,222.0,0.0,0.0,0.0,0.0
1776358675432707596,58633,0.032,0.2,0.0,0.9,0.02,-0.12,1.5,-2.63,-1.25,0.1,-0.0,-0.38,0.06,0.12,-0.06,11936.91,222.0,0.0,0.0,0.0,0.0
1776358675531038893,58733,0.0,0.5,0.0,1.0,-0.06,-0.04,1.5,-2.63,-1.25,0.09,-0.0,-0.37,-0.0,-0.06,-0.12,209.06,222.0,0.0,0.0,0.0,0.0
1776358675631388815,58832,0.0,0.7,0.008,1.0,-0.18,-0.1,1.5,-2.63,-1.25,0.1,0.01,-0.37,-0.06,0.12,-0.06,11936.06,220.0,0.0,0.0,0.0,0.0
1776358675739801873,58932,0.0,0.4,0.016,1.1,0.08,-0.18,1.5,-2.63,-1.25,0.11,-0.01,-0.36,0.06,0.06,-0.06,11936.06,209.0,0.0,0.0,0.0,0.0
1776358675935209908,59032,0.004,0.3,0.004,0.3,0.04,-0.21,1.5,-2.63,-1.25,0.1,-0.01,-0.36,0.06,-0.0,-0.12,11935.37,210.0,0.0,0.0,0.0,0.0
1776358675948342741,59132,0.0,1.1,0.0,0.1,0.04,-0.14,1.5,-2.63,-1.25,0.1,-0.02,-0.38,-0.06,-0.0,0.06,11940.17,210.0,0.0,0.0,0.0,0.0
1776358676032818821,59232,0.004,0.3,0.0,1.0,-0.12,-0.12,1.5,-2.63,-1.25,0.11,-0.0,-0.38,-0.0,-0.06,0.0,11938.8,218.0,0.0,0.0,0.0,0.0
1776358676131173516,59332,0.0,0.1,0.0,1.2,0.02,-0.08,1.5,-2.63,-1.25,0.08,-0.0,-0.37,0.06,-0.06,0.06,11937.43,217.0,0.0,0.0,0.0,0.0
1776358676233605263,59432,0.056,0.4,0.0,1.2,-0.04,0.02,1.5,-2.63,-1.25,0.1,-0.01,-0.38,-0.12,-0.0,-0.06,11939.49,217.0,0.0,0.0,0.0,0.0
1776358676329935183,59531,0.0,0.8,0.04,0.8,-0.2,-0.14,1.5,-2.63,-1.25,0.09,-0.0,-0.35,-0.0,-0.06,0.0,11938.97,217.0,0.0,0.0,0.0,0.0
1776358676428050097,59631,0.032,0.3,0.0,0.9,0.06,-0.1,1.5,-2.63,-1.25,0.1,-0.0,-0.36,0.19,-0.19,0.0,204.94,217.0,0.0,0.0,0.0,0.0
1776358676532522769,59731,0.024,0.2,0.0,1.2,0.18,-0.12,1.5,-2.63,-1.25,0.09,-0.01,-0.37,0.06,-0.0,0.0,11939.32,214.0,0.0,0.0,0.0,0.0
1776358676630770954,59831,0.0,0.4,0.0,0.9,-0.1,0.04,1.5,-2.63,-1.25,0.08,-0.03,-0.37,0.19,-0.06,0.0,11939.49,193.0,0.0,0.0,0.0,0.0
1776358676733281616,59931,0.016,0.1,0.004,0.2,0.06,-0.08,1.5,-2.63,-1.25,0.11,-0.02,-0.4,-0.12,-0.0,0.12,11938.97,193.0,0.0,0.0,0.0,0.0
1776358676831487872,60032,0.012,0.7,0.0,0.8,0.0,-0.23,1.5,-2.63,-1.25,0.1,-0.01,-0.38,-0.0,0.06,-0.06,11939.66,212.0,0.0,0.0,0.0,0.0
1776358676933902192,60132,0.004,0.6,0.0,0.3,-0.1,-0.1,1.5,-2.63,-1.25,0.12,-0.02,-0.39,0.06,-0.06,0.0,11936.23,221.0,0.0,0.0,0.0,0.0
1776358677032274885,60232,0.0,0.1,0.0,0.8,0.08,-0.14,1.5,-2.63,-1.25,0.09,-0.02,-0.38,-0.12,-0.0,-0.06,11938.12,221.0,0.0,0.0,0.0,0.0
1776358677140599300,60332,0.0,0.4,0.0,1.2,-0.12,-0.16,1.5,-2.63,-1.25,0.09,-0.01,-0.35,0.06,-0.12,0.0,11937.6,217.0,0.0,0.0,0.0,0.0
1776358677238958818,60432,0.056,0.1,0.0,1.0,-0.06,-0.08,1.5,-2.63,-1.25,0.11,-0.0,-0.36,0.06,-0.0,-0.06,11938.63,209.0,0.0,0.0,0.0,0.0
1776358677333403224,60532,0.0,0.9,0.044,0.3,0.0,-0.12,1.5,-2.63,-1.25,0.09,-0.01,-0.37,-0.06,-0.0,-0.06,11939.49,209.0,0.0,0.0,0.0,0.0
1776358677433555792,60633,0.0,0.3,0.0,0.2,-0.16,-0.16,1.5,-2.63,-1.25,0.1,-0.01,-0.37,-0.12,-0.06,0.0,11937.26,215.0,0.0,0.0,0.0,0.0
1776358677542092393,60733,0.0,0.4,0.016,1.0,0.0,-0.12,1.5,-2.63,-1.25,0.1,-0.02,-0.39,0.12,-0.06,0.06,11937.94,204.0,0.0,0.0,0.0,0.0
1776358677632432560,60833,0.024,0.0,0.0,1.2,0.0,-0.1,1.5,-2.63,-1.25,0.12,-0.0,-0.37,-0.0,-0.0,-0.06,212.32,204.0,0.0,0.0,0.0,0.0
1776358677732673321,60933,0.012,0.1,0.004,0.8,0.02,-0.04,1.5,-2.63,-1.25,0.1,-0.03,-0.35,0.06,-0.0,-0.06,11937.09,206.0,0.0,0.0,0.0,0.0
1776358678039220440,61033,0.016,0.3,0.0,1.0,0.04,-0.08,1.5,-2.63,-1.25,0.1,-0.01,-0.36,-0.06,-0.0,0.0,11936.23,206.0,0.0,0.0,0.0,0.0
1776358678051062671,61133,0.0,0.7,0.0,0.1,0.08,-0.14,1.5,-2.63,-1.25,0.1,-0.02,-0.37,-0.0,0.06,0.0,11936.74,199.0,0.0,0.0,0.0,0.0
1776358678124083328,61233,0.004,0.1,0.0,0.7,-0.04,0.0,1.5,-2.63,-1.25,0.09,-0.02,-0.37,-0.0,0.06,0.06,11937.09,204.0,0.0,0.0,0.0,0.0
1776358678136951058,61333,0.004,0.2,0.0,0.3,0.04,-0.08,1.5,-2.63,-1.25,0.1,-0.02,-0.37,-0.06,-0.0,0.12,11936.4,204.0,0.0,0.0,0.0,0.0
1776358678242527752,61433,0.0,0.6,0.048,0.3,0.0,-0.14,1.5,-2.63,-1.25,0.1,-0.01,-0.39,-0.0,-0.06,0.0,11936.74,214.0,0.0,0.0,0.0,0.0
1776358678332919154,61533,0.048,0.7,0.0,0.9,-0.06,-0.2,1.5,-2.63,-1.25,0.09,-0.01,-0.37,-0.06,-0.0,-0.06,11938.97,209.0,0.0,0.0,0.0,0.0
1776358678437193583,61633,0.04,0.2,0.0,1.0,0.02,-0.08,1.5,-2.63,-1.25,0.11,-0.01,-0.39,0.12,-0.0,-0.06,11940.0,209.0,0.0,0.0,0.0,0.0
1776358678535498826,61733,0.028,0.2,0.02,0.0,0.06,-0.18,1.5,-2.63,-1.25,0.1,-0.02,-0.37,0.12,-0.12,0.06,11936.91,200.0,0.0,0.0,0.0,0.0
1776358678631887564,61833,0.012,0.0,0.0,1.0,-0.2,-0.04,1.5,-2.63,-1.25,0.11,-0.02,-0.38,0.31,-0.0,0.0,225.35,200.0,0.0,0.0,0.0,0.0
1776358678747259897,61933,0.016,0.3,0.008,0.5,0.0,-0.2,1.5,-2.63,-1.25,0.09,-0.01,-0.37,-0.19,0.12,0.06,221.06,198.0,0.0,0.0,0.0,0.0
1776358678832630478,62032,0.012,0.3,0.0,0.3,0.04,-0.12,1.5,-2.63,-1.25,0.09,-0.0,-0.38,-0.0,-0.12,-0.12,217.98,198.0,0.0,0.0,0.0,0.0
1776358678935033479,62132,0.008,0.5,0.0,1.3,0.16,-0.14,1.5,-2.63,-1.25,0.08,-0.01,-0.39,0.06,0.12,-0.06,234.61,193.0,0.0,0.0,0.0,0.0
1776358679035244949,62232,0.0,0.2,0.0,1.2,0.18,-0.12,1.5,-2.63,-1.25,0.09,-0.0,-0.43,-0.06,-0.0,-0.06,11936.74,206.0,0.0,0.0,0.0,0.0
1776358679133552127,62332,0.0,0.1,0.0,1.2,-0.06,-0.14,1.5,-2.63,-1.25,0.1,-0.03,-0.37,-0.06,-0.0,0.0,11938.63,212.0,0.0,0.0,0.0,0.0
1776358679236133096,62432,0.0,1.1,0.0,0.8,-0.06,-0.16,1.5,-2.63,-1.25,0.1,-0.0,-0.39,0.12,0.19,0.06,11937.77,212.0,0.0,0.0,0.0,0.0
1776358679332400351,62532,0.0,0.7,0.0,1.2,0.0,-0.23,1.5,-2.63,-1.25,0.08,-0.02,-0.37,-0.0,-0.0,0.0,11936.74,209.0,0.0,0.0,0.0,0.0
1776358679434728316,62632,0.036,0.2,0.0,1.2,0.21,-0.14,1.5,-2.63,-1.25,0.1,-0.01,-0.42,-0.0,0.06,0.12,209.06,209.0,0.0,0.0,0.0,0.0
1776358679540956539,62732,0.024,0.3,0.02,0.5,-0.08,-0.16,1.5,-2.63,-1.25,0.1,-0.0,-0.38,-0.06,-0.0,0.12,11936.57,220.0,0.0,0.0,0.0,0.0
1776358679633324480,62832,0.02,0.4,0.0,0.9,-0.04,-0.06,1.5,-2.63,-1.25,0.11,-0.01,-0.4,-0.06,-0.0,0.06,11934.51,213.0,0.0,0.0,0.0,0.0
1776358679759220728,62931,0.008,0.3,0.0,1.1,0.0,-0.12,1.5,-2.63,-1.25,0.09,-0.02,-0.37,-0.0,-0.0,0.06,11934.86,226.0,0.0,0.0,0.0,0.0
1776358679834114730,63031,0.004,0.0,0.0,1.3,-0.04,-0.25,1.5,-2.63,-1.25,0.11,-0.01,-0.37,-0.06,-0.0,0.12,11936.57,226.0,0.0,0.0,0.0,0.0
1776358679942433085,63131,0.0,0.4,0.0,0.8,-0.02,-0.27,1.5,-2.63,-1.25,0.08,-0.02,-0.39,-0.06,-0.06,0.0,11936.06,219.0,0.0,0.0,0.0,0.0
1776358680034820397,63232,0.0,0.5,0.0,1.0,-0.04,-0.08,1.5,-2.63,-1.25,0.1,-0.02,-0.41,0.06,-0.06,-0.06,11937.26,219.0,0.0,0.0,0.0,0.0
1776358680133048207,63331,0.0,0.2,0.0,0.7,-0.04,-0.2,1.5,-2.63,-1.25,0.09,-0.01,-0.39,0.06,0.06,-0.06,11936.06,223.0,0.0,0.0,0.0,0.0
1776358680241392757,63431,0.0,0.7,0.048,0.6,-0.12,0.18,1.5,-2.63,-1.25,0.11,-0.01,-0.41,-0.0,0.06,-0.12,11933.31,205.0,0.0,0.0,0.0,0.0
1776358680331813959,63532,0.048,0.3,0.04,0.1,-0.06,0.04,1.5,-2.63,-1.25,0.11,-0.01,-0.37,0.06,0.12,0.0,11934.0,205.0,0.0,0.0,0.0,0.0
1776358680436124092,63632,0.0,0.4,0.0,0.8,0.04,-0.06,1.5,-2.63,-1.25,0.11,-0.0,-0.37,-0.0,-0.0,0.0,11934.34,223.0,0.0,0.0,0.0,0.0
1776358680534426427,63732,0.028,0.0,0.0,1.1,0.04,-0.06,1.5,-2.63,-1.25,0.12,0.01,-0.37,-0.0,-0.0,0.0,11934.17,204.0,0.0,0.0,0.0,0.0
1776358680642890377,63832,0.02,0.4,0.0,1.0,0.06,-0.2,1.5,-2.63,-1.25,0.1,-0.0,-0.37,-0.12,0.06,0.0,11935.37,204.0,0.0,0.0,0.0,0.0
1776358680735213879,63932,0.0,1.1,0.0,1.0,-0.06,-0.1,1.5,-2.63,-1.25,0.12,-0.01,-0.37,-0.06,0.06,0.12,11936.23,207.0,0.0,0.0,0.0,0.0
1776358680843600507,64032,0.0,0.2,0.0,0.4,-0.02,-0.14,1.5,-2.63,-1.25,0.1,-0.01,-0.38,-0.06,-0.06,-0.06,11937.43,219.0,0.0,0.0,0.0,0.0
1776358680936009240,64132,0.004,0.1,0.0,0.8,0.1,-0.21,1.5,-2.63,-1.25,0.09,-0.0,-0.38,0.12,-0.06,-0.06,11936.06,219.0,0.0,0.0,0.0,0.0
1776358681044290410,64232,0.0,0.2,0.0,0.3,0.08,-0.18,1.5,-2.63,-1.25,0.1,-0.01,-0.37,0.06,0.06,-0.06,11935.37,201.0,0.0,0.0,0.0,0.0
1776358681136712764,64332,0.004,0.0,0.0,0.5,0.0,-0.1,1.5,-2.63,-1.25,0.12,-0.01,-0.35,-0.0,-0.12,-0.06,11936.91,201.0,0.0,0.0,0.0,0.0
1776358681239077472,64433,0.0,0.7,0.0,0.8,-0.1,-0.06,1.5,-2.63,-1.25,0.11,-0.0,-0.35,-0.0,0.06,0.06,11936.91,206.0,0.0,0.0,0.0,0.0
1776358681335533707,64533,0.0,0.4,0.0,1.1,-0.12,-0.14,1.5,-2.63,-1.25,0.1,-0.0,-0.34,0.06,-0.12,-0.12,11935.54,210.0,0.0,0.0,0.0,0.0
1776358681437805795,64633,0.036,0.1,0.0,1.0,-0.14,-0.1,1.5,-2.63,-1.25,0.12,-0.0,-0.36,0.06,-0.06,0.0,209.06,210.0,0.0,0.0,0.0,0.0
1776358681538087224,64734,0.028,0.1,0.0,1.1,0.0,-0.2,1.5,-2.63,-1.25,0.1,-0.01,-0.37,0.06,-0.12,0.06,11936.74,208.0,0.0,0.0,0.0,0.0
1776358681640449765,64834,0.012,0.3,0.0,1.2,0.06,-0.18,1.5,-2.63,-1.25,0.1,-0.02,-0.37,-0.0,0.06,0.06,11935.71,207.0,0.0,0.0,0.0,0.0
1776358681736849420,64934,0.012,0.3,0.0,0.8,0.04,-0.2,1.5,-2.63,-1.25,0.09,-0.01,-0.39,-0.06,0.06,0.12,216.43,207.0,0.0,0.0,0.0,0.0
1776358681837067584,65034,0.008,0.1,0.0,0.3,-0.14,-0.21,1.5,-2.63,-1.25,0.08,-0.0,-0.36,-0.06,0.06,0.06,11935.37,213.0,0.0,0.0,0.0,0.0
1776358682143239835,65134,0.004,0.0,0.0,1.2,-0.16,-0.02,1.5,-2.63,-1.25,0.1,-0.0,-0.35,-0.06,0.12,0.0,11937.09,206.0,0.0,0.0,0.0,0.0
1776358682155990679,65234,0.0,0.1,0.0,1.3,-0.04,0.06,1.5,-2.63,-1.25,0.12,-0.0,-0.39,-0.0,0.12,0.06,11937.94,206.0,0.0,0.0,0.0,0.0
1776358682228406401,65334,0.004,0.6,0.0,0.9,-0.1,-0.21,1.5,-2.63,-1.25,0.09,-0.01,-0.35,-0.06,0.06,0.0,11938.29,222.0,0.0,0.0,0.0,0.0
1776358682240827050,65434,0.056,0.1,0.0,1.2,-0.08,-0.02,1.5,-2.63,-1.25,0.09,-0.0,-0.37,-0.06,0.12,0.0,11937.43,207.0,0.0,0.0,0.0,0.0
1776358682338985668,65534,0.0,0.6,0.036,0.7,0.06,-0.08,1.5,-2.63,-1.25,0.09,-0.0,-0.38,-0.12,-0.12,-0.06,11939.32,207.0,0.0,0.0,0.0,0.0
1776358682437291633,65634,0.0,0.0,0.0,0.3,0.18,-0.25,1.5,-2.63,-1.25,0.1,-0.01,-0.35,0.06,-0.12,0.0,217.46,207.0,0.0,0.0,0.0,0.0
1776358682547614989,65735,0.0,0.9,0.024,0.1,-0.1,-0.14,1.5,-2.63,-1.25,0.1,-0.03,-0.36,-0.0,-0.0,0.0,11934.51,205.0,0.0,0.0,0.0,0.0
1776358682639934603,65836,0.02,0.1,0.012,0.5,0.08,-0.02,1.5,-2.63,-1.25,0.12,-0.02,-0.37,-0.0,0.06,-0.06,11935.2,200.0,0.0,0.0,0.0,0.0
1776358682748334545,65936,0.016,0.3,0.0,1.2,-0.02,-0.16,1.5,-2.63,-1.25,0.12,-0.0,-0.36,-0.06,0.06,0.0,11935.54,207.0,0.0,0.0,0.0,0.0
1776358682840737408,66036,0.012,0.0,0.0,0.4,0.0,-0.23,1.5,-2.63,-1.25,0.13,-0.0,-0.37,-0.0,-0.12,0.0,11936.06,207.0,0.0,0.0,0.0,0.0
1776358683063224778,66137,0.0,1.0,0.0,0.9,0.08,-0.25,1.5,-2.63,-1.25,0.1,0.01,-0.36,0.12,0.06,0.06,11937.26,208.0,0.0,0.0,0.0,0.0
1776358683129560801,66237,0.004,0.1,0.0,1.0,0.02,-0.1,1.5,-2.63,-1.25,0.12,-0.01,-0.36,0.06,-0.06,0.06,11937.09,211.0,0.0,0.0,0.0,0.0
1776358683142522757,66337,0.0,0.3,0.0,0.6,0.04,-0.04,1.5,-2.63,-1.25,0.1,-0.01,-0.36,-0.0,-0.06,0.06,11936.91,211.0,0.0,0.0,0.0,0.0
1776358683251738096,66438,0.0,0.4,0.048,0.6,-0.02,-0.12,1.5,-2.63,-1.25,0.11,-0.0,-0.36,-0.12,-0.0,0.0,11935.37,206.0,0.0,0.0,0.0,0.0
1776358683342559309,66538,0.0,0.5,0.04,0.3,0.06,-0.02,1.5,-2.63,-1.25,0.09,-0.02,-0.37,0.06,0.06,-0.06,11936.23,206.0,0.0,0.0,0.0,0.0
