timestamp_ns,time_ms,voltage_left,current_left_ma,voltage_right,current_right_ma,motor_current_left,motor_current_right,euler_x,euler_y,euler_z,acc_lin_x,acc_lin_y,acc_lin_z,gyro_x,gyro_y,gyro_z,sonar_mm,tof_mm,rpm_left,rpm_right,rotations_left,rotations_right
1776357691731534456,115840,75.0,3.75,-0.15,0.04,-0.36,0.06,-0.0,-0.0,273.89,0.0,-277.0,0.0,-0.0,,273.0,0.0,0.0,0.0,0.0,,
1776357694560667563,117041,0.0,0.7,0.0,0.9,0.04,-0.08,-0.0,-3.75,3.75,0.04,0.15,-0.36,-0.06,-0.0,0.0,273.89,277.0,0.0,0.0,0.0,
1776357694644825064,1911,0.0,0.3,0.0,0.5,0.02,0.02,0.06,-3.94,3.75,0.03,0.09,-0.36,-0.0,0.19,-0.12,275.43,232.0,0.0,0.0,0.0,0.0
1776357694747275273,2011,0.004,0.0,0.0,1.0,-0.12,-0.12,0.06,-3.88,3.75,0.0,0.05,-0.36,-0.0,0.19,-0.06,270.11,234.0,0.0,0.0,0.0,0.0
1776357694845529266,2112,0.0,0.1,0.0,0.7,0.1,-0.16,0.06,-3.94,3.75,0.0,-0.0,-0.4,0.06,-0.37,0.25,278.34,234.0,0.0,0.0,0.0,0.0
1776357694947930049,2211,0.0,0.1,0.0,0.9,0.0,-0.1,0.06,-3.88,3.75,0.01,0.14,-0.37,0.12,-0.31,0.06,287.43,234.0,0.0,0.0,0.0,0.0
1776357695046212207,2312,0.004,0.1,0.0,0.6,-0.1,-0.1,0.06,-3.88,3.75,-0.01,0.1,-0.37,0.06,0.37,0.0,280.23,235.0,0.0,0.0,0.0,0.0
1776357695148616783,2413,0.004,0.5,0.0,0.6,-0.06,-0.08,0.06,-3.88,3.75,0.04,-0.0,-0.34,0.12,0.5,-0.06,279.03,235.0,0.0,0.0,0.0,0.0
1776357695246918476,2512,0.0,1.0,0.0,0.7,-0.04,0.04,0.06,-3.88,3.75,0.04,-0.0,-0.37,0.12,-0.75,0.12,274.23,238.0,0.0,0.0,0.0,0.0
1776357695355376869,2612,0.0,0.2,0.0,1.0,-0.1,-0.18,0.06,-3.88,3.75,0.04,0.08,-0.37,-0.19,-0.31,0.12,247.99,241.0,0.0,0.0,0.0,0.0
1776357695447619190,2712,0.0,0.3,0.0,0.7,0.0,-0.02,0.06,-3.88,3.75,0.01,0.02,-0.38,-0.0,-0.06,-0.06,283.15,241.0,0.0,0.0,0.0,0.0
1776357695545914605,2811,0.004,0.2,0.0,0.6,0.1,-0.12,0.06,-3.88,3.75,0.03,-0.01,-0.35,-0.19,-0.0,0.06,215.58,243.0,0.0,0.0,0.0,0.0
1776357695648311366,2912,0.004,0.2,0.0,0.3,-0.08,-0.02,0.06,-3.88,3.75,0.0,0.07,-0.38,-0.06,-0.5,0.12,209.74,234.0,0.0,0.0,0.0,0.0
1776357695746842726,3012,0.0,0.2,0.0,0.3,0.0,0.0,0.06,-3.88,3.75,0.01,0.08,-0.35,-0.06,-0.25,0.06,229.98,234.0,0.0,0.0,0.0,0.0
1776357695844878696,3111,0.004,0.1,0.0,0.3,-0.02,-0.18,0.06,-3.88,3.75,0.01,0.04,-0.35,0.06,-0.06,-0.06,247.3,237.0,0.0,0.0,0.0,0.0
1776357695947289624,3211,0.0,0.0,0.0,0.3,-0.06,-0.12,0.06,-3.88,3.75,0.02,0.03,-0.36,-0.12,-0.25,0.06,207.86,237.0,0.0,0.0,0.0,0.0
1776357696045609371,3311,0.0,0.5,0.0,0.9,-0.1,-0.04,0.06,-3.88,3.75,0.03,0.09,-0.37,0.06,0.12,0.0,229.98,235.0,0.0,0.0,0.0,0.0
1776357696143909098,3410,0.0,0.3,0.0,1.1,0.02,-0.02,0.06,-3.88,3.75,0.01,0.03,-0.35,-0.0,-0.06,0.0,215.75,237.0,0.0,0.0,0.0,0.0
1776357696246315208,3510,0.0,0.7,0.0,0.3,-0.02,-0.1,0.06,-3.88,3.75,0.02,0.01,-0.41,0.06,-0.12,0.06,198.94,237.0,0.0,0.0,0.0,0.0
1776357696344621897,3610,0.0,0.2,0.0,0.5,0.02,-0.02,0.06,-3.88,3.75,0.03,0.07,-0.37,0.06,0.12,0.0,198.94,234.0,0.0,0.0,0.0,0.0
1776357696447022359,3709,0.0,0.2,0.0,0.8,-0.02,-0.02,0.06,-3.88,3.75,0.02,0.05,-0.4,0.06,-0.12,0.0,207.86,233.0,0.0,0.0,0.0,0.0
1776357696545304678,3810,0.0,0.3,0.0,1.1,-0.14,-0.08,0.06,-3.88,3.75,0.03,0.01,-0.39,0.12,-0.12,0.06,207.86,233.0,0.0,0.0,0.0,0.0
1776357696647714158,3910,0.0,0.1,0.0,0.9,-0.02,-0.02,0.06,-3.88,3.75,0.02,0.09,-0.36,-0.06,-0.0,0.06,207.86,234.0,0.0,0.0,0.0,0.0
1776357696746009199,4009,0.0,0.6,0.0,0.1,0.02,-0.16,0.06,-3.88,3.75,0.01,0.04,-0.35,0.06,0.12,0.0,207.86,234.0,0.0,0.0,0.0,0.0
1776357696844262092,4109,0.0,0.2,0.0,1.0,0.0,-0.04,0.06,-3.88,3.75,0.01,0.01,-0.38,0.12,-0.12,-0.12,215.75,233.0,0.0,0.0,0.0,0.0
1776357696946715943,4210,0.0,-0.2,0.0,0.1,-0.02,-0.06,0.06,-3.88,3.75,0.02,0.07,-0.35,-0.06,-0.19,-0.06,221.58,231.0,0.0,0.0,0.0,0.0
1776357697045003002,4310,0.0,0.3,0.004,0.6,-0.06,0.04,0.06,-3.88,3.75,0.04,0.07,-0.37,-0.12,0.06,0.0,221.58,231.0,0.0,0.0,0.0,0.0
1776357697147372164,4410,0.0,-0.1,0.0,0.5,-0.18,0.0,0.06,-3.88,3.75,0.03,-0.02,-0.36,-0.06,-0.0,-0.12,224.84,234.0,0.0,0.0,0.0,0.0
1776357697245679146,4511,0.0,0.1,0.0,0.7,0.14,-0.04,0.06,-3.88,3.75,0.05,0.06,-0.39,-0.06,-0.06,0.0,221.58,234.0,0.0,0.0,0.0,0.0
1776357697348100790,4611,0.004,0.5,0.0,0.5,0.04,0.04,0.06,-3.88,3.75,0.01,0.06,-0.38,-0.12,0.19,-0.06,227.07,234.0,0.0,0.0,0.0,0.0
1776357697446405236,4711,0.0,0.2,0.0,1.1,0.06,-0.12,0.06,-3.88,3.75,-0.01,0.01,-0.35,0.12,-0.06,-0.06,197.91,237.0,0.0,0.0,0.0,0.0
1776357697548798416,4811,0.0,1.0,0.0,0.8,0.02,-0.02,0.06,-3.88,3.75,0.05,0.09,-0.39,0.12,-0.12,0.06,198.25,231.0,0.0,0.0,0.0,0.0
1776357697647106547,4911,0.0,0.2,0.0,0.2,-0.08,-0.1,0.06,-3.88,3.75,0.0,0.04,-0.37,-0.06,0.06,-0.06,203.06,231.0,0.0,0.0,0.0,0.0
1776357697755470043,5011,0.0,0.3,0.0,1.1,-0.02,0.06,0.06,-3.88,3.75,0.0,-0.02,-0.4,0.06,0.31,-0.06,198.94,229.0,0.0,0.0,0.0,0.0
1776357697847795784,5110,0.0,0.1,0.0,1.1,-0.14,0.0,0.06,-3.88,3.75,0.03,0.07,-0.35,-0.0,-0.06,0.0,203.06,232.0,0.0,0.0,0.0,0.0
1776357697946079119,5210,0.0,0.8,0.0,0.3,-0.12,0.0,0.06,-3.88,3.75,0.0,0.08,-0.38,-0.0,-0.0,0.06,211.97,232.0,0.0,0.0,0.0,0.0
1776357698048502446,5310,0.0,0.4,0.0,1.3,-0.06,-0.08,0.06,-3.88,3.75,0.02,-0.0,-0.37,0.12,0.19,0.0,213.35,233.0,0.0,0.0,0.0,0.0
1776357698146767833,5410,0.004,0.7,0.0,0.4,-0.04,-0.04,0.06,-3.88,3.75,0.01,0.08,-0.38,0.19,-0.25,0.0,206.66,233.0,0.0,0.0,0.0,0.0
1776357698249180807,5510,0.0,0.5,0.0,1.0,0.0,-0.16,0.06,-3.88,3.75,0.05,0.07,-0.38,0.06,-0.19,0.12,206.66,237.0,0.0,0.0,0.0,0.0
1776357698347492027,5610,0.0,0.3,0.0,0.5,-0.08,0.0,0.06,-3.88,3.75,0.0,0.02,-0.39,0.06,-0.0,-0.12,206.66,239.0,0.0,0.0,0.0,0.0
1776357698445822006,5709,0.008,0.3,0.0,1.0,-0.04,0.02,0.06,-3.88,3.75,0.0,0.06,-0.35,0.06,-0.0,0.06,217.46,239.0,0.0,0.0,0.0,0.0
1776357698548193128,5809,0.004,0.4,0.0,0.4,-0.12,0.14,0.06,-3.88,3.75,0.02,0.06,-0.38,0.06,-0.19,0.06,221.58,238.0,0.0,0.0,0.0,0.0
1776357698646490922,5909,0.0,0.8,0.0,1.0,0.04,-0.08,0.06,-3.88,3.75,0.03,0.05,-0.4,-0.0,0.12,0.06,218.66,238.0,0.0,0.0,0.0,0.0
1776357698744762828,6009,0.0,0.3,0.0,0.2,0.1,-0.12,0.06,-3.88,3.75,0.01,0.04,-0.38,-0.0,0.12,-0.06,218.66,238.0,0.0,0.0,0.0,0.0
1776357698847194376,6109,0.0,1.0,0.0,0.7,0.02,-0.12,0.06,-3.88,3.75,0.02,0.05,-0.38,-0.0,-0.25,0.0,218.66,239.0,0.0,0.0,0.0,0.0
1776357698945514614,6209,0.004,0.0,0.0,0.5,0.04,-0.08,0.06,-3.88,3.75,0.0,0.04,-0.41,0.06,0.06,0.0,209.74,237.0,0.0,0.0,0.0,0.0
1776357699047902828,6309,0.004,0.0,0.0,0.8,-0.08,-0.08,0.06,-3.88,3.75,0.0,0.04,-0.37,0.06,-0.0,-0.06,210.77,237.0,0.0,0.0,0.0,0.0
1776357699146156767,6409,0.004,0.2,0.0,0.7,0.0,-0.06,0.06,-3.88,3.75,0.01,0.08,-0.37,0.12,-0.19,0.12,210.77,238.0,0.0,0.0,0.0,0.0
1776357699248596164,6509,0.0,0.2,0.0,0.9,-0.02,-0.16,0.06,-3.88,3.75,0.02,0.04,-0.4,0.19,-0.0,0.06,210.77,238.0,0.0,0.0,0.0,0.0
1776357699346864344,6609,0.0,0.4,0.0,0.9,0.06,-0.08,0.06,-3.88,3.75,0.04,0.03,-0.38,0.06,-0.06,-0.06,210.77,239.0,0.0,0.0,0.0,0.0
1776357699449279685,6709,0.0,0.8,0.0,0.2,-0.12,-0.06,0.06,-3.88,3.75,0.0,0.09,-0.38,-0.12,-0.12,0.0,206.66,238.0,0.0,0.0,0.0,0.0
1776357699547596068,6810,0.0,0.3,0.0,0.6,0.0,0.0,0.06,-3.88,3.75,0.02,0.03,-0.37,-0.25,0.12,-0.06,206.66,238.0,0.0,0.0,0.0,0.0
1776357699645875193,6909,0.0,0.3,0.0,0.3,0.0,-0.02,0.06,-3.88,3.75,0.01,0.03,-0.38,0.06,0.06,0.0,206.66,238.0,0.0,0.0,0.0,0.0
1776357699748275664,7009,0.004,0.4,0.0,0.6,-0.04,0.0,0.06,-3.88,3.75,0.01,0.06,-0.4,0.06,0.12,0.0,210.77,238.0,0.0,0.0,0.0,0.0
1776357699846581714,7109,0.0,0.0,0.0,1.0,-0.1,-0.25,0.06,-3.88,3.75,0.02,0.04,-0.41,-0.12,0.06,0.12,209.74,238.0,0.0,0.0,0.0,0.0
1776357699944879950,7208,0.0,0.3,0.0,0.9,-0.04,-0.06,0.06,-3.88,3.75,0.01,0.04,-0.38,-0.0,-0.0,0.12,210.77,237.0,0.0,0.0,0.0,0.0
1776357700047267808,7308,0.008,0.4,0.0,0.9,-0.1,0.08,0.06,-3.88,3.75,0.02,0.06,-0.37,-0.12,-0.0,-0.06,210.77,237.0,0.0,0.0,0.0,0.0
1776357700145580319,7408,0.0,0.5,0.0,0.8,-0.02,-0.21,0.06,-3.88,3.75,0.0,0.05,-0.39,-0.0,0.06,0.0,210.77,237.0,0.0,0.0,0.0,0.0
1776357700243852588,7507,0.004,0.5,0.0,0.7,0.0,0.0,0.06,-3.88,3.75,0.0,0.02,-0.4,0.06,-0.25,0.0,210.77,239.0,0.0,0.0,0.0,0.0
1776357700346281982,7608,0.0,0.2,0.0,0.9,-0.02,-0.02,0.06,-3.88,3.75,0.03,0.07,-0.4,0.12,0.12,-0.06,210.94,239.0,0.0,0.0,0.0,0.0
1776357700444583159,7708,0.008,0.0,0.0,1.0,-0.12,0.08,0.06,-3.88,3.75,0.01,0.08,-0.42,0.06,0.06,-0.12,210.77,238.0,0.0,0.0,0.0,0.0
1776357700546982553,7808,0.008,0.2,0.0,0.8,0.02,-0.12,0.06,-3.88,3.75,0.01,0.05,-0.42,0.06,-0.0,-0.12,210.77,238.0,0.0,0.0,0.0,0.0
1776357700655336409,7908,0.0,0.3,0.0,1.2,0.0,-0.12,0.06,-3.88,3.75,0.04,0.05,-0.41,-0.06,-0.06,0.0,210.77,238.0,0.0,0.0,0.0,0.0
1776357700747676346,8009,0.0,0.7,0.0,0.2,-0.02,-0.04,0.06,-3.88,3.75,0.02,0.05,-0.38,0.06,-0.06,0.0,206.66,238.0,0.0,0.0,0.0,0.0
1776357700850072813,8110,0.0,0.6,0.0,0.3,-0.06,-0.04,0.06,-3.88,3.75,0.02,0.01,-0.4,-0.0,0.25,-0.12,205.63,238.0,0.0,0.0,0.0,0.0
1776357700952481762,8211,0.0,0.1,0.0,0.8,-0.1,-0.08,0.06,-3.88,3.75,0.0,0.08,-0.4,0.12,0.06,-0.12,206.66,238.0,0.0,0.0,0.0,0.0
1776357701050778216,8311,0.004,0.2,0.0,0.9,-0.14,-0.2,0.06,-3.88,3.75,0.02,0.03,-0.38,-0.06,-0.19,0.0,205.63,237.0,0.0,0.0,0.0,0.0
1776357701159340496,8412,0.0,0.5,0.0,0.2,-0.02,-0.1,0.06,-3.88,3.75,0.01,0.03,-0.38,-0.0,-0.06,0.0,210.77,239.0,0.0,0.0,0.0,0.0
1776357701251442874,8512,0.0,0.1,0.0,0.2,-0.02,-0.06,0.06,-3.88,3.75,0.01,0.05,-0.38,0.06,0.06,0.0,217.46,239.0,0.0,0.0,0.0,0.0
1776357701349764567,8611,0.0,1.0,0.0,0.6,0.02,-0.06,0.06,-3.88,3.75,0.03,0.04,-0.38,-0.06,-0.0,0.0,222.78,235.0,0.0,0.0,0.0,0.0
1776357701458242198,8711,0.004,0.3,0.0,1.1,-0.12,0.02,0.06,-3.88,3.75,0.02,-0.0,-0.37,-0.0,-0.06,-0.06,217.98,235.0,0.0,0.0,0.0,0.0
1776357701550460928,8811,0.0,0.1,0.0,0.6,0.02,-0.08,0.06,-3.88,3.75,0.0,0.07,-0.4,0.06,-0.0,0.0,207.86,235.0,0.0,0.0,0.0,0.0
1776357701648762306,8910,0.0,0.2,0.0,0.4,0.06,-0.06,0.06,-3.88,3.75,0.02,0.1,-0.39,-0.06,-0.06,-0.06,202.03,232.0,0.0,0.0,0.0,0.0
1776357701751195548,9011,0.0,0.2,0.0,0.3,0.04,-0.02,0.06,-3.88,3.75,0.02,0.03,-0.41,-0.0,-0.06,0.0,207.34,232.0,0.0,0.0,0.0,0.0
1776357701849467482,9111,0.0,0.3,0.0,0.3,0.02,-0.21,0.06,-3.88,3.75,0.0,0.03,-0.38,0.06,-0.0,0.0,215.58,231.0,0.0,0.0,0.0,0.0
1776357701951830428,9211,0.0,-0.1,0.0,0.3,0.08,-0.12,0.06,-3.88,3.75,0.02,0.07,-0.39,0.12,-0.12,0.0,215.75,229.0,0.0,0.0,0.0,0.0
1776357702050148823,9311,0.0,0.2,0.0,0.8,0.02,-0.04,0.06,-3.88,3.75,-0.01,0.03,-0.41,-0.06,-0.0,0.0,215.75,229.0,0.0,0.0,0.0,0.0
1776357702152525489,9412,0.0,0.2,0.0,0.8,0.1,0.08,0.06,-3.88,3.75,0.02,0.06,-0.4,0.12,0.12,-0.06,287.61,229.0,0.0,0.0,0.0,0.0
1776357702250855660,9512,0.004,0.3,0.0,0.6,-0.06,0.0,0.06,-3.88,3.75,0.0,-0.0,-0.42,-0.0,-0.0,-0.06,279.72,229.0,0.0,0.0,0.0,0.0
1776357702353261289,9613,0.008,0.6,0.0,0.6,-0.04,0.02,0.06,-3.88,3.75,0.0,0.03,-0.39,0.12,0.06,-0.06,279.2,229.0,0.0,0.0,0.0,0.0
1776357702451554294,9713,0.0,0.7,0.0,0.9,0.06,0.0,0.06,-3.88,3.75,0.02,0.06,-0.41,-0.06,-0.0,-0.06,279.2,228.0,0.0,0.0,0.0,0.0
1776357702549813076,9812,0.0,0.9,0.0,0.5,-0.1,-0.06,0.06,-3.88,3.75,0.03,0.05,-0.39,-0.0,0.06,0.0,263.42,226.0,0.0,0.0,0.0,0.0
1776357702652257038,9912,0.0,0.1,0.0,0.8,-0.18,0.0,0.06,-3.88,3.75,0.03,0.05,-0.42,0.19,-0.0,0.12,263.6,226.0,0.0,0.0,0.0,0.0
1776357702754653889,10013,0.0,0.2,0.0,0.8,-0.04,0.02,0.06,-3.88,3.75,0.02,0.07,-0.39,0.06,-0.25,0.06,267.2,228.0,0.0,0.0,0.0,0.0
1776357702852966598,10114,0.0,0.3,0.0,0.7,-0.08,-0.16,0.06,-3.88,3.75,0.03,0.02,-0.38,-0.0,-0.19,0.0,267.2,228.0,0.0,0.0,0.0,0.0
1776357702955342171,10214,0.0,0.0,0.0,0.3,-0.04,0.04,0.06,-3.88,3.75,0.02,0.04,-0.39,-0.0,0.12,-0.06,226.55,230.0,0.0,0.0,0.0,0.0
1776357703053645063,10314,0.004,0.1,0.0,0.5,-0.12,-0.1,0.06,-3.88,3.75,0.03,0.02,-0.4,-0.06,0.12,-0.12,197.91,229.0,0.0,0.0,0.0,0.0
1776357703156069671,10415,0.0,0.4,0.0,0.8,-0.14,0.1,0.06,-3.88,3.75,-0.02,0.06,-0.4,0.12,0.19,0.0,238.56,229.0,0.0,0.0,0.0,0.0
1776357703254350525,10515,0.0,0.5,0.0,1.0,-0.02,0.0,0.06,-3.88,3.75,0.03,0.05,-0.38,-0.06,0.12,-0.12,215.06,233.0,0.0,0.0,0.0,0.0
1776357703352612138,10614,0.0,0.7,0.0,0.9,0.04,0.0,0.06,-3.88,3.75,0.02,0.03,-0.37,-0.06,-0.06,-0.12,210.77,236.0,0.0,0.0,0.0,0.0
1776357703455046653,10715,0.0,0.5,0.0,0.2,0.08,-0.04,0.06,-3.88,3.75,0.01,0.05,-0.37,-0.12,0.12,-0.06,210.77,236.0,0.0,0.0,0.0,0.0
1776357703557457538,10815,0.0,0.3,0.0,1.1,-0.02,-0.08,0.06,-3.88,3.75,0.02,-0.0,-0.39,-0.12,-0.0,0.06,209.74,237.0,0.0,0.0,0.0,0.0
1776357703655751281,10915,0.0,0.6,0.0,0.9,0.02,-0.12,0.06,-3.88,3.75,0.03,0.06,-0.39,0.06,-0.12,0.06,207.34,237.0,0.0,0.0,0.0,0.0
1776357703758141184,11016,0.0,0.1,0.0,0.3,0.0,-0.06,0.06,-3.88,3.75,0.01,0.05,-0.42,-0.06,-0.06,-0.06,203.06,237.0,0.0,0.0,0.0,0.0
1776357703856443150,11117,0.0,0.3,0.0,0.4,0.18,-0.12,0.06,-3.88,3.75,0.02,0.03,-0.38,-0.06,-0.06,0.06,203.06,238.0,0.0,0.0,0.0,0.0
1776357703954737078,11216,0.0,0.5,0.0,0.8,-0.12,-0.08,0.06,-3.88,3.75,0.05,0.06,-0.37,-0.06,-0.12,0.0,203.06,238.0,0.0,0.0,0.0,0.0
1776357704057132925,11316,0.0,0.1,0.0,1.2,0.02,-0.02,0.06,-3.88,3.75,0.01,0.1,-0.4,0.06,-0.19,-0.12,203.06,238.0,0.0,0.0,0.0,0.0
1776357704155432461,11416,0.0,0.1,0.0,0.2,-0.08,-0.14,0.06,-3.88,3.75,0.02,0.05,-0.39,0.12,-0.19,-0.06,202.03,238.0,0.0,0.0,0.0,0.0
1776357704257843473,11516,0.0,0.0,0.0,0.5,-0.04,0.0,0.06,-3.88,3.75,0.03,0.02,-0.37,0.06,0.06,-0.06,203.23,238.0,0.0,0.0,0.0,0.0
1776357704360235671,11617,0.0,0.0,0.0,0.3,-0.02,-0.08,0.06,-3.88,3.75,0.0,0.05,-0.39,-0.12,-0.12,-0.12,215.06,239.0,0.0,0.0,0.0,0.0
1776357704458536207,11717,0.0,0.3,0.0,1.1,-0.1,0.0,0.06,-3.88,3.75,0.0,0.05,-0.35,0.12,0.06,0.0,222.09,237.0,0.0,0.0,0.0,0.0
1776357704556835355,11816,0.004,0.2,0.0,1.2,0.06,0.02,0.06,-3.88,3.75,0.0,0.04,-0.37,0.06,-0.12,0.0,231.18,237.0,0.0,0.0,0.0,0.0
1776357704655149484,11916,0.0,0.9,0.0,0.4,0.1,-0.06,0.06,-3.88,3.75,0.02,0.08,-0.38,-0.0,-0.0,0.06,221.58,235.0,0.0,0.0,0.0,0.0
1776357704757543459,12015,0.0,0.5,0.008,0.5,0.1,0.02,0.06,-3.88,3.75,0.05,0.04,-0.4,-0.06,0.12,0.0,210.94,232.0,0.0,0.0,0.0,0.0
1776357704855844255,12115,0.0,0.4,0.0,1.3,-0.08,-0.02,0.06,-3.88,3.75,-0.03,0.03,-0.41,0.12,-0.0,0.06,259.82,232.0,0.0,0.0,0.0,0.0
1776357704958236675,12215,0.0,0.3,0.0,0.2,-0.02,0.0,0.06,-3.88,3.75,0.02,0.07,-0.38,-0.0,0.25,0.0,219.18,228.0,0.0,0.0,0.0,0.0
1776357705056543969,12316,0.0,0.7,0.0,0.6,0.06,-0.14,0.06,-3.88,3.75,0.0,0.03,-0.39,0.06,0.12,-0.12,209.06,230.0,0.0,0.0,0.0,0.0
1776357705158942127,12417,0.0,0.3,0.0,0.9,-0.08,0.02,0.06,-3.88,3.75,0.01,0.05,-0.39,0.06,-0.12,-0.06,206.66,230.0,0.0,0.0,0.0,0.0
1776357705257227217,12517,0.0,0.3,0.0,0.2,0.12,-0.02,0.06,-3.88,3.75,0.04,0.05,-0.35,-0.06,-0.0,0.12,203.06,234.0,0.0,0.0,0.0,0.0
1776357705355513658,12616,0.0,0.0,0.0,1.2,0.0,-0.14,0.06,-3.88,3.75,0.0,0.04,-0.41,0.06,-0.06,0.06,202.54,234.0,0.0,0.0,0.0,0.0
1776357705457933538,12716,0.0,0.1,0.0,0.3,-0.06,0.06,0.06,-3.88,3.75,0.01,0.03,-0.35,-0.0,-0.25,0.12,215.75,234.0,0.0,0.0,0.0,0.0
1776357705556237869,12816,0.0,0.1,0.0,0.5,0.18,0.02,0.06,-3.88,3.75,0.0,0.07,-0.38,-0.06,-0.19,0.06,216.78,238.0,0.0,0.0,0.0,0.0
1776357705658645137,12915,0.0,0.1,0.0,0.3,-0.06,-0.12,0.06,-3.88,3.75,0.01,0.05,-0.42,0.06,-0.0,-0.06,221.06,238.0,0.0,0.0,0.0,0.0
1776357705756933616,13016,0.0,0.4,0.0,1.0,-0.04,-0.08,0.06,-3.88,3.75,0.03,0.06,-0.37,0.12,-0.06,0.06,207.86,236.0,0.0,0.0,0.0,0.0
1776357705859329422,13116,0.004,0.2,0.0,0.8,-0.18,0.06,0.06,-3.88,3.75,0.0,0.03,-0.36,-0.06,-0.12,0.0,211.12,237.0,0.0,0.0,0.0,0.0
1776357705957652567,13216,0.0,0.2,0.0,0.3,-0.06,0.1,0.06,-3.88,3.75,0.02,0.06,-0.38,-0.12,0.19,0.06,233.07,237.0,0.0,0.0,0.0,0.0
1776357706059995298,13317,0.0,0.0,0.0,0.9,-0.25,-0.02,0.06,-3.88,3.75,0.02,0.04,-0.37,-0.06,0.19,-0.12,237.18,238.0,0.0,0.0,0.0,0.0
1776357706158302015,13418,0.0,0.3,0.0,0.5,0.06,-0.08,0.06,-3.88,3.75,0.01,0.04,-0.38,-0.06,-0.06,-0.06,255.71,238.0,0.0,0.0,0.0,0.0
1776357706260734540,13518,0.0,0.1,0.0,1.2,-0.08,0.06,0.06,-3.88,3.75,0.02,0.05,-0.37,-0.06,0.37,0.0,243.02,238.0,0.0,0.0,0.0,0.0
1776357706359014313,13618,0.0,0.5,0.0,0.3,-0.04,-0.08,0.06,-3.88,3.75,0.01,0.03,-0.39,-0.12,-0.06,-0.06,238.9,239.0,0.0,0.0,0.0,0.0
1776357706461420023,13718,0.0,0.4,0.0,1.0,0.06,0.08,0.06,-3.88,3.75,0.04,0.06,-0.37,-0.0,-0.19,0.12,247.47,239.0,0.0,0.0,0.0,0.0
1776357706559720925,13817,0.0,0.9,0.0,1.1,-0.04,-0.14,0.06,-3.88,3.75,0.02,0.05,-0.39,0.06,0.12,-0.12,207.34,240.0,0.0,0.0,0.0,0.0
1776357706658042216,13917,0.0,0.3,0.0,0.1,-0.06,-0.08,0.06,-3.88,3.75,0.04,0.04,-0.38,-0.06,-0.0,0.06,259.31,240.0,0.0,0.0,0.0,0.0
1776357706760435483,14018,0.004,0.0,0.0,-0.1,0.02,-0.2,0.06,-3.88,3.75,0.0,0.05,-0.38,0.06,-0.0,0.0,283.83,240.0,0.0,0.0,0.0,0.0
1776357706858720144,14117,0.0,0.6,0.0,0.6,-0.16,-0.02,0.06,-3.88,3.75,0.02,0.03,-0.37,-0.06,0.31,0.0,280.23,241.0,0.0,0.0,0.0,0.0
1776357706961095151,14218,0.0,0.2,0.0,0.5,0.04,-0.02,0.06,-3.88,3.75,0.0,0.07,-0.38,-0.0,0.06,0.0,284.52,243.0,0.0,0.0,0.0,0.0
1776357707063508731,14319,0.0,0.4,0.0,0.2,-0.02,-0.06,0.06,-3.88,3.75,0.05,0.06,-0.37,-0.0,-0.12,0.12,219.86,243.0,0.0,0.0,0.0,0.0
1776357707161811723,14419,0.0,0.3,0.0,0.8,0.04,-0.18,0.06,-3.88,3.75,0.03,0.05,-0.33,-0.06,-0.0,0.0,214.03,243.0,0.0,0.0,0.0,0.0
1776357707260128364,14520,0.0,0.7,0.0,0.5,0.0,-0.06,0.06,-3.88,3.75,0.02,0.06,-0.38,0.12,-0.06,0.0,207.34,237.0,0.0,0.0,0.0,0.0
1776357707362506183,14619,0.0,0.0,0.0,0.2,-0.06,-0.06,0.06,-3.88,3.75,0.03,-0.0,-0.38,-0.0,-0.25,0.19,216.26,237.0,0.0,0.0,0.0,0.0
1776357707460783990,14720,0.0,0.0,0.0,0.6,-0.02,-0.12,0.06,-3.88,3.75,0.08,0.03,-0.39,0.12,-0.06,0.12,207.17,237.0,0.0,0.0,0.0,0.0
1776357707563218124,14820,0.0,0.3,0.0,0.9,0.04,0.0,0.06,-3.88,3.75,0.04,-0.0,-0.35,-0.12,0.81,-0.31,207.34,237.0,0.0,0.0,0.0,0.0
1776357707661522080,14920,0.0,0.4,0.0,1.0,-0.02,-0.08,0.06,-3.88,3.75,0.0,-0.05,-0.37,-0.19,-0.19,0.0,238.56,235.0,0.0,0.0,0.0,0.0
1776357707763927103,15020,0.0,0.2,0.0,1.2,0.0,-0.08,0.06,-3.88,3.75,0.03,0.08,-0.38,-0.0,-0.37,0.12,244.39,235.0,0.0,0.0,0.0,0.0
1776357707862214114,15120,0.0,0.9,0.0,0.1,-0.08,-0.06,0.06,-3.88,3.75,0.04,0.1,-0.39,-0.0,0.06,-0.06,210.94,235.0,0.0,0.0,0.0,0.0
1776357707964610211,15220,0.0,0.2,0.0,1.1,-0.04,-0.04,0.06,-3.88,3.75,0.03,0.12,-0.36,0.06,0.25,-0.06,206.66,235.0,0.0,0.0,0.0,0.0
1776357708062901794,15320,0.004,0.0,0.0,0.5,-0.02,-0.08,0.06,-3.88,3.75,-0.04,-0.0,-0.49,-0.0,0.44,0.0,203.06,234.0,0.0,0.0,0.0,0.0
1776357708165299722,15420,0.0,0.2,0.0,1.2,-0.08,-0.1,0.06,-3.88,3.75,0.06,-0.0,-0.33,-0.12,-0.0,0.19,203.06,234.0,0.0,0.0,0.0,0.0
1776357708263596361,15520,0.0,0.1,0.0,0.5,0.02,0.04,0.06,-3.81,3.75,0.05,0.24,-0.4,-0.0,-0.12,-0.12,203.06,234.0,0.0,0.0,0.0,0.0
1776357708361907999,15620,0.004,0.3,0.0,0.8,-0.04,-0.12,0.06,-3.81,3.75,0.01,-0.0,-0.39,-0.12,0.5,-0.31,203.06,235.0,0.0,0.0,0.0,0.0
1776357708464308723,15720,0.0,0.2,0.0,1.3,-0.12,0.08,0.06,-3.88,3.75,0.05,-0.06,-0.36,-0.06,0.56,-0.12,202.03,235.0,0.0,0.0,0.0,0.0
1776357708562601510,15820,0.004,0.4,0.0,0.4,-0.06,0.04,0.06,-3.88,3.75,0.03,0.11,-0.37,-0.12,0.06,0.0,210.94,236.0,0.0,0.0,0.0,0.0
1776357708664993975,15921,0.0,0.6,0.0,1.0,0.1,-0.04,0.06,-3.88,3.75,0.01,0.03,-0.39,-0.12,-0.25,0.12,210.94,236.0,0.0,0.0,0.0,0.0
1776357708763354039,16021,0.0,0.7,0.0,0.3,-0.04,0.02,0.06,-3.88,3.75,0.0,0.03,-0.38,-0.0,0.37,-0.12,207.86,234.0,0.0,0.0,0.0,0.0
1776357708865693375,16120,0.0,0.9,0.004,0.6,-0.1,-0.14,0.06,-3.81,3.75,0.01,0.08,-0.36,-0.12,0.31,-0.19,212.15,235.0,0.0,0.0,0.0,0.0
1776357708964017791,16221,0.0,1.1,0.0,0.2,0.06,-0.04,0.06,-3.81,3.75,0.03,-0.0,-0.38,-0.06,0.31,0.0,207.86,235.0,0.0,0.0,0.0,0.0
1776357709062219557,16321,0.0,-0.1,0.0,0.8,0.02,-0.1,0.06,-3.81,3.75,0.01,0.04,-0.37,-0.19,0.31,0.0,211.46,234.0,0.0,0.0,0.0,0.0
1776357709164662946,16420,0.0,1.0,0.0,0.4,-0.1,-0.08,0.06,-3.81,3.75,0.02,0.08,-0.33,-0.06,0.06,0.06,228.44,235.0,0.0,0.0,0.0,0.0
1776357709267098372,16521,0.0,0.1,0.0,0.3,-0.06,-0.1,0.06,-3.81,3.75,0.03,0.04,-0.37,-0.06,0.19,-0.06,216.26,235.0,0.0,0.0,0.0,0.0
1776357709365443490,16622,0.004,0.1,0.0,0.8,0.1,-0.12,0.06,-3.81,3.75,0.05,0.06,-0.38,-0.12,0.19,0.0,219.35,236.0,0.0,0.0,0.0,0.0
1776357709467793934,16722,0.0,0.2,0.0,0.1,-0.02,0.0,0.06,-3.81,3.75,0.03,0.06,-0.36,-0.0,0.06,-0.12,219.86,233.0,0.0,0.0,0.0,0.0
1776357709566096903,16822,0.0,0.0,0.0,1.0,-0.02,-0.12,0.06,-3.81,3.75,0.04,0.06,-0.4,-0.06,0.12,0.0,203.23,233.0,0.0,0.0,0.0,0.0
1776357709664381002,16922,0.0,0.2,0.0,0.1,0.12,0.0,0.06,-3.81,3.75,0.01,0.03,-0.37,0.06,0.19,-0.06,234.78,234.0,0.0,0.0,0.0,0.0
1776357709766784039,17021,0.004,0.0,0.0,0.4,0.08,-0.12,0.06,-3.81,3.75,0.04,0.08,-0.37,0.06,-0.19,-0.06,199.63,223.0,0.0,0.0,0.0,0.0
1776357709865086916,17122,0.0,0.3,0.0,1.2,0.08,-0.06,0.06,-3.81,3.75,0.04,0.04,-0.4,-0.0,-0.0,0.0,190.54,223.0,0.0,0.0,0.0,0.0
1776357709967504360,17222,0.0,0.8,0.0,0.2,-0.16,0.08,0.06,-3.81,3.75,0.02,-0.0,-0.35,-0.0,0.06,-0.06,217.98,225.0,0.0,0.0,0.0,0.0
1776357710065748588,17321,0.0,0.8,0.0,0.9,-0.02,-0.02,0.06,-3.81,3.75,0.02,0.08,-0.4,0.12,0.06,-0.12,214.55,225.0,0.0,0.0,0.0,0.0
1776357710168156233,17421,0.0,0.3,0.0,0.1,-0.14,-0.06,0.06,-3.81,3.75,-0.02,0.09,-0.35,0.12,-0.06,0.0,225.35,230.0,0.0,0.0,0.0,0.0
1776357710266477608,17522,0.004,1.0,0.0,0.8,-0.14,-0.02,0.06,-3.81,3.75,0.05,0.04,-0.37,0.06,-0.25,0.06,230.5,233.0,0.0,0.0,0.0,0.0
1776357710368882310,17623,0.0,0.2,0.0,0.5,-0.02,-0.04,0.06,-3.81,3.75,0.01,0.04,-0.34,-0.0,0.12,0.0,203.74,233.0,0.0,0.0,0.0,0.0
1776357710467182925,17723,0.0,0.6,0.0,0.0,0.04,-0.18,0.06,-3.81,3.75,0.01,-0.0,-0.39,0.06,0.06,-0.12,224.66,234.0,0.0,0.0,0.0,0.0
1776357710565494541,17822,0.004,0.2,0.0,0.4,0.0,-0.08,0.06,-3.81,3.75,0.01,0.05,-0.37,0.06,-0.19,-0.06,254.68,235.0,0.0,0.0,0.0,0.0
1776357710667885260,17922,0.0,0.2,0.0,0.9,-0.02,-0.12,0.06,-3.81,3.75,0.0,-0.05,-0.38,-0.12,-0.19,0.0,231.01,235.0,0.0,0.0,0.0,0.0
1776357710766185876,18023,0.0,0.1,0.0,0.7,0.0,-0.04,0.06,-3.81,3.75,0.11,0.09,-0.37,-0.0,-0.12,0.19,223.46,235.0,0.0,0.0,0.0,0.0
1776357710868561170,18122,0.0,0.5,0.0,0.9,-0.06,-0.1,0.06,-3.81,3.75,0.01,0.07,-0.36,-0.12,-0.06,0.12,221.75,236.0,0.0,0.0,0.0,0.0
1776357710966896674,18222,0.0,1.0,0.0,0.5,0.08,-0.06,0.06,-3.81,3.75,0.04,0.05,-0.37,-0.12,0.37,-0.06,218.66,236.0,0.0,0.0,0.0,0.0
1776357711065122566,18322,0.004,0.1,0.0,0.9,0.0,-0.1,0.06,-3.81,3.75,0.04,0.04,-0.4,-0.0,0.31,-0.06,222.78,236.0,0.0,0.0,0.0,0.0
1776357711167580191,18421,0.0,0.5,0.0,0.7,0.08,0.08,0.06,-3.81,3.75,0.02,0.04,-0.36,-0.06,0.31,0.0,227.07,236.0,0.0,0.0,0.0,0.0
1776357711265877731,18521,0.004,0.1,0.0,0.2,0.06,0.0,0.06,-3.81,3.75,0.04,0.04,-0.41,-0.0,0.12,0.0,218.66,236.0,0.0,0.0,0.0,0.0
1776357711368268059,18622,0.0,0.3,0.0,0.9,-0.04,-0.02,0.06,-3.81,3.75,0.0,0.09,-0.4,0.19,-0.19,-0.12,225.87,237.0,0.0,0.0,0.0,0.0
1776357711466572451,18722,0.004,0.1,0.0,0.6,0.0,-0.06,0.06,-3.81,3.75,0.0,-0.0,-0.36,0.06,0.19,0.06,217.63,237.0,0.0,0.0,0.0,0.0
1776357711568970965,18822,0.0,0.4,0.0,1.2,-0.21,-0.1,0.06,-3.81,3.75,0.04,0.02,-0.37,0.06,-0.31,-0.06,214.38,239.0,0.0,0.0,0.0,0.0
1776357711667282837,18923,0.0,0.4,0.0,0.9,-0.14,-0.02,0.06,-3.81,3.75,0.05,0.11,-0.38,-0.0,-0.06,0.06,218.66,237.0,0.0,0.0,0.0,0.0
1776357711765567747,19022,0.0,0.3,0.0,1.0,-0.04,-0.08,0.06,-3.81,3.75,0.0,0.01,-0.38,0.19,-0.06,-0.06,217.46,237.0,0.0,0.0,0.0,0.0
1776357711867966076,19122,0.0,0.4,0.0,0.1,0.1,-0.1,0.06,-3.81,3.75,0.05,-0.0,-0.39,0.06,-0.0,0.06,214.38,238.0,0.0,0.0,0.0,0.0
1776357711966291671,19222,0.0,0.1,0.0,0.2,-0.1,-0.12,0.06,-3.81,3.75,0.0,0.05,-0.36,0.06,-0.06,0.06,218.66,238.0,0.0,0.0,0.0,0.0
1776357712068651813,19321,0.0,0.5,0.0,0.2,-0.1,-0.06,0.06,-3.81,3.75,0.03,0.05,-0.4,-0.06,0.19,0.06,235.47,238.0,0.0,0.0,0.0,0.0
1776357712166948332,19421,0.0,0.5,0.0,1.3,-0.04,0.0,0.06,-3.81,3.75,0.0,0.03,-0.39,-0.0,0.12,0.12,227.07,239.0,0.0,0.0,0.0,0.0
1776357712265274147,19521,0.0,0.4,0.0,0.5,0.06,-0.02,0.06,-3.81,3.75,0.0,0.08,-0.4,0.12,0.06,0.0,224.84,239.0,0.0,0.0,0.0,0.0
1776357712367665603,19620,0.0,0.1,0.0,0.3,0.04,0.1,0.06,-3.81,3.75,0.03,0.02,-0.36,-0.06,-0.0,-0.06,254.68,238.0,0.0,0.0,0.0,0.0
1776357712465995271,19721,0.0,0.4,0.0,0.3,0.04,0.04,0.06,-3.81,3.75,0.02,0.03,-0.37,-0.06,-0.06,0.12,271.31,239.0,0.0,0.0,0.0,0.0
1776357712568357394,19821,0.0,0.2,0.0,0.9,-0.08,-0.18,0.06,-3.81,3.75,0.0,0.03,-0.37,0.06,0.06,0.06,288.12,239.0,0.0,0.0,0.0,0.0
1776357712666662246,19920,0.004,0.1,0.0,0.8,0.06,0.02,0.06,-3.81,3.75,0.01,0.09,-0.38,0.06,-0.0,-0.06,289.15,240.0,0.0,0.0,0.0,0.0
