timestamp_ns,time_ms,voltage_left,current_left_ma,voltage_right,current_right_ma,motor_current_left,motor_current_right,euler_x,euler_y,euler_z,acc_lin_x,acc_lin_y,acc_lin_z,gyro_x,gyro_y,gyro_z,sonar_mm,tof_mm,rpm_left,rpm_right,rotations_left,rotations_right
1776452151148116423,207277,,4.0,0.6,0.21,0.02,15.5,0.63,-3.0,0.0,-0.32,0.07,0.0,-0.19,0.06,168.24,209.0,0.0,0.0,0.0,,0.0
1776452151149667255,367016,0.0,0.8,0.064,0.6,0.21,0.02,-15.5,0.63,3.0,-0.07,-0.0,-0.32,-0.0,-0.19,-0.06,168.24,209.0,0.0,0.0,0.0,
1776452153978000186,367016,0.0,0.8,0.064,0.6,0.21,0.02,-15.5,0.63,3.0,-0.07,-0.0,-0.32,-0.0,-0.19,-0.06,168.24,209.0,0.0,0.0,0.0,
1776452154066399886,1904,0.0,0.7,0.0,1.2,-0.08,-0.08,-0.0,0.81,3.63,0.01,-0.02,-0.31,0.06,0.06,-0.06,168.24,182.0,0.0,0.0,0.0,0.0
1776452154164713537,2004,0.072,0.2,0.0,1.1,0.04,-0.04,-0.0,0.81,3.63,0.03,-0.06,-0.36,-0.12,0.12,-0.06,168.24,206.0,0.0,0.0,0.0,0.0
1776452154267094271,2105,0.08,0.1,0.0,1.2,0.1,-0.04,-0.0,0.81,3.63,0.06,0.03,-0.33,0.06,-0.0,-0.19,168.41,206.0,0.0,0.0,0.0,0.0
1776452154365335646,2205,0.08,0.3,0.0,1.1,0.0,-0.06,-0.0,0.81,3.63,0.03,-0.0,-0.32,0.06,-0.0,0.0,168.24,207.0,0.0,0.0,0.0,0.0
1776452154467767230,2306,0.084,0.2,0.0,1.1,0.02,-0.02,-0.0,0.81,3.63,0.0,-0.0,-0.32,0.19,-0.0,-0.06,168.24,212.0,0.0,0.0,0.0,0.0
1776452154570145724,2407,0.084,0.2,0.0,1.4,0.08,-0.1,-0.0,0.81,3.63,0.07,-0.11,-0.43,0.25,0.06,-0.12,168.24,212.0,0.0,0.0,0.0,0.0
1776452154668470004,2507,0.08,0.2,0.0,0.6,0.12,-0.08,0.06,0.81,3.63,0.09,-0.0,-0.3,-0.19,0.06,-0.06,168.24,198.0,0.0,0.0,0.0,0.0
1776452154770928828,2607,0.0,0.7,0.064,0.4,0.08,-0.12,0.06,0.81,3.63,-0.01,0.02,-0.31,-0.25,-0.12,0.06,168.93,193.0,0.0,0.0,0.0,0.0
1776452154869168129,2707,0.0,0.7,0.06,0.4,0.18,0.0,0.06,0.81,3.63,-0.02,0.01,-0.31,0.19,-0.12,0.0,168.24,193.0,0.0,0.0,0.0,0.0
1776452154971563381,2807,0.084,0.0,0.068,0.4,0.1,-0.1,0.06,0.81,3.63,0.04,-0.0,-0.36,-0.0,0.25,0.06,168.24,221.0,0.0,0.0,0.0,0.0
1776452155069854612,2908,0.0,0.1,0.0,0.9,0.08,0.0,0.06,0.81,3.63,0.05,-0.01,-0.35,-0.12,0.12,0.12,168.24,208.0,0.0,0.0,0.0,0.0
1776452155172246992,3009,0.08,0.2,0.06,0.3,-0.08,-0.04,0.06,0.81,3.63,0.0,-0.0,-0.32,-0.12,-0.06,-0.12,168.24,208.0,0.0,0.0,0.0,0.0
1776452155270551939,3108,0.0,0.8,0.0,1.4,0.1,-0.12,0.06,0.81,3.63,0.0,-0.0,-0.33,0.25,-0.19,0.0,168.24,211.0,0.0,0.0,0.0,0.0
1776452155373070371,3208,0.088,1.3,0.0,0.0,0.02,0.04,0.06,0.81,3.63,0.07,-0.02,-0.33,-0.12,0.12,0.0,168.24,211.0,0.0,0.0,0.0,0.0
1776452155471198933,3308,0.0,0.9,0.0,1.6,-0.1,-0.16,0.06,0.81,3.63,0.05,0.01,-0.33,-0.06,-0.0,0.0,168.24,202.0,0.0,0.0,0.0,0.0
1776452155569506694,3408,0.08,0.4,0.068,0.5,-0.04,0.0,0.06,0.81,3.63,0.04,-0.03,-0.34,-0.06,-0.0,0.0,168.41,202.0,0.0,0.0,0.0,0.0
1776452155671938741,3508,0.076,0.2,0.0,0.4,0.06,-0.14,0.06,0.81,3.63,0.03,-0.01,-0.33,-0.06,-0.0,0.0,168.24,202.0,0.0,0.0,0.0,0.0
1776452155770226206,3608,0.0,0.3,0.0,1.6,0.06,-0.04,0.06,0.81,3.63,0.04,-0.02,-0.31,0.12,-0.0,-0.12,168.24,214.0,0.0,0.0,0.0,0.0
1776452155868535115,3707,0.088,0.1,0.068,0.2,0.0,-0.08,0.06,0.81,3.63,0.01,-0.0,-0.31,-0.19,0.19,-0.12,168.24,194.0,0.0,0.0,0.0,0.0
1776452156105624634,3807,0.0,0.2,0.0,0.5,-0.02,-0.02,0.06,0.81,3.63,0.0,-0.01,-0.34,-0.06,-0.0,0.0,168.24,194.0,0.0,0.0,0.0,0.0
1776452156167494043,3907,0.0,0.5,0.064,0.5,0.18,-0.14,0.06,0.81,3.63,0.01,-0.02,-0.32,-0.06,-0.12,-0.06,168.24,209.0,0.0,0.0,0.0,0.0
1776452156179916097,4006,0.0,0.8,0.064,0.5,0.12,-0.14,0.06,0.81,3.63,0.03,-0.0,-0.34,-0.0,-0.0,-0.12,169.27,199.0,0.0,0.0,0.0,0.0
1776452156269884644,4107,0.0,0.7,0.0,1.5,0.0,0.0,0.06,0.81,3.63,0.01,-0.0,-0.32,-0.06,-0.06,-0.06,168.76,199.0,0.0,0.0,0.0,0.0
1776452156368200516,4207,0.088,0.1,0.068,0.3,0.18,-0.02,0.06,0.81,3.63,0.02,-0.0,-0.32,-0.12,-0.0,-0.06,168.93,199.0,0.0,0.0,0.0,0.0
1776452156470575747,4306,0.0,1.3,0.068,0.6,0.04,-0.06,0.06,0.81,3.63,0.02,-0.0,-0.32,-0.0,-0.06,-0.12,168.24,199.0,0.0,0.0,0.0,0.0
1776452156568860398,4406,0.0,0.2,0.056,0.5,-0.04,0.06,0.06,0.81,3.63,0.01,0.01,-0.32,-0.12,0.12,0.0,168.76,203.0,0.0,0.0,0.0,0.0
1776452156671296257,4507,0.0,0.9,0.0,1.5,0.23,0.04,0.06,0.81,3.63,0.01,-0.0,-0.31,0.06,-0.0,-0.06,168.76,211.0,0.0,0.0,0.0,0.0
1776452156769613092,4606,0.088,0.0,0.0,1.2,0.1,-0.02,0.06,0.81,3.63,0.02,-0.04,-0.33,-0.0,-0.06,0.0,168.93,211.0,0.0,0.0,0.0,0.0
1776452156893617718,4706,0.084,0.2,0.0,1.5,0.12,-0.08,0.06,0.81,3.63,0.02,-0.01,-0.31,0.12,-0.06,0.06,168.24,206.0,0.0,0.0,0.0,0.0
1776452156970295732,4806,0.084,0.1,0.0,1.4,-0.02,-0.16,0.06,0.81,3.63,0.03,-0.0,-0.31,-0.0,-0.19,0.12,168.24,196.0,0.0,0.0,0.0,0.0
1776452157072682468,4907,0.084,0.2,0.0,1.6,0.0,-0.1,0.06,0.81,3.63,0.04,-0.04,-0.31,-0.06,0.06,-0.06,168.24,196.0,0.0,0.0,0.0,0.0
1776452157170981803,5007,0.012,1.1,0.0,1.3,0.1,-0.04,0.06,0.81,3.63,0.01,-0.0,-0.31,0.06,0.06,0.06,168.24,205.0,0.0,0.0,0.0,0.0
1776452157273368459,5108,0.092,0.3,0.0,0.5,0.1,-0.1,0.06,0.81,3.63,0.04,-0.01,-0.3,-0.06,0.06,0.0,172.36,211.0,0.0,0.0,0.0,0.0
1776452157371646202,5208,0.0,1.0,0.0,1.6,0.02,-0.18,0.06,0.81,3.63,0.0,-0.01,-0.29,-0.19,-0.06,0.06,172.36,211.0,0.0,0.0,0.0,0.0
1776452157469910797,5308,0.0,0.3,0.0,0.4,0.04,-0.12,0.06,0.81,3.63,0.02,0.01,-0.32,-0.0,-0.0,0.06,168.24,197.0,0.0,0.0,0.0,0.0
1776452157572357544,5407,0.0,1.0,0.0,1.7,-0.04,-0.02,0.06,0.81,3.63,0.03,-0.02,-0.31,-0.06,0.12,-0.06,168.76,197.0,0.0,0.0,0.0,0.0
1776452157670660009,5507,0.0,0.1,0.0,1.4,-0.06,-0.06,0.06,0.81,3.63,0.03,-0.01,-0.32,0.19,-0.12,-0.12,168.93,215.0,0.0,0.0,0.0,0.0
1776452157779037808,5607,0.0,0.9,0.064,0.6,0.12,-0.04,0.06,0.81,3.63,0.03,-0.0,-0.33,-0.06,0.06,0.06,168.76,211.0,0.0,0.0,0.0,0.0
1776452157871353444,5707,0.0,1.0,0.0,1.5,0.0,-0.12,0.06,0.81,3.63,0.02,0.02,-0.33,-0.0,0.12,0.0,168.93,211.0,0.0,0.0,0.0,0.0
1776452157973742674,5808,0.0,0.4,0.06,0.3,0.02,0.0,0.06,0.81,3.63,0.03,-0.02,-0.32,0.06,-0.19,0.0,168.24,210.0,0.0,0.0,0.0,0.0
1776452158072048533,5909,0.0,0.1,0.0,1.3,0.02,-0.08,0.06,0.81,3.63,0.03,-0.0,-0.31,0.12,-0.0,0.12,168.24,200.0,0.0,0.0,0.0,0.0
1776452158213625752,6008,0.0,0.0,0.0,1.2,0.06,-0.08,0.06,0.81,3.63,0.02,-0.0,-0.33,-0.0,-0.19,0.06,168.24,200.0,0.0,0.0,0.0,0.0
1776452158272738375,6108,0.04,0.6,0.056,0.6,0.1,-0.12,0.06,0.81,3.63,0.02,-0.01,-0.32,0.06,-0.06,0.06,168.24,209.0,0.0,0.0,0.0,0.0
1776452158371048247,6208,0.0,1.3,0.0,0.3,-0.08,-0.14,0.06,0.81,3.63,0.01,-0.01,-0.32,-0.06,0.19,0.0,168.24,205.0,0.0,0.0,0.0,0.0
1776452158473363868,6307,0.0,1.0,0.068,0.2,0.0,0.0,0.06,0.81,3.63,0.04,-0.02,-0.32,-0.0,0.06,0.06,168.24,205.0,0.0,0.0,0.0,0.0
1776452158571701220,6407,0.0,0.7,0.0,1.6,0.08,-0.08,0.06,0.81,3.63,0.02,0.01,-0.36,-0.06,-0.06,0.06,168.24,182.0,0.0,0.0,0.0,0.0
1776452158670034776,6507,0.084,0.4,0.0,1.4,-0.14,-0.04,0.06,0.81,3.63,0.0,-0.01,-0.33,0.06,-0.12,0.06,168.24,182.0,0.0,0.0,0.0,0.0
1776452158772420228,6606,0.088,-0.1,0.068,0.5,0.21,-0.02,0.06,0.81,3.63,0.0,-0.0,-0.32,-0.06,-0.12,-0.06,168.24,203.0,0.0,0.0,0.0,0.0
1776452158870721711,6707,0.0,1.3,0.064,0.2,0.0,-0.08,0.06,0.81,3.63,0.03,-0.0,-0.33,-0.0,0.06,0.0,168.24,203.0,0.0,0.0,0.0,0.0
1776452158973115478,6807,0.0,0.2,0.0,1.2,-0.02,-0.21,0.06,0.81,3.63,0.03,-0.01,-0.32,0.06,-0.0,-0.06,168.24,203.0,0.0,0.0,0.0,0.0
1776452159071434281,6907,0.076,0.1,0.0,1.0,0.02,-0.1,0.06,0.81,3.63,0.03,-0.0,-0.32,-0.0,-0.06,0.0,168.24,209.0,0.0,0.0,0.0,0.0
1776452159173811918,7007,0.08,0.4,0.0,1.3,0.2,0.04,0.06,0.81,3.63,0.02,-0.01,-0.31,0.12,-0.06,-0.06,168.24,193.0,0.0,0.0,0.0,0.0
1776452159272101013,7107,0.084,0.0,0.064,0.2,0.16,-0.06,0.06,0.81,3.63,0.01,-0.01,-0.3,0.06,0.06,-0.06,168.24,193.0,0.0,0.0,0.0,0.0
1776452159370373349,7206,0.0,1.1,0.052,0.2,0.04,-0.1,0.06,0.81,3.63,0.03,-0.0,-0.33,0.06,0.12,0.06,168.24,214.0,0.0,0.0,0.0,0.0
1776452159472759708,7306,0.0,0.8,0.064,0.5,0.1,-0.08,0.06,0.81,3.63,0.02,0.01,-0.32,-0.0,-0.0,0.0,168.24,201.0,0.0,0.0,0.0,0.0
1776452159571073432,7406,0.0,1.1,0.068,0.3,0.02,0.02,0.06,0.81,3.63,0.03,-0.01,-0.32,-0.06,-0.06,0.0,168.24,201.0,0.0,0.0,0.0,0.0
1776452159669384804,7505,0.076,0.1,0.064,0.4,0.02,-0.14,0.06,0.81,3.63,0.02,-0.0,-0.31,0.06,-0.06,0.12,168.24,205.0,0.0,0.0,0.0,0.0
1776452159771780867,7606,0.0,1.2,0.064,0.5,0.04,-0.06,0.06,0.81,3.63,0.03,-0.01,-0.32,0.12,-0.0,-0.06,168.24,205.0,0.0,0.0,0.0,0.0
1776452159870057925,7706,0.0,1.2,0.0,1.1,0.06,-0.16,0.06,0.81,3.63,0.02,-0.0,-0.37,-0.0,0.06,0.0,168.24,195.0,0.0,0.0,0.0,0.0
1776452159972542781,7806,0.08,0.2,0.0,1.1,0.04,-0.21,0.06,0.81,3.63,0.02,-0.02,-0.31,0.06,-0.12,0.0,168.24,203.0,0.0,0.0,0.0,0.0
1776452160070773200,7906,0.088,0.1,0.0,1.3,0.1,-0.16,0.06,0.81,3.63,0.03,-0.01,-0.31,0.06,-0.06,0.19,168.24,203.0,0.0,0.0,0.0,0.0
1776452160173173355,8006,0.08,0.5,0.0,1.6,0.21,-0.02,0.06,0.81,3.63,0.01,-0.0,-0.31,0.06,-0.0,-0.06,168.24,207.0,0.0,0.0,0.0,0.0
1776452160271464062,8105,0.084,0.1,0.0,1.5,0.2,-0.18,0.06,0.81,3.63,0.03,-0.0,-0.33,0.06,-0.06,0.06,168.24,191.0,0.0,0.0,0.0,0.0
1776452160369755732,8205,0.0,1.2,0.068,1.0,0.08,-0.1,0.06,0.81,3.63,0.02,-0.0,-0.32,0.12,-0.0,-0.12,168.24,191.0,0.0,0.0,0.0,0.0
1776452160472111610,8305,0.08,0.5,0.0,1.5,0.08,-0.16,0.06,0.81,3.63,0.02,0.01,-0.33,0.12,-0.25,0.0,168.24,214.0,0.0,0.0,0.0,0.0
1776452160570411927,8406,0.08,0.4,0.0,1.4,0.08,-0.06,0.06,0.81,3.63,0.01,-0.0,-0.32,-0.0,0.19,0.12,168.24,202.0,0.0,0.0,0.0,0.0
1776452160672863062,8506,0.088,0.1,0.0,1.4,-0.04,0.02,0.06,0.81,3.63,0.01,-0.0,-0.33,0.06,0.06,-0.06,168.24,202.0,0.0,0.0,0.0,0.0
1776452160771139177,8606,0.0,1.4,0.0,1.1,-0.12,-0.1,0.06,0.81,3.63,0.02,-0.01,-0.34,-0.0,0.12,0.0,168.24,203.0,0.0,0.0,0.0,0.0
1776452160873535369,8707,0.084,0.1,0.0,1.1,-0.02,-0.12,0.06,0.81,3.63,0.01,-0.0,-0.33,-0.06,-0.0,0.0,168.24,203.0,0.0,0.0,0.0,0.0
1776452160971839390,8807,0.084,0.1,0.0,0.7,0.02,-0.14,0.06,0.81,3.63,0.01,-0.01,-0.33,-0.0,-0.19,0.0,168.24,210.0,0.0,0.0,0.0,0.0
1776452161074224163,8907,0.0,0.5,0.0,1.5,-0.02,-0.1,0.06,0.81,3.63,0.02,-0.01,-0.32,0.06,-0.0,0.0,168.24,188.0,0.0,0.0,0.0,0.0
1776452161172528759,9007,0.084,1.3,0.0,1.1,-0.02,-0.12,0.06,0.81,3.63,0.03,-0.02,-0.33,-0.12,-0.0,0.0,168.24,188.0,0.0,0.0,0.0,0.0
1776452161274938562,9107,0.088,0.5,0.0,0.3,0.04,-0.06,0.06,0.81,3.63,0.01,-0.0,-0.33,0.12,-0.19,-0.06,168.24,211.0,0.0,0.0,0.0,0.0
1776452161373206641,9206,0.0,1.0,0.064,1.0,0.1,-0.04,0.06,0.81,3.63,0.01,-0.0,-0.3,0.19,-0.0,0.0,168.24,213.0,0.0,0.0,0.0,0.0
1776452161471508015,9306,0.084,0.2,0.048,0.2,0.06,0.04,0.06,0.81,3.63,0.01,-0.02,-0.32,-0.0,0.12,0.06,168.24,213.0,0.0,0.0,0.0,0.0
1776452161573881097,9407,0.0,0.2,0.0,1.4,-0.04,-0.1,0.06,0.81,3.63,0.03,-0.0,-0.34,0.06,-0.12,-0.06,168.76,191.0,0.0,0.0,0.0,0.0
1776452161672213081,9506,0.092,0.1,0.0,1.3,-0.06,-0.06,0.06,0.81,3.63,0.02,-0.0,-0.34,-0.0,-0.06,0.0,168.93,204.0,0.0,0.0,0.0,0.0
1776452161774602626,9606,0.092,0.1,0.0,0.2,0.0,-0.14,0.06,0.81,3.63,0.02,-0.02,-0.32,0.12,-0.12,-0.06,169.44,204.0,0.0,0.0,0.0,0.0
1776452161872896074,9707,0.0,0.6,0.072,0.3,0.1,-0.12,0.06,0.81,3.63,0.02,-0.01,-0.33,-0.0,0.12,-0.12,168.93,197.0,0.0,0.0,0.0,0.0
1776452161975288137,9806,0.084,0.1,0.0,1.5,0.04,0.06,0.06,0.81,3.63,0.01,0.01,-0.32,-0.06,0.06,-0.06,167.73,199.0,0.0,0.0,0.0,0.0
1776452162073605721,9907,0.088,0.2,0.0,1.4,0.14,-0.04,0.06,0.81,3.63,0.01,-0.0,-0.31,-0.0,-0.06,0.0,168.93,199.0,0.0,0.0,0.0,0.0
1776452162176000747,10007,0.0,0.0,0.056,0.4,0.21,0.0,0.06,0.81,3.63,0.0,-0.01,-0.29,-0.0,-0.0,-0.06,168.76,187.0,0.0,0.0,0.0,0.0
1776452162274299400,10107,0.0,0.7,0.0,0.4,-0.2,0.0,0.06,0.81,3.63,0.02,0.01,-0.35,0.06,-0.06,0.0,168.93,187.0,0.0,0.0,0.0,0.0
1776452162372554036,10207,0.0,1.5,0.064,0.2,0.18,-0.14,0.06,0.81,3.63,0.02,-0.01,-0.36,-0.06,-0.0,0.0,168.93,190.0,0.0,0.0,0.0,0.0
1776452162474969284,10307,0.0,1.2,0.0,1.2,0.04,0.04,0.06,0.81,3.63,0.01,-0.0,-0.32,-0.0,0.06,0.0,168.76,215.0,0.0,0.0,0.0,0.0
1776452162573250197,10406,0.088,-0.2,0.0,1.0,0.14,-0.06,0.06,0.81,3.63,0.03,-0.0,-0.33,-0.0,0.06,0.0,168.76,215.0,0.0,0.0,0.0,0.0
1776452162675680389,10506,0.0,0.7,0.072,0.5,0.1,-0.12,0.06,0.81,3.63,0.02,-0.0,-0.34,-0.06,-0.0,-0.06,168.76,168.0,0.0,0.0,0.0,0.0
1776452162773984116,10606,0.0,0.8,0.06,0.5,0.06,-0.08,0.06,0.81,3.63,0.01,-0.01,-0.36,-0.06,0.06,0.0,169.96,195.0,0.0,0.0,0.0,0.0
1776452162872276677,10706,0.0,0.2,0.0,1.4,0.1,-0.02,0.06,0.81,3.63,0.01,-0.0,-0.35,-0.0,0.06,0.0,168.76,195.0,0.0,0.0,0.0,0.0
1776452162997646279,10806,0.0,1.5,0.0,0.5,0.12,-0.04,0.06,0.81,3.63,0.02,-0.0,-0.36,-0.06,0.12,0.12,168.93,194.0,0.0,0.0,0.0,0.0
1776452163072959753,10906,0.0,0.8,0.056,0.5,0.02,-0.12,0.06,0.81,3.63,0.02,-0.0,-0.35,-0.0,0.12,0.0,168.93,194.0,0.0,0.0,0.0,0.0
1776452163171192261,11005,0.0,0.8,0.068,1.7,0.1,-0.14,0.06,0.81,3.63,0.01,0.01,-0.33,0.06,-0.12,0.0,168.76,179.0,0.0,0.0,0.0,0.0
1776452163273648064,11106,0.08,-0.1,0.0,1.6,0.04,-0.02,0.06,0.81,3.63,0.01,-0.0,-0.33,-0.06,0.06,0.12,168.76,195.0,0.0,0.0,0.0,0.0
1776452163376043980,11207,0.084,1.3,0.068,0.2,0.16,-0.12,0.06,0.81,3.63,0.02,0.01,-0.34,0.12,0.19,-0.06,168.76,195.0,0.0,0.0,0.0,0.0
1776452163474314395,11307,0.0,0.1,0.072,0.7,-0.04,-0.06,0.06,0.81,3.63,0.0,-0.02,-0.33,0.12,-0.12,-0.06,168.24,215.0,0.0,0.0,0.0,0.0
1776452163572618605,11407,0.0,1.3,0.0,1.2,0.06,0.04,0.06,0.81,3.63,0.02,-0.0,-0.35,0.06,-0.19,0.0,168.76,190.0,0.0,0.0,0.0,0.0
1776452163675045817,11506,0.0,0.7,0.06,0.3,0.12,0.0,0.06,0.81,3.63,0.03,-0.02,-0.35,-0.06,-0.0,0.06,168.76,190.0,0.0,0.0,0.0,0.0
1776452163773333138,11606,0.0,0.7,0.0,1.7,0.02,0.04,0.06,0.81,3.63,0.0,0.01,-0.35,-0.0,-0.0,0.0,172.36,192.0,0.0,0.0,0.0,0.0
1776452163871615201,11706,0.08,0.2,0.0,1.5,0.06,-0.04,0.06,0.81,3.63,0.0,0.02,-0.37,0.06,0.12,0.0,168.76,201.0,0.0,0.0,0.0,0.0
1776452163974034172,11805,0.0,1.4,0.068,0.2,0.02,-0.02,0.06,0.81,3.63,0.01,-0.0,-0.3,-0.0,-0.06,0.06,173.04,201.0,0.0,0.0,0.0,0.0
1776452164072320631,11905,0.076,0.2,0.0,1.0,0.25,-0.06,0.06,0.81,3.63,0.04,-0.03,-0.37,-0.0,0.06,0.0,168.76,198.0,0.0,0.0,0.0,0.0
1776452164170591881,12005,0.0,0.4,0.0,1.5,0.02,-0.16,0.06,0.81,3.63,0.0,-0.0,-0.33,-0.06,-0.06,-0.06,168.24,215.0,0.0,0.0,0.0,0.0
1776452164273055426,12104,0.088,0.0,0.0,1.5,0.18,-0.12,0.06,0.81,3.63,0.01,-0.01,-0.34,-0.06,0.06,0.06,172.36,215.0,0.0,0.0,0.0,0.0
1776452164371319842,12204,0.088,0.1,0.0,0.1,-0.08,-0.04,0.06,0.81,3.63,0.02,-0.0,-0.34,0.06,-0.0,0.06,172.36,186.0,0.0,0.0,0.0,0.0
1776452164473683297,12304,0.0,0.3,0.0,1.3,0.04,-0.06,0.06,0.81,3.63,0.0,-0.0,-0.34,0.06,-0.06,-0.06,172.36,186.0,0.0,0.0,0.0,0.0
1776452164571971010,12404,0.08,0.3,0.0,1.2,0.1,-0.23,0.06,0.81,3.63,0.02,-0.01,-0.3,-0.0,-0.12,-0.06,168.24,194.0,0.0,0.0,0.0,0.0
1776452164674399185,12504,0.0,0.9,0.064,0.2,0.02,-0.16,0.06,0.81,3.63,0.02,-0.0,-0.34,-0.0,0.06,0.0,168.24,198.0,0.0,0.0,0.0,0.0
1776452164772704083,12605,0.0,0.9,0.0,1.3,0.08,-0.12,0.06,0.81,3.63,0.01,-0.0,-0.32,-0.0,-0.0,-0.12,172.36,198.0,0.0,0.0,0.0,0.0
1776452164875127202,12705,0.08,0.2,0.0,1.5,-0.04,-0.12,0.06,0.81,3.63,0.04,-0.0,-0.32,0.12,-0.06,0.0,168.24,207.0,0.0,0.0,0.0,0.0
1776452164973390471,12805,0.084,0.1,0.0,1.6,0.04,0.08,0.06,0.81,3.63,0.01,-0.0,-0.35,0.12,-0.06,0.06,168.24,201.0,0.0,0.0,0.0,0.0
1776452165071681413,12905,0.084,0.2,0.0,1.5,0.12,-0.02,0.06,0.81,3.63,0.02,-0.01,-0.33,0.06,-0.06,0.0,168.07,201.0,0.0,0.0,0.0,0.0
1776452165174060425,13004,0.092,0.1,0.064,0.3,0.06,-0.14,0.06,0.81,3.63,0.02,-0.0,-0.32,0.12,-0.19,0.0,168.24,207.0,0.0,0.0,0.0,0.0
1776452165272374787,13104,0.0,1.4,0.056,0.2,0.12,-0.08,0.06,0.81,3.63,0.02,-0.0,-0.34,0.12,-0.0,0.06,168.24,207.0,0.0,0.0,0.0,0.0
1776452165374741798,13205,0.0,0.3,0.06,0.3,-0.04,0.02,0.06,0.81,3.63,0.0,-0.0,-0.3,-0.0,0.12,0.06,168.24,192.0,0.0,0.0,0.0,0.0
1776452165473037291,13304,0.0,0.3,0.0,1.6,0.1,-0.16,0.06,0.81,3.63,0.04,-0.0,-0.32,-0.0,0.06,0.0,168.24,202.0,0.0,0.0,0.0,0.0
1776452165575475337,13405,0.084,0.3,0.0,1.4,-0.08,-0.1,0.06,0.81,3.63,0.0,-0.0,-0.32,0.06,-0.0,0.06,168.24,202.0,0.0,0.0,0.0,0.0
1776452165673768533,13506,0.08,0.2,0.0,1.6,0.08,0.0,0.06,0.81,3.63,0.01,-0.0,-0.35,0.06,-0.06,0.06,168.24,206.0,0.0,0.0,0.0,0.0
1776452165776147119,13605,0.092,0.1,0.0,1.4,0.04,-0.18,0.06,0.81,3.63,0.02,-0.0,-0.34,-0.06,0.06,0.0,168.24,205.0,0.0,0.0,0.0,0.0
1776452165874459536,13705,0.0,0.2,0.0,1.0,0.12,0.0,0.06,0.81,3.63,0.0,-0.0,-0.36,0.06,-0.0,0.0,168.24,205.0,0.0,0.0,0.0,0.0
1776452165972739807,13805,0.0,0.6,0.0,1.7,0.0,-0.16,0.06,0.81,3.63,0.02,-0.0,-0.3,-0.25,-0.0,0.06,168.24,187.0,0.0,0.0,0.0,0.0
1776452166075144287,13904,0.0,0.0,0.0,1.4,-0.1,0.0,0.06,0.81,3.63,0.01,-0.0,-0.32,-0.06,-0.06,0.12,168.24,189.0,0.0,0.0,0.0,0.0
1776452166173448319,14004,0.084,1.0,0.0,1.4,0.08,0.0,0.06,0.81,3.63,0.04,-0.0,-0.33,0.06,-0.06,-0.06,168.24,189.0,0.0,0.0,0.0,0.0
1776452166275832906,14104,0.08,0.0,0.0,1.6,0.16,-0.08,0.06,0.81,3.63,0.02,-0.0,-0.33,-0.0,0.06,0.0,168.24,199.0,0.0,0.0,0.0,0.0
1776452166374155381,14204,0.0,1.2,0.076,0.4,0.1,-0.12,0.06,0.81,3.63,0.03,0.01,-0.34,-0.0,0.06,0.06,168.24,193.0,0.0,0.0,0.0,0.0
1776452166472363581,14304,0.0,1.2,0.0,1.3,0.14,-0.14,0.06,0.81,3.63,0.01,-0.01,-0.33,-0.06,-0.19,0.0,168.24,193.0,0.0,0.0,0.0,0.0
1776452166574823463,14404,0.088,0.2,0.0,1.1,0.12,-0.02,0.06,0.81,3.63,0.02,-0.0,-0.31,0.06,0.06,0.12,168.24,208.0,0.0,0.0,0.0,0.0
1776452166673128883,14503,0.08,0.4,0.0,1.3,0.04,-0.12,0.06,0.81,3.63,0.02,-0.01,-0.33,-0.06,-0.0,0.0,168.24,208.0,0.0,0.0,0.0,0.0
1776452166771385860,14603,0.088,0.1,0.0,1.5,0.1,-0.06,0.06,0.81,3.63,0.02,-0.0,-0.33,-0.06,0.19,0.12,168.24,192.0,0.0,0.0,0.0,0.0
1776452166873816409,14703,0.092,0.0,0.064,0.1,0.1,0.0,0.06,0.81,3.63,0.02,-0.0,-0.32,0.19,-0.0,0.0,168.24,214.0,0.0,0.0,0.0,0.0
1776452166972096311,14802,0.0,0.1,0.0,1.3,0.02,-0.25,0.06,0.81,3.63,0.01,-0.0,-0.32,-0.0,-0.06,0.0,168.24,214.0,0.0,0.0,0.0,0.0
1776452167074512182,14903,0.0,0.9,0.0,0.3,0.04,0.08,0.06,0.81,3.63,0.0,-0.01,-0.32,0.06,0.12,0.06,168.24,199.0,0.0,0.0,0.0,0.0
1776452167172798605,15003,0.0,1.0,0.0,1.6,0.04,-0.18,0.06,0.81,3.63,0.02,-0.01,-0.31,0.12,-0.06,0.06,168.24,199.0,0.0,0.0,0.0,0.0
1776452167271108472,15102,0.088,0.2,0.0,1.2,0.04,-0.18,0.06,0.81,3.63,0.0,0.01,-0.33,-0.25,0.25,0.12,168.24,199.0,0.0,0.0,0.0,0.0
1776452167373496950,15202,0.08,0.2,0.0,1.4,0.06,-0.08,0.06,0.81,3.63,-0.04,0.02,-0.32,0.19,-0.19,0.0,168.24,196.0,0.0,0.0,0.0,0.0
1776452167471775299,15302,0.0,0.1,0.0,1.0,0.08,-0.1,0.06,0.81,3.63,0.01,-0.01,-0.34,0.12,-0.0,0.0,168.24,196.0,0.0,0.0,0.0,0.0
1776452167580363348,15401,0.092,0.2,0.0,1.1,0.04,0.0,0.06,0.81,3.63,0.05,-0.0,-0.31,-0.19,0.19,0.06,168.24,194.0,0.0,0.0,0.0,0.0
1776452167672496088,15502,0.0,1.0,0.064,0.5,0.2,-0.06,0.06,0.81,3.63,0.03,0.01,-0.34,-0.12,-0.06,-0.19,168.24,190.0,0.0,0.0,0.0,0.0
1776452167770772030,15602,0.0,1.0,0.064,0.2,0.02,-0.06,0.06,0.81,3.63,0.0,-0.0,-0.34,0.06,0.06,-0.06,168.24,190.0,0.0,0.0,0.0,0.0
1776452167873188859,15702,0.0,1.1,0.06,0.2,0.06,0.1,0.06,0.81,3.63,0.03,-0.01,-0.34,0.06,0.06,0.0,172.36,209.0,0.0,0.0,0.0,0.0
1776452167981612356,15803,0.0,0.6,0.0,1.3,0.0,-0.06,0.06,0.81,3.63,0.03,-0.0,-0.33,0.06,0.06,0.0,168.24,206.0,0.0,0.0,0.0,0.0
1776452168073869101,15902,0.084,0.1,0.0,1.6,0.08,-0.04,0.06,0.81,3.63,0.0,-0.0,-0.34,-0.19,0.12,0.06,168.24,206.0,0.0,0.0,0.0,0.0
1776452168172169323,16002,0.0,1.1,0.064,0.5,0.06,-0.08,0.06,0.81,3.63,0.02,-0.0,-0.33,0.06,-0.06,-0.06,168.24,220.0,0.0,0.0,0.0,0.0
1776452168274566710,16103,0.0,1.0,0.056,0.4,0.18,-0.08,0.06,0.81,3.63,0.0,-0.0,-0.29,0.06,-0.06,0.0,168.24,215.0,0.0,0.0,0.0,0.0
1776452168372875505,16202,0.0,1.3,0.068,0.5,0.04,-0.06,0.06,0.81,3.63,0.02,-0.0,-0.32,0.06,0.12,0.0,168.41,215.0,0.0,0.0,0.0,0.0
1776452168475212394,16303,0.0,1.3,0.0,1.2,-0.04,-0.08,0.06,0.81,3.63,0.01,-0.0,-0.32,-0.0,-0.12,-0.06,172.36,211.0,0.0,0.0,0.0,0.0
1776452168573530912,16404,0.0,1.0,0.0,1.6,0.02,0.0,0.06,0.81,3.63,0.01,-0.0,-0.32,-0.12,-0.25,0.0,168.24,199.0,0.0,0.0,0.0,0.0
1776452168671792542,16503,0.092,0.2,0.0,1.1,0.02,-0.06,0.06,0.81,3.63,0.02,-0.0,-0.32,0.06,0.06,0.12,172.36,199.0,0.0,0.0,0.0,0.0
1776452168774243002,16603,0.08,0.1,0.0,1.3,0.02,-0.06,0.06,0.81,3.63,0.02,-0.0,-0.33,-0.0,0.06,0.06,172.36,186.0,0.0,0.0,0.0,0.0
1776452168876636315,16703,0.08,0.2,0.06,0.2,0.02,-0.08,0.06,0.81,3.63,0.02,-0.0,-0.34,0.06,-0.06,0.06,168.24,186.0,0.0,0.0,0.0,0.0
1776452168974930593,16803,0.0,0.8,0.0,1.3,0.12,0.08,0.06,0.81,3.63,0.0,0.01,-0.32,0.12,-0.06,-0.06,168.07,205.0,0.0,0.0,0.0,0.0
1776452169077328394,16904,0.08,1.3,0.06,0.3,0.02,0.2,0.06,0.81,3.63,0.02,-0.01,-0.31,-0.0,-0.12,0.0,172.36,216.0,0.0,0.0,0.0,0.0
1776452169175637489,17004,0.0,1.5,0.052,1.0,0.2,-0.04,0.06,0.81,3.63,0.02,-0.0,-0.31,-0.0,-0.12,0.0,168.24,216.0,0.0,0.0,0.0,0.0
1776452169273924937,17103,0.084,0.3,0.0,1.1,0.16,-0.02,0.06,0.81,3.63,0.02,-0.01,-0.34,-0.0,-0.06,0.06,168.24,202.0,0.0,0.0,0.0,0.0
1776452169376318641,17203,0.084,1.0,0.056,0.5,0.21,-0.12,0.06,0.81,3.63,0.01,-0.01,-0.31,-0.0,-0.06,0.0,169.27,213.0,0.0,0.0,0.0,0.0
1776452169474632588,17304,0.0,0.8,0.056,0.5,0.04,-0.16,0.06,0.81,3.63,0.01,-0.0,-0.31,-0.06,0.06,0.12,168.24,213.0,0.0,0.0,0.0,0.0
1776452169577016774,17404,0.0,0.6,0.068,0.4,0.08,0.08,0.06,0.81,3.63,0.02,-0.0,-0.32,0.06,0.06,0.0,168.24,203.0,0.0,0.0,0.0,0.0
1776452169675320203,17504,0.0,1.3,0.0,1.2,0.1,-0.04,0.06,0.81,3.63,0.01,-0.0,-0.32,-0.12,-0.12,-0.06,168.24,203.0,0.0,0.0,0.0,0.0
1776452169777705852,17604,0.084,0.2,0.064,0.3,0.14,-0.14,0.06,0.81,3.63,0.01,-0.0,-0.32,-0.06,0.12,-0.06,172.36,203.0,0.0,0.0,0.0,0.0
1776452169875992818,17703,0.0,1.0,0.056,0.5,0.14,-0.06,0.06,0.81,3.63,0.03,-0.01,-0.31,-0.0,0.12,0.0,168.24,183.0,0.0,0.0,0.0,0.0
1776452169974300950,17803,0.0,1.0,0.068,0.4,0.0,-0.12,0.06,0.81,3.63,0.01,-0.0,-0.3,-0.0,0.06,0.06,171.84,183.0,0.0,0.0,0.0,0.0
1776452170076746568,17903,0.084,0.2,0.0,1.6,0.08,-0.06,0.06,0.81,3.63,0.01,-0.0,-0.31,0.06,-0.0,0.06,168.24,209.0,0.0,0.0,0.0,0.0
1776452170174999742,18003,0.08,0.3,0.0,1.2,0.0,-0.08,0.06,0.81,3.63,0.0,0.01,-0.31,-0.0,-0.12,0.0,172.36,194.0,0.0,0.0,0.0,0.0
1776452170277398597,18103,0.088,0.3,0.072,0.7,0.21,0.04,0.06,0.81,3.63,0.02,-0.0,-0.32,-0.12,-0.0,-0.06,171.84,194.0,0.0,0.0,0.0,0.0
1776452170375676623,18204,0.0,0.1,0.0,1.2,0.06,0.04,0.06,0.81,3.63,0.02,-0.0,-0.34,-0.0,0.12,0.12,168.24,196.0,0.0,0.0,0.0,0.0
1776452170478073737,18304,0.0,1.1,0.068,1.6,-0.06,0.06,0.06,0.81,3.63,0.01,-0.0,-0.32,-0.0,0.12,0.06,172.36,203.0,0.0,0.0,0.0,0.0
1776452170576338263,18404,0.0,1.2,0.0,1.3,0.18,0.16,0.06,0.81,3.63,0.0,-0.0,-0.31,-0.06,0.19,0.0,173.04,203.0,0.0,0.0,0.0,0.0
1776452170674606010,18504,0.084,0.1,0.0,1.2,0.1,-0.18,0.06,0.81,3.63,0.01,-0.0,-0.31,0.06,-0.19,0.0,172.36,205.0,0.0,0.0,0.0,0.0
1776452170777041976,18604,0.08,0.1,0.0,0.3,0.02,-0.08,0.06,0.81,3.63,0.03,-0.01,-0.31,-0.0,-0.0,-0.06,172.36,205.0,0.0,0.0,0.0,0.0
1776452170879461349,18705,0.0,0.3,0.0,0.5,-0.02,-0.12,0.06,0.81,3.63,0.02,0.01,-0.32,-0.12,0.06,-0.06,168.24,205.0,0.0,0.0,0.0,0.0
1776452170977750633,18805,0.0,1.3,0.068,0.3,0.06,-0.21,0.06,0.81,3.63,0.01,0.01,-0.32,-0.0,-0.06,0.0,168.24,206.0,0.0,0.0,0.0,0.0
1776452171080148181,18906,0.0,0.4,0.0,1.2,-0.06,-0.12,0.06,0.81,3.63,0.0,-0.0,-0.32,0.12,-0.0,0.06,168.93,206.0,0.0,0.0,0.0,0.0
1776452171178448154,19006,0.072,0.1,0.0,1.2,0.06,0.0,0.06,0.81,3.63,0.01,0.01,-0.31,0.06,-0.06,0.0,168.24,202.0,0.0,0.0,0.0,0.0
1776452171276712924,19105,0.0,0.9,0.064,0.5,-0.02,-0.14,0.06,0.81,3.63,0.02,-0.0,-0.35,0.06,-0.06,0.06,173.04,201.0,0.0,0.0,0.0,0.0
1776452171379143207,19206,0.0,0.6,0.052,0.5,-0.04,-0.08,0.06,0.81,3.63,0.02,0.01,-0.32,0.12,0.06,0.06,168.93,201.0,0.0,0.0,0.0,0.0
1776452171477363978,19306,0.0,0.8,0.068,0.3,0.0,-0.06,0.06,0.81,3.63,0.02,-0.0,-0.31,-0.06,-0.06,0.0,172.36,201.0,0.0,0.0,0.0,0.0
1776452171579799761,19406,0.0,0.8,0.064,0.5,0.04,-0.02,0.06,0.81,3.63,0.0,0.01,-0.33,-0.06,0.06,0.0,168.24,205.0,0.0,0.0,0.0,0.0
1776452171678118196,19506,0.0,1.1,0.064,0.0,0.12,0.08,0.06,0.81,3.63,0.04,0.01,-0.32,0.06,-0.0,0.0,169.27,205.0,0.0,0.0,0.0,0.0
1776452171780518702,19607,0.0,0.0,0.0,0.4,-0.02,0.1,0.06,0.81,3.63,0.03,-0.0,-0.34,-0.0,-0.19,0.12,168.07,209.0,0.0,0.0,0.0,0.0
1776452171878829489,19706,0.0,0.2,0.0,1.2,0.08,-0.14,0.06,0.81,3.63,0.0,-0.0,-0.32,-0.06,0.12,0.0,168.24,199.0,0.0,0.0,0.0,0.0
1776452171981216070,19807,0.088,0.1,0.0,0.5,0.12,0.02,0.06,0.81,3.63,0.01,-0.0,-0.31,-0.0,0.12,0.12,168.24,199.0,0.0,0.0,0.0,0.0
1776452172079504642,19908,0.084,0.4,0.0,1.6,-0.04,0.0,0.06,0.81,3.63,0.0,-0.0,-0.33,0.06,-0.0,-0.12,168.24,180.0,0.0,0.0,0.0,0.0
1776452172181885097,20007,0.0,0.3,0.0,1.0,0.14,-0.08,0.06,0.81,3.63,0.01,-0.0,-0.32,-0.19,-0.0,0.06,168.24,180.0,0.0,0.0,0.0,0.0
1776452172280199480,20107,0.084,0.3,0.0,1.2,-0.04,-0.12,0.06,0.81,3.63,0.03,-0.0,-0.34,-0.12,-0.0,-0.06,168.07,212.0,0.0,0.0,0.0,0.0
1776452172382608971,20207,0.084,0.2,0.0,1.1,0.04,0.0,0.06,0.81,3.63,0.0,0.02,-0.34,-0.19,0.06,0.0,168.24,214.0,0.0,0.0,0.0,0.0
1776452172480867004,20307,0.084,0.3,0.0,1.2,0.14,-0.08,0.06,0.81,3.63,0.02,-0.0,-0.33,0.12,-0.0,0.0,168.24,214.0,0.0,0.0,0.0,0.0
1776452172579150610,20407,0.08,0.2,0.056,0.4,0.1,-0.14,0.06,0.81,3.63,0.02,-0.0,-0.31,0.12,0.06,0.12,168.24,202.0,0.0,0.0,0.0,0.0
1776452172681603933,20507,0.0,0.7,0.072,0.2,0.12,-0.1,0.06,0.81,3.63,0.02,-0.0,-0.33,0.06,-0.0,0.0,168.24,185.0,0.0,0.0,0.0,0.0
1776452172779878873,20606,0.08,0.4,0.0,1.2,0.14,-0.06,0.06,0.81,3.63,0.0,0.01,-0.36,-0.0,-0.06,0.0,168.24,185.0,0.0,0.0,0.0,0.0
1776452172878184831,20706,0.084,0.0,0.06,0.6,0.04,0.06,0.06,0.81,3.63,0.0,0.01,-0.33,0.12,-0.06,0.12,171.84,204.0,0.0,0.0,0.0,0.0
1776452172980579081,20805,0.08,0.2,0.0,1.6,0.12,0.04,0.06,0.81,3.63,0.02,-0.0,-0.33,0.06,-0.0,-0.06,168.24,209.0,0.0,0.0,0.0,0.0
1776452173078871362,20905,0.08,0.2,0.0,1.4,0.12,0.04,0.06,0.81,3.63,0.02,-0.0,-0.32,-0.0,-0.12,0.12,172.36,209.0,0.0,0.0,0.0,0.0
1776452173177188083,21005,0.0,0.2,0.0,0.8,-0.04,0.04,0.06,0.81,3.63,0.03,0.01,-0.35,0.06,-0.06,0.06,172.36,204.0,0.0,0.0,0.0,0.0
1776452173325627294,21104,0.0,0.9,0.056,0.3,0.08,-0.2,0.06,0.81,3.63,0.02,-0.0,-0.34,0.06,-0.06,0.19,168.24,202.0,0.0,0.0,0.0,0.0
1776452173377840133,21203,0.0,0.7,0.06,0.3,0.06,-0.04,0.06,0.81,3.63,0.02,-0.01,-0.33,-0.0,0.19,0.0,171.84,202.0,0.0,0.0,0.0,0.0
1776452173480248627,21303,0.0,0.2,0.0,1.5,0.0,0.02,0.06,0.81,3.63,0.01,-0.0,-0.33,0.06,-0.06,0.06,171.84,198.0,0.0,0.0,0.0,0.0
1776452173578573180,21404,0.088,0.0,0.0,1.7,0.02,0.0,0.06,0.81,3.63,0.02,-0.0,-0.35,0.06,0.06,0.06,171.84,198.0,0.0,0.0,0.0,0.0
1776452173680911861,21504,0.084,0.2,0.0,1.5,0.08,-0.04,0.06,0.81,3.63,0.0,-0.0,-0.34,0.12,0.06,-0.12,167.56,209.0,0.0,0.0,0.0,0.0
1776452174489615245,21605,0.088,0.2,0.0,1.4,0.08,-0.14,0.06,0.81,3.63,0.02,-0.0,-0.29,-0.0,0.12,0.0,167.73,201.0,0.0,0.0,0.0,0.0
1776452174492181042,21704,0.0,1.1,0.0,1.1,-0.08,-0.18,0.06,0.81,3.63,0.0,-0.0,-0.32,0.06,-0.0,0.12,167.56,201.0,0.0,0.0,0.0,0.0
1776452174496195113,21804,0.076,0.3,0.0,1.4,0.02,0.0,0.06,0.81,3.63,0.0,-0.0,-0.33,-0.19,0.12,-0.06,167.56,186.0,0.0,0.0,0.0,0.0
1776452174508066443,21904,0.0,0.9,0.0,1.5,0.08,-0.02,0.06,0.81,3.63,0.01,0.01,-0.34,-0.0,0.19,0.0,171.67,198.0,0.0,0.0,0.0,0.0
1776452174521148293,22003,0.084,0.2,0.0,1.3,0.08,-0.08,0.06,0.81,3.63,0.0,-0.0,-0.33,0.06,-0.12,0.0,168.24,198.0,0.0,0.0,0.0,0.0
1776452174577877792,22103,0.08,0.5,0.0,1.6,0.0,-0.2,0.06,0.81,3.63,0.01,0.01,-0.32,0.12,-0.0,0.0,172.36,183.0,0.0,0.0,0.0,0.0
1776452174589791695,22203,0.084,0.3,0.0,1.6,-0.08,-0.08,0.06,0.81,3.63,0.0,0.01,-0.34,-0.06,-0.0,0.0,167.56,183.0,0.0,0.0,0.0,0.0
1776452174601413420,22303,0.08,0.5,0.0,1.4,-0.1,-0.14,0.06,0.81,3.63,0.02,0.01,-0.33,-0.06,-0.0,-0.12,167.56,205.0,0.0,0.0,0.0,0.0
1776452174613405468,22403,0.0,1.4,0.068,0.2,0.0,-0.12,0.06,0.81,3.63,-0.01,-0.0,-0.35,-0.0,-0.06,-0.06,167.56,185.0,0.0,0.0,0.0,0.0
1776452174680298512,22504,0.0,1.3,0.076,0.6,0.14,-0.06,0.06,0.81,3.63,0.0,-0.0,-0.33,-0.12,-0.19,-0.06,171.84,185.0,0.0,0.0,0.0,0.0
1776452174778569868,22604,0.0,0.0,0.0,1.2,0.02,-0.08,0.06,0.81,3.63,0.01,-0.0,-0.35,0.06,0.06,0.0,167.73,194.0,0.0,0.0,0.0,0.0
1776452174881001809,22704,0.0,0.7,0.056,0.2,0.06,-0.02,0.06,0.81,3.63,0.02,0.01,-0.34,-0.12,-0.0,0.12,171.84,216.0,0.0,0.0,0.0,0.0
1776452174979314756,22804,0.0,0.9,0.06,0.3,0.02,-0.04,0.06,0.81,3.63,0.01,-0.0,-0.34,-0.0,-0.0,-0.12,172.19,216.0,0.0,0.0,0.0,0.0
1776452175081702707,22904,0.0,0.3,0.0,1.6,0.1,-0.1,0.06,0.81,3.63,0.01,-0.0,-0.33,-0.06,0.12,-0.06,172.36,196.0,0.0,0.0,0.0,0.0
1776452175179984345,23005,0.088,0.3,0.0,0.2,-0.06,-0.12,0.06,0.81,3.63,0.02,-0.01,-0.35,0.19,0.12,-0.06,168.07,193.0,0.0,0.0,0.0,0.0
1776452175282385569,23106,0.0,0.3,0.0,0.6,0.12,-0.08,0.06,0.81,3.63,0.01,-0.0,-0.36,0.06,0.06,-0.06,168.24,193.0,0.0,0.0,0.0,0.0
1776452175380695539,23205,0.0,0.9,0.068,0.4,0.14,0.02,0.06,0.81,3.63,0.0,0.01,-0.34,-0.0,-0.06,-0.19,171.84,208.0,0.0,0.0,0.0,0.0
1776452175483029820,23305,0.0,0.2,0.0,1.4,0.1,-0.16,0.06,0.81,3.63,0.03,-0.02,-0.35,-0.0,0.06,0.06,168.24,201.0,0.0,0.0,0.0,0.0
1776452175581371864,23405,0.0,1.1,0.0,0.5,0.06,-0.21,0.06,0.81,3.63,0.01,-0.0,-0.32,-0.0,-0.19,-0.06,168.24,201.0,0.0,0.0,0.0,0.0
1776452175679661446,23505,0.0,0.9,0.052,0.3,-0.1,-0.02,0.06,0.81,3.63,0.01,-0.01,-0.35,-0.19,-0.06,0.06,168.24,191.0,0.0,0.0,0.0,0.0
1776452175782062503,23605,0.0,0.0,0.068,0.5,0.16,-0.12,0.06,0.81,3.63,-0.04,0.05,-0.3,-0.25,0.06,0.12,168.24,191.0,0.0,0.0,0.0,0.0
1776452175880414731,23705,0.0,0.3,0.0,0.6,0.23,-0.1,0.06,0.81,3.63,-0.02,0.01,-0.29,0.19,-0.0,0.12,168.24,202.0,0.0,0.0,0.0,0.0
1776452175978658500,23804,0.0,1.0,0.064,0.2,0.04,-0.12,0.06,0.81,3.63,0.06,-0.02,-0.33,0.06,-0.06,-0.12,168.24,192.0,0.0,0.0,0.0,0.0
1776452176081050862,23904,0.088,0.1,0.0,1.6,0.21,-0.04,0.06,0.81,3.63,0.05,0.02,-0.33,-0.31,0.12,-0.12,169.27,192.0,0.0,0.0,0.0,0.0
1776452176183449979,24005,0.084,0.3,0.0,0.4,0.06,-0.14,0.06,0.81,3.63,0.03,0.02,-0.32,-0.37,0.12,0.19,168.24,193.0,0.0,0.0,0.0,0.0
1776452176281735344,24105,0.0,1.7,0.064,0.5,-0.04,-0.04,0.06,0.81,3.63,0.0,0.02,-0.36,-0.44,0.75,0.56,168.24,188.0,0.0,0.0,0.0,0.0
1776452176384154664,24206,0.0,1.2,0.0,1.4,-0.02,-0.06,0.25,0.81,3.44,0.5,-0.0,-0.2,-1.25,0.56,4.13,168.07,188.0,0.0,0.0,0.0,0.0
1776452176482447269,24306,0.068,0.3,0.0,1.0,0.02,-0.06,0.88,0.88,3.19,0.36,0.01,-0.35,-0.63,0.12,7.63,171.67,197.0,0.0,0.0,0.0,0.0
1776452176580728911,24406,0.072,0.3,0.0,1.0,0.1,-0.06,1.75,0.94,2.94,0.2,-0.0,-0.32,-0.5,0.5,9.69,171.84,197.0,0.0,0.0,0.0,0.0
1776452176683138232,24506,0.0,0.9,0.064,0.3,-0.1,-0.14,2.56,0.94,3.0,-0.34,-0.06,-0.37,0.94,-0.37,6.44,167.73,187.0,0.0,0.0,0.0,0.0
1776452176781429022,24606,0.084,0.1,0.0,1.5,0.02,-0.04,2.94,0.94,3.06,-0.04,0.02,-0.34,-0.63,0.12,2.69,167.56,200.0,0.0,0.0,0.0,0.0
1776452176883815862,24707,0.088,0.1,0.056,0.1,-0.04,-0.06,3.19,1.0,3.13,-0.19,-0.01,-0.32,-0.44,-0.37,2.31,167.73,200.0,0.0,0.0,0.0,0.0
1776452176982093597,24807,0.0,0.7,0.064,0.7,0.06,0.0,3.44,1.0,3.06,0.15,0.01,-0.33,-0.31,0.12,3.19,167.73,200.0,0.0,0.0,0.0,0.0
1776452177084556460,24907,0.0,0.9,0.064,0.2,0.06,-0.12,3.88,1.0,2.94,0.22,-0.0,-0.32,-0.12,-0.25,4.81,171.84,212.0,0.0,0.0,0.0,0.0
1776452177182808423,25007,0.0,0.1,0.0,0.6,0.0,-0.04,4.31,1.06,2.75,0.41,-0.0,-0.34,-1.56,-0.44,4.88,167.04,212.0,0.0,0.0,0.0,0.0
1776452177285207711,25107,0.0,0.0,0.0,0.4,0.12,-0.04,4.81,1.06,2.56,0.0,-0.06,-0.35,2.31,-1.0,4.94,167.38,160.0,0.0,0.0,0.0,0.0
1776452177383482414,25207,0.088,0.3,0.0,1.4,0.0,0.0,5.19,1.19,2.63,0.01,0.03,-0.32,-1.37,-0.88,3.31,171.16,200.0,0.0,0.0,0.0,0.0
1776452177485855259,25308,0.084,0.4,0.0,1.2,0.16,-0.08,5.56,1.25,2.56,0.03,0.02,-0.38,0.75,-0.56,4.25,167.56,200.0,0.0,0.0,0.0,0.0
1776452177584190719,25408,0.084,0.1,0.0,1.2,0.1,0.02,6.0,1.31,2.69,-0.16,0.04,-0.31,-0.12,-0.44,4.38,167.56,192.0,0.0,0.0,0.0,0.0
1776452177686626080,25508,0.076,0.2,0.0,1.2,-0.02,-0.18,6.38,1.31,2.75,-0.03,0.02,-0.34,-0.44,-0.44,3.19,171.84,184.0,0.0,0.0,0.0,0.0
1776452177784896284,25608,0.0,0.2,0.056,0.5,0.16,-0.06,6.63,1.37,2.75,-0.2,0.05,-0.36,1.5,-0.06,1.88,167.04,184.0,0.0,0.0,0.0,0.0
1776452177887283979,25708,0.012,0.2,0.0,1.5,0.21,-0.14,6.75,1.37,3.0,-0.18,-0.01,-0.34,-0.06,-0.25,1.25,171.16,198.0,0.0,0.0,0.0,0.0
1776452177985581274,25808,0.088,1.2,0.0,1.2,-0.02,-0.2,6.88,1.37,3.06,-0.09,0.04,-0.33,0.06,0.06,1.75,171.16,198.0,0.0,0.0,0.0,0.0
1776452178083794265,25908,0.092,0.5,0.0,1.6,0.1,-0.02,7.06,1.44,3.06,0.03,0.03,-0.34,-0.44,0.19,1.75,167.04,206.0,0.0,0.0,0.0,0.0
1776452178186265926,26008,0.088,0.1,0.0,0.2,-0.06,-0.1,7.25,1.44,3.19,-0.25,0.02,-0.28,0.75,0.56,1.63,167.04,201.0,0.0,0.0,0.0,0.0
1776452178284555652,26107,0.0,1.4,0.076,0.6,-0.04,-0.1,7.38,1.44,3.19,0.05,-0.02,-0.35,-1.12,-0.31,0.94,167.04,201.0,0.0,0.0,0.0,0.0
1776452178386951796,26207,0.088,0.2,0.0,0.7,0.14,0.0,7.44,1.44,3.06,0.15,0.05,-0.32,-0.19,0.56,-0.31,167.04,206.0,0.0,0.0,0.0,0.0
1776452178485248726,26307,0.0,0.7,0.06,0.3,-0.08,-0.08,7.44,1.44,3.06,0.02,0.03,-0.34,0.75,0.81,0.06,167.04,181.0,0.0,0.0,0.0,0.0
1776452178583510768,26406,0.0,0.8,0.072,0.6,0.23,-0.02,7.44,1.31,3.19,-0.13,0.04,-0.27,0.19,1.19,-0.12,167.04,181.0,0.0,0.0,0.0,0.0
1776452178685946763,26507,0.0,0.0,0.068,0.1,-0.02,-0.06,7.44,1.25,3.0,0.34,0.04,-0.38,-1.19,-0.31,-0.31,167.04,224.0,0.0,0.0,0.0,0.0
1776452178784237860,26607,0.0,0.8,0.0,0.3,0.1,-0.14,7.31,1.12,3.19,-0.53,0.03,-0.29,1.94,2.5,-1.44,166.53,197.0,0.0,0.0,0.0,0.0
1776452178886644578,26707,0.08,0.3,0.0,1.2,0.08,-0.1,7.19,1.0,3.25,-0.15,-0.0,-0.36,-0.88,-0.19,-1.06,166.36,197.0,0.0,0.0,0.0,0.0
1776452178988996094,26808,0.0,0.5,0.0,1.4,0.06,-0.02,7.06,1.0,3.31,-0.13,0.03,-0.29,-0.88,0.44,-1.5,162.24,198.0,0.0,0.0,0.0,0.0
1776452179087333049,26909,0.0,0.1,0.064,0.3,0.06,0.08,6.88,1.0,3.25,0.04,-0.0,-0.34,-0.75,0.37,-1.37,162.24,198.0,0.0,0.0,0.0,0.0
1776452179189697218,27009,0.088,0.2,0.0,1.4,0.0,-0.18,6.81,1.0,3.19,0.02,0.05,-0.3,0.31,0.31,-1.06,166.53,189.0,0.0,0.0,0.0,0.0
1776452179288017745,27110,0.064,0.2,0.0,0.9,0.02,-0.16,6.69,0.94,3.06,0.3,-0.03,-0.31,-1.88,-0.0,-1.31,166.53,224.0,0.0,0.0,0.0,0.0
1776452179386321439,27209,0.0,0.1,0.0,1.3,0.16,0.0,6.56,0.94,2.88,0.26,0.04,-0.29,-1.44,0.19,-0.81,170.64,224.0,0.0,0.0,0.0,0.0
1776452179488674997,27310,0.064,0.1,0.0,1.1,0.06,-0.12,6.56,0.94,2.5,0.24,0.05,-0.41,-0.31,0.37,-0.06,166.36,203.0,0.0,0.0,0.0,0.0
1776452179597058583,27411,0.0,1.1,0.064,0.5,0.02,-0.1,6.56,0.81,2.5,-0.18,-0.07,-0.28,-2.06,1.44,-0.25,170.47,202.0,0.0,0.0,0.0,0.0
1776452179689402654,27510,0.0,0.9,0.06,0.4,0.1,-0.04,6.56,0.81,2.31,-0.01,0.03,-0.39,-0.69,0.31,0.5,166.36,202.0,0.0,0.0,0.0,0.0
1776452179787691645,27610,0.0,1.0,0.076,0.3,0.04,0.02,6.56,0.69,2.44,-0.44,0.03,-0.27,0.06,1.5,-0.37,167.04,199.0,0.0,0.0,0.0,0.0
1776452179890089276,27710,0.0,0.6,0.0,0.6,0.12,-0.06,6.56,0.63,2.63,-0.32,-0.06,-0.34,-1.31,0.56,0.63,167.04,182.0,0.0,0.0,0.0,0.0
1776452180457613586,27810,0.0,1.4,0.0,0.5,0.04,-0.02,6.56,0.63,2.5,-0.01,-0.0,-0.35,-0.94,-0.19,-0.12,166.36,182.0,0.0,0.0,0.0,0.0
1776452180488010401,27910,0.0,0.9,0.0,1.7,0.2,-0.18,6.56,0.63,2.44,0.07,0.03,-0.33,-1.56,0.31,0.31,166.36,180.0,0.0,0.0,0.0,0.0
1776452180492148669,28011,0.084,0.4,0.0,0.4,0.04,-0.06,6.56,0.56,2.31,0.08,-0.01,-0.34,-1.63,0.5,0.63,166.36,196.0,0.0,0.0,0.0,0.0
1776452180506877572,28111,0.0,0.7,0.068,0.2,-0.08,-0.04,6.63,0.56,2.19,0.22,-0.04,-0.36,-2.31,0.19,0.5,171.16,196.0,0.0,0.0,0.0,0.0
1776452180518323644,28211,0.0,0.8,0.0,1.1,0.08,-0.02,6.63,0.56,2.13,-0.04,0.01,-0.36,-0.37,0.88,0.31,167.04,200.0,0.0,0.0,0.0,0.0
1776452180590466794,28311,0.08,0.3,0.0,1.0,0.16,0.06,6.69,0.44,2.0,0.15,-0.07,-0.31,-1.81,0.69,0.81,167.56,200.0,0.0,0.0,0.0,0.0
1776452180602479832,28410,0.072,0.3,0.056,0.6,-0.08,0.02,6.69,0.44,1.75,0.16,-0.01,-0.36,-1.0,0.37,0.56,167.56,183.0,0.0,0.0,0.0,0.0
1776452180688710107,28511,0.0,1.2,0.06,0.2,0.06,0.0,6.69,0.44,1.63,0.1,-0.0,-0.34,-0.81,0.5,0.31,171.84,189.0,0.0,0.0,0.0,0.0
1776452180791162019,28611,0.0,1.3,0.072,0.9,0.1,0.04,6.69,0.37,1.63,-0.12,-0.01,-0.3,-1.0,0.56,0.0,167.73,189.0,0.0,0.0,0.0,0.0
1776452180889453274,28710,0.084,0.1,0.0,1.3,0.06,-0.18,6.69,0.37,1.5,-0.04,-0.05,-0.38,-0.0,0.19,-0.44,171.84,197.0,0.0,0.0,0.0,0.0
1776452180991841596,28810,0.084,0.5,0.064,0.1,0.08,-0.04,6.69,0.31,1.5,-0.07,-0.04,-0.34,-0.75,0.12,-0.75,168.24,194.0,0.0,0.0,0.0,0.0
1776452181090152821,28910,0.0,1.0,0.072,0.5,0.0,-0.1,6.63,0.31,1.5,-0.05,-0.02,-0.33,-0.44,-0.19,-0.88,168.24,194.0,0.0,0.0,0.0,0.0
1776452181353679619,29009,0.0,0.7,0.0,1.5,0.04,-0.18,6.5,0.31,1.44,0.02,-0.0,-0.33,-0.56,-0.0,-0.63,168.24,204.0,0.0,0.0,0.0,0.0
1776452181389148577,29109,0.088,0.2,0.072,1.2,0.12,-0.1,6.44,0.31,1.44,0.07,-0.03,-0.33,-0.5,0.25,-1.25,167.56,204.0,0.0,0.0,0.0,0.0
1776452181397534664,29209,0.076,0.3,0.0,1.2,0.0,0.06,6.31,0.31,1.44,0.1,-0.04,-0.36,-0.25,0.06,-1.12,167.73,209.0,0.0,0.0,0.0,0.0
1776452181487381803,29309,0.0,1.2,0.056,0.3,0.08,-0.23,6.19,0.31,1.44,0.09,-0.07,-0.28,-1.37,0.06,-1.69,167.56,210.0,0.0,0.0,0.0,0.0
1776452181589816646,29409,0.0,0.1,0.0,0.2,-0.02,-0.1,6.0,0.31,1.31,0.23,0.01,-0.43,2.25,-0.0,-2.13,167.56,210.0,0.0,0.0,0.0,0.0
1776452181688120000,29509,0.0,1.2,0.072,0.6,0.14,-0.02,5.88,0.31,1.56,-0.17,-0.13,-0.24,-0.75,-0.06,-1.19,167.04,203.0,0.0,0.0,0.0,0.0
1776452181786383281,29608,0.0,0.0,0.064,0.3,0.04,-0.04,5.75,0.31,1.44,0.1,0.05,-0.35,1.94,-0.19,-0.69,167.04,182.0,0.0,0.0,0.0,0.0
1776452182217622570,29708,0.0,0.3,0.0,1.4,-0.02,-0.02,5.75,0.31,1.5,0.11,-0.07,-0.34,-1.12,0.06,0.37,167.04,182.0,0.0,0.0,0.0,0.0
1776452182286090884,29808,0.0,1.1,0.0,0.5,-0.02,-0.02,5.75,0.31,1.5,-0.07,-0.04,-0.33,0.56,0.12,0.31,167.04,200.0,0.0,0.0,0.0,0.0
1776452182298450278,29907,0.0,0.8,0.0,1.2,0.0,-0.04,5.75,0.31,1.56,-0.03,-0.05,-0.36,0.75,0.06,-0.44,167.04,188.0,0.0,0.0,0.0,0.0
1776452182311364101,30008,0.0,1.3,0.072,0.4,0.02,0.02,5.75,0.31,1.56,0.03,-0.03,-0.32,-0.63,0.19,-0.56,166.87,188.0,0.0,0.0,0.0,0.0
1776452182323081737,30108,0.0,1.3,0.06,0.1,0.08,0.0,5.69,0.31,1.56,0.17,-0.06,-0.32,-0.69,-0.06,-0.94,167.04,196.0,0.0,0.0,0.0,0.0
1776452182388510881,30208,0.0,0.3,0.0,1.7,0.08,-0.04,5.63,0.31,1.5,0.13,-0.05,-0.32,-0.25,-0.12,-1.0,165.33,199.0,0.0,0.0,0.0,0.0
1776452182486735354,30308,0.096,0.2,0.0,1.1,-0.02,0.12,5.5,0.31,1.5,0.0,-0.03,-0.25,0.69,-0.0,-0.88,166.53,199.0,0.0,0.0,0.0,0.0
1776452182589169407,30408,0.0,0.6,0.076,0.2,0.1,-0.02,5.5,0.31,1.44,0.17,-0.02,-0.33,-0.75,0.12,-0.06,166.36,194.0,0.0,0.0,0.0,0.0
1776452182687475488,30508,0.092,-0.1,0.0,0.3,0.16,-0.02,5.5,0.25,1.19,0.11,0.01,-0.41,1.06,-0.0,0.25,166.36,194.0,0.0,0.0,0.0,0.0
1776452182789871746,30608,0.08,0.3,0.0,1.3,0.14,-0.02,5.5,0.25,1.31,-0.06,-0.04,-0.33,-1.12,0.25,-0.5,167.04,205.0,0.0,0.0,0.0,0.0
1776452182888227863,30708,0.076,0.2,0.0,1.5,0.06,-0.16,5.5,0.25,1.31,-0.12,-0.04,-0.27,-0.25,-0.06,0.56,167.04,201.0,0.0,0.0,0.0,0.0
1776452182990565159,30809,0.088,0.2,0.0,1.3,0.1,-0.16,5.56,0.25,1.12,0.12,-0.0,-0.33,0.12,-0.12,1.25,166.53,201.0,0.0,0.0,0.0,0.0
1776452183088859120,30909,0.0,1.4,0.064,0.1,0.16,-0.14,5.69,0.25,1.19,-0.21,-0.0,-0.3,-0.25,-0.19,1.25,167.04,196.0,0.0,0.0,0.0,0.0
1776452183191266605,31009,0.0,0.0,0.0,1.2,0.14,-0.21,5.81,0.25,1.06,0.35,0.12,-0.22,-2.75,-0.81,2.5,167.04,201.0,0.0,0.0,0.0,0.0
1776452183289581081,31109,0.092,0.2,0.0,1.2,0.0,-0.14,6.13,0.31,1.0,-0.43,0.24,-0.29,3.13,0.56,2.63,167.04,201.0,0.0,0.0,0.0,0.0
1776452183387842967,31209,0.0,0.9,0.0,1.1,0.1,-0.12,6.38,0.31,0.94,0.11,-0.01,-0.3,-2.25,-0.88,3.06,167.56,199.0,0.0,0.0,0.0,0.0
1776452183490273043,31308,0.088,0.0,0.064,0.2,-0.06,-0.12,6.63,0.37,0.81,0.12,0.08,-0.24,-0.25,-0.69,2.13,171.84,199.0,0.0,0.0,0.0,0.0
1776452183849636787,31409,0.0,0.9,0.0,1.5,0.04,0.02,6.75,0.37,0.81,0.07,-0.01,-0.25,-0.69,-0.12,1.5,167.56,212.0,0.0,0.0,0.0,0.0
1776452183887478647,31509,0.088,0.0,0.0,1.4,0.06,-0.06,6.88,0.37,0.75,0.19,-0.06,-0.36,-1.81,-0.0,1.06,167.56,213.0,0.0,0.0,0.0,0.0
1776452183900647535,31608,0.0,1.4,0.06,0.5,0.18,-0.04,7.06,0.37,0.63,0.2,-0.06,-0.37,-0.81,0.19,1.37,171.67,213.0,0.0,0.0,0.0,0.0
1776452183912550423,31708,0.0,1.5,0.064,0.3,-0.02,-0.04,7.19,0.31,0.63,-0.09,0.01,-0.33,1.19,1.25,1.44,171.67,194.0,0.0,0.0,0.0,0.0
1776452183989924020,31808,0.0,1.1,0.0,1.0,0.04,0.04,7.25,0.12,0.63,0.0,-0.04,-0.35,-0.75,1.31,0.5,171.67,191.0,0.0,0.0,0.0,0.0
1776452184088225690,31907,0.084,0.9,0.072,0.3,0.12,0.02,7.25,-0.0,0.69,0.07,-0.14,-0.33,-2.0,0.69,-0.5,172.36,191.0,0.0,0.0,0.0,0.0
1776452184190637496,32007,0.0,1.0,0.06,0.3,0.16,0.0,7.25,-0.0,0.63,0.27,-0.03,-0.3,-0.56,0.81,-0.94,172.36,195.0,0.0,0.0,0.0,0.0
1776452184288908387,32107,0.0,0.4,0.0,1.5,0.06,-0.08,7.13,-0.06,0.5,0.08,-0.01,-0.4,1.94,1.5,-1.56,171.67,173.0,0.0,0.0,0.0,0.0
1776452184387224314,32206,0.088,-0.1,0.0,1.6,0.08,0.02,6.94,-0.19,0.44,0.12,-0.04,-0.46,1.0,0.81,-1.94,172.36,173.0,0.0,0.0,0.0,0.0
1776452184489625527,32306,0.092,0.2,0.0,1.6,0.12,-0.02,6.75,-0.37,0.88,-0.37,-0.05,-0.28,2.44,2.06,-2.13,167.56,198.0,0.0,0.0,0.0,0.0
1776452184587893586,32406,0.096,0.0,0.0,1.3,-0.02,0.0,6.56,-0.5,0.88,0.08,0.04,-0.41,1.0,-0.19,-1.94,171.84,205.0,0.0,0.0,0.0,0.0
1776452184686202902,32505,0.084,0.2,0.0,1.6,-0.1,-0.1,6.44,-0.5,1.12,-0.11,0.01,-0.25,1.63,0.81,-0.5,172.36,205.0,0.0,0.0,0.0,0.0
1776452184788586338,32605,0.08,0.2,0.0,0.5,0.18,-0.04,6.44,-0.56,1.19,-0.09,-0.05,-0.33,1.63,0.5,0.19,167.56,197.0,0.0,0.0,0.0,0.0
1776452184886897413,32705,0.0,1.0,0.06,0.5,-0.02,-0.06,6.44,-0.63,1.37,-0.07,-0.03,-0.33,-0.06,-0.44,-0.37,171.67,197.0,0.0,0.0,0.0,0.0
1776452184995252394,32805,0.0,0.1,0.056,0.5,0.14,-0.06,6.44,-0.56,1.37,0.03,-0.04,-0.37,0.31,-0.69,-1.0,167.04,196.0,0.0,0.0,0.0,0.0
1776452185329624333,32905,0.0,0.6,0.0,1.6,0.0,0.02,6.25,-0.5,1.25,0.29,-0.03,-0.39,-0.37,-1.06,-1.81,167.04,195.0,0.0,0.0,0.0,0.0
1776452185386585910,33005,0.0,1.3,0.0,0.4,0.0,-0.1,6.06,-0.44,1.37,-0.07,-0.0,-0.29,2.5,-1.12,-1.69,167.04,195.0,0.0,0.0,0.0,0.0
1776452185394939790,33104,0.0,0.1,0.0,1.7,0.12,-0.1,5.94,-0.37,1.5,0.0,0.02,-0.31,0.31,-0.69,-1.63,167.04,207.0,0.0,0.0,0.0,0.0
1776452185398792027,33204,0.088,0.2,0.068,0.2,0.16,0.08,5.88,-0.31,1.37,0.36,-0.02,-0.34,-0.63,-0.69,0.81,167.04,207.0,0.0,0.0,0.0,0.0
1776452185484840605,33304,0.0,1.3,0.0,0.6,0.16,-0.08,5.94,-0.25,1.0,0.48,0.04,-0.38,1.81,-0.75,1.31,166.36,207.0,0.0,0.0,0.0,0.0
1776452185587271656,33403,0.0,0.7,0.06,0.7,-0.04,-0.14,6.06,-0.19,1.19,0.12,0.05,-0.38,5.25,-0.19,1.0,162.24,200.0,0.0,0.0,0.0,0.0
1776452185685579368,33503,0.0,0.3,0.0,1.5,0.0,0.02,6.13,-0.19,1.44,0.33,-0.05,-0.37,-0.06,-0.75,0.56,166.36,200.0,0.0,0.0,0.0,0.0
1776452185793937057,33603,0.084,0.2,0.068,0.2,0.14,-0.1,6.25,-0.12,1.56,-0.1,0.26,-0.43,4.5,0.81,1.12,167.38,183.0,0.0,0.0,0.0,0.0
1776452185886252133,33703,0.076,0.1,0.0,1.2,0.14,-0.04,6.31,-0.5,1.88,-0.54,0.06,-0.32,2.19,5.06,-0.06,162.24,214.0,0.0,0.0,0.0,0.0
1776452185988647241,33804,0.0,0.9,0.096,0.3,-0.02,-0.08,6.31,-0.88,2.75,-0.68,-0.07,-0.37,0.63,3.13,0.63,166.36,214.0,0.0,0.0,0.0,0.0
1776452186086937758,33904,0.0,0.7,0.088,0.5,0.04,-0.02,6.44,-1.25,3.56,-0.54,-0.07,-0.39,-0.06,2.06,0.81,166.53,190.0,0.0,0.0,0.0,0.0
1776452186185237996,34003,0.0,0.2,0.0,0.9,0.14,-0.14,6.44,-1.44,3.88,-0.08,-0.1,-0.4,-2.19,-0.5,0.19,162.24,193.0,0.0,0.0,0.0,0.0
1776452186287626703,34103,0.0,0.7,0.0,1.5,0.02,0.0,6.44,-1.37,3.75,0.44,0.01,-0.28,-2.56,-0.63,-0.88,162.24,193.0,0.0,0.0,0.0,0.0
1776452186385923514,34203,0.084,1.4,0.0,1.2,0.02,-0.02,6.38,-1.31,3.38,0.44,0.15,-0.3,-0.0,0.63,-0.94,162.24,196.0,0.0,0.0,0.0,0.0
1776452186484226899,34302,0.0,0.3,0.0,1.6,0.18,-0.08,6.25,-1.37,3.0,0.44,-0.06,-0.35,-1.12,0.88,-0.75,162.24,180.0,0.0,0.0,0.0,0.0
1776452186586622032,34402,0.084,0.1,0.0,1.2,0.06,-0.04,6.19,-1.44,2.81,0.05,-0.0,-0.33,-0.63,2.56,-1.63,162.24,180.0,0.0,0.0,0.0,0.0
1776452186684888400,34502,0.0,1.4,0.06,0.4,0.18,-0.1,6.06,-1.56,2.56,0.62,0.03,-0.34,-2.13,0.12,-2.0,166.53,194.0,0.0,0.0,0.0,0.0
1776452186783178897,34601,0.0,1.2,0.068,0.1,0.12,0.0,5.81,-1.63,2.19,0.22,-0.01,-0.27,-0.5,2.81,-2.63,166.36,205.0,0.0,0.0,0.0,0.0
1776452186885598048,34702,0.08,0.1,0.0,1.1,0.02,-0.1,5.56,-1.81,1.75,0.09,0.15,-0.31,-0.25,2.31,-2.75,166.36,205.0,0.0,0.0,0.0,0.0
1776452186993986242,34802,0.088,0.3,0.06,0.5,0.18,-0.16,5.25,-2.19,1.69,0.08,-0.14,-0.36,-2.38,2.38,-2.31,167.04,202.0,0.0,0.0,0.0,0.0
1776452187086297353,34903,0.0,0.1,0.0,1.3,0.06,-0.14,5.13,-2.31,1.69,-0.33,-0.01,-0.37,-0.56,1.56,-0.63,166.36,202.0,0.0,0.0,0.0,0.0
1776452187188725621,35004,0.088,0.3,0.0,0.4,0.02,0.0,5.13,-2.44,1.69,-0.12,-0.0,-0.39,-1.44,-0.25,-0.81,167.04,223.0,0.0,0.0,0.0,0.0
1776452187286995847,35103,0.0,1.2,0.068,0.2,0.2,-0.02,5.0,-2.5,1.75,-0.15,-0.07,-0.38,-1.63,0.37,-1.37,167.04,186.0,0.0,0.0,0.0,0.0
1776452187389378635,35204,0.056,0.2,0.0,0.3,0.06,-0.08,4.88,-2.5,1.56,0.43,0.06,-0.41,-0.94,-0.44,-0.88,167.04,186.0,0.0,0.0,0.0,0.0
1776452187487651250,35304,0.0,0.7,0.0,1.4,0.04,0.0,4.88,-2.5,1.56,-0.13,0.04,-0.37,-1.0,0.88,-0.31,166.36,198.0,0.0,0.0,0.0,0.0
1776452187585968216,35403,0.088,0.1,0.0,1.5,0.1,-0.08,4.88,-2.56,1.44,0.07,-0.01,-0.38,-1.37,0.12,1.0,166.36,197.0,0.0,0.0,0.0,0.0
1776452187688374466,35503,0.0,1.3,0.064,1.0,0.04,-0.04,5.0,-2.56,1.37,0.02,0.01,-0.37,-0.81,0.06,1.69,166.36,197.0,0.0,0.0,0.0,0.0
1776452187786673303,35603,0.1,0.2,0.0,1.6,0.08,-0.06,5.19,-2.56,1.25,0.41,0.01,-0.33,-2.06,-0.31,1.75,162.24,203.0,0.0,0.0,0.0,0.0
1776452187889061238,35703,0.0,1.2,0.064,0.8,0.04,-0.14,5.44,-2.56,0.94,0.07,0.06,-0.38,1.5,0.69,2.56,165.84,203.0,0.0,0.0,0.0,0.0
1776452187987353001,35804,0.08,0.2,0.0,1.3,0.18,-0.12,5.69,-2.56,0.88,0.25,-0.01,-0.39,-1.63,-0.19,3.31,162.75,185.0,0.0,0.0,0.0,0.0
1776452188089745001,35905,0.076,0.3,0.0,0.6,0.04,-0.1,6.0,-2.56,0.75,0.08,-0.0,-0.36,-0.19,0.44,2.31,165.84,181.0,0.0,0.0,0.0,0.0
1776452188188056215,36004,0.0,0.9,0.0,1.6,-0.02,-0.04,6.19,-2.56,0.75,-0.01,-0.0,-0.4,0.06,0.56,1.06,161.72,181.0,0.0,0.0,0.0,0.0
1776452188290444231,36105,0.076,0.3,0.0,1.5,0.02,-0.02,6.25,-2.56,0.75,-0.06,-0.06,-0.37,-1.0,0.06,0.75,165.84,186.0,0.0,0.0,0.0,0.0
1776452188388747242,36206,0.08,0.1,0.0,1.6,0.1,-0.04,6.31,-2.56,0.75,-0.18,0.01,-0.4,0.69,0.25,0.69,166.36,178.0,0.0,0.0,0.0,0.0
1776452188491185368,36305,0.08,1.0,0.072,0.3,0.21,-0.02,6.38,-2.63,0.81,-0.13,-0.02,-0.37,-0.56,0.06,0.94,162.24,178.0,0.0,0.0,0.0,0.0
1776452188589422676,36405,0.0,1.2,0.0,1.1,0.04,-0.04,6.44,-2.63,0.69,0.02,0.03,-0.37,-0.69,-0.37,0.5,166.36,191.0,0.0,0.0,0.0,0.0
1776452188687656133,36505,0.08,0.8,0.0,1.6,0.04,-0.02,6.44,-2.63,0.69,-0.01,-0.04,-0.34,-1.0,-0.12,0.12,162.75,206.0,0.0,0.0,0.0,0.0
1776452188790125647,36605,0.08,0.1,0.0,1.5,0.08,-0.04,6.44,-2.63,0.56,0.01,0.02,-0.38,-0.0,0.25,0.5,166.87,206.0,0.0,0.0,0.0,0.0
1776452188888401881,36705,0.08,0.1,0.0,1.4,0.2,-0.1,6.44,-2.63,0.5,0.09,-0.01,-0.34,-1.25,-0.31,-0.25,167.04,203.0,0.0,0.0,0.0,0.0
1776452188990822174,36805,0.0,0.1,0.0,1.1,0.1,-0.18,6.44,-2.63,0.31,0.17,0.01,-0.35,-1.06,0.12,-0.06,167.04,195.0,0.0,0.0,0.0,0.0
1776452189089123878,36905,0.0,0.4,0.0,1.5,-0.06,-0.1,6.44,-2.56,0.12,0.15,0.06,-0.37,-0.12,0.37,0.0,167.56,195.0,0.0,0.0,0.0,0.0
1776452189191508902,37005,0.084,0.2,0.0,0.5,-0.08,-0.18,6.44,-2.56,0.0,0.26,0.03,-0.36,-0.63,0.06,-0.81,167.56,205.0,0.0,0.0,0.0,0.0
1776452189289798531,37105,0.0,1.4,0.068,0.3,0.12,0.02,6.31,-2.56,0.0,-0.1,-0.0,-0.38,0.25,0.31,-0.81,167.56,205.0,0.0,0.0,0.0,0.0
1776452189388113326,37204,0.0,1.2,0.068,0.2,0.06,-0.2,6.25,-2.63,0.0,-0.19,-0.03,-0.32,-0.06,-0.0,-0.81,167.73,199.0,0.0,0.0,0.0,0.0
1776452189490485498,37304,0.0,1.2,0.068,0.9,0.08,-0.08,6.19,-2.56,-0.06,0.17,0.04,-0.4,-0.25,-0.69,-1.19,167.56,213.0,0.0,0.0,0.0,0.0
1776452189588761368,37405,0.084,0.1,0.0,1.0,0.0,0.04,6.06,-2.56,-0.06,-0.07,-0.01,-0.33,-0.06,-0.31,-1.5,171.16,213.0,0.0,0.0,0.0,0.0
1776452189691195019,37505,0.08,0.2,0.064,0.1,0.02,0.1,5.88,-2.56,-0.19,0.23,0.04,-0.4,-0.31,-0.44,-1.88,167.56,202.0,0.0,0.0,0.0,0.0
1776452189789497815,37606,0.0,1.2,0.06,0.3,0.04,0.0,5.69,-2.56,-0.25,0.14,0.04,-0.42,0.75,-0.63,-1.5,167.04,214.0,0.0,0.0,0.0,0.0
1776452190181625102,37705,0.0,0.1,0.0,0.3,0.06,-0.14,5.56,-2.56,-0.06,-0.15,0.03,-0.4,1.56,-0.0,-1.56,167.04,214.0,0.0,0.0,0.0,0.0
1776452190194288661,37805,0.0,1.4,0.0,1.1,0.0,-0.16,5.44,-2.56,0.0,0.14,-0.01,-0.38,-1.31,-0.31,-0.56,167.04,206.0,0.0,0.0,0.0,0.0
1776452190206755022,37905,0.076,0.2,0.0,1.2,0.06,0.0,5.44,-2.56,-0.12,0.37,0.1,-0.4,-0.44,-0.44,0.06,167.04,197.0,0.0,0.0,0.0,0.0
1776452190219309862,38004,0.076,0.5,0.0,1.1,0.0,0.08,5.44,-2.5,0.0,-0.33,-0.01,-0.34,5.75,0.5,0.5,166.36,197.0,0.0,0.0,0.0,0.0
1776452190289159790,38104,0.084,0.1,0.0,1.5,0.02,-0.14,5.44,-2.5,0.12,0.07,-0.09,-0.37,-2.0,-1.12,-0.88,167.04,207.0,0.0,0.0,0.0,0.0
1776452190391562172,38204,0.096,0.3,0.0,1.0,-0.08,-0.04,5.31,-2.44,0.0,0.34,0.09,-0.37,0.37,-0.44,-1.25,166.53,207.0,0.0,0.0,0.0,0.0
1776452190489826457,38304,0.0,0.2,0.0,1.3,0.08,-0.12,5.25,-2.38,0.0,0.15,0.06,-0.38,3.13,0.25,0.69,167.04,201.0,0.0,0.0,0.0,0.0
1776452190592207043,38405,0.0,0.7,0.076,0.2,0.18,0.0,5.38,-2.38,0.31,-0.26,-0.0,-0.3,2.19,0.25,1.88,167.04,203.0,0.0,0.0,0.0,0.0
1776452190690557400,38505,0.0,0.2,0.064,0.4,0.02,-0.2,5.56,-2.38,0.37,0.03,0.07,-0.37,0.5,-0.37,1.94,167.04,203.0,0.0,0.0,0.0,0.0
1776452190788845370,38604,0.0,1.2,0.064,0.4,0.08,-0.08,5.69,-2.38,0.37,0.13,0.04,-0.46,3.19,-0.12,1.44,167.04,201.0,0.0,0.0,0.0,0.0
1776452190891245881,38704,0.088,0.4,0.0,0.9,0.08,-0.08,5.81,-2.31,0.69,-0.17,0.01,-0.34,2.06,0.06,1.5,166.36,192.0,0.0,0.0,0.0,0.0
1776452190989536499,38804,0.0,0.1,0.0,1.6,0.02,-0.06,5.94,-2.31,1.0,-0.26,-0.02,-0.35,1.12,-0.19,0.88,167.04,192.0,0.0,0.0,0.0,0.0
1776452191087834219,38903,0.088,0.1,0.0,1.2,0.02,-0.04,5.94,-2.38,1.19,-0.2,-0.03,-0.39,0.63,-0.31,-1.81,167.04,209.0,0.0,0.0,0.0,0.0
1776452191190225682,39003,0.0,0.5,0.056,0.2,0.04,0.06,5.75,-2.38,1.37,-0.23,0.03,-0.35,1.0,-0.06,-1.56,167.04,199.0,0.0,0.0,0.0,0.0
1776452191288485531,39104,0.0,0.0,0.0,0.7,0.04,-0.08,5.63,-2.38,1.5,-0.18,0.04,-0.39,0.25,-0.06,-1.0,167.04,199.0,0.0,0.0,0.0,0.0
1776452191390924548,39204,0.088,0.4,0.0,0.5,0.06,-0.06,5.5,-2.38,1.63,-0.19,0.02,-0.33,0.44,0.25,-1.06,167.04,193.0,0.0,0.0,0.0,0.0
1776452191489241913,39304,0.0,1.3,0.064,1.1,0.04,-0.14,5.38,-2.38,1.69,-0.03,0.03,-0.38,-0.25,-0.0,-1.0,166.87,193.0,0.0,0.0,0.0,0.0
1776452191591603155,39404,0.088,0.4,0.0,1.2,0.1,-0.08,5.38,-2.38,1.69,-0.09,0.07,-0.39,0.69,0.44,-0.5,168.07,197.0,0.0,0.0,0.0,0.0
1776452191689895614,39504,0.08,0.6,0.0,1.3,0.12,-0.16,5.38,-2.38,1.81,-0.12,-0.03,-0.3,-0.63,0.5,-0.19,171.16,198.0,0.0,0.0,0.0,0.0
1776452191792305225,39604,0.0,1.3,0.0,1.1,-0.06,-0.08,5.38,-2.44,1.81,-0.11,0.02,-0.38,0.88,0.44,0.12,171.16,198.0,0.0,0.0,0.0,0.0
1776452191890600406,39705,0.084,0.1,0.0,1.1,0.1,-0.06,5.38,-2.44,1.81,0.22,-0.04,-0.38,-1.5,-0.5,-0.69,171.16,190.0,0.0,0.0,0.0,0.0
1776452191992994036,39804,0.088,0.2,0.0,1.2,0.1,0.08,5.25,-2.44,1.69,0.17,0.05,-0.32,-0.44,-0.0,-1.19,171.16,200.0,0.0,0.0,0.0,0.0
1776452192091291726,39905,0.0,0.4,0.0,1.6,0.18,-0.1,5.13,-2.44,1.56,0.17,0.01,-0.34,0.5,0.12,-2.13,167.04,200.0,0.0,0.0,0.0,0.0
1776452192193679085,40005,0.08,0.7,0.064,0.5,0.08,0.06,4.88,-2.44,1.56,0.04,0.02,-0.37,0.75,0.37,-2.38,168.07,207.0,0.0,0.0,0.0,0.0
1776452192291979681,40105,0.0,1.1,0.0,0.3,0.12,-0.12,4.69,-2.44,1.37,0.39,0.02,-0.34,-0.75,-0.19,-1.37,171.16,205.0,0.0,0.0,0.0,0.0
1776452192394374337,40205,0.0,1.0,0.0,0.1,0.04,-0.08,4.56,-2.44,1.37,0.05,-0.01,-0.27,0.25,0.88,-1.88,167.73,205.0,0.0,0.0,0.0,0.0
1776452192492665489,40306,0.0,0.3,0.0,1.1,0.12,-0.08,4.25,-2.5,1.19,0.26,0.06,-0.43,0.31,-0.37,-3.31,167.04,194.0,0.0,0.0,0.0,0.0
1776452192595068051,40406,0.084,0.0,0.0,1.4,0.06,-0.16,3.94,-2.5,1.25,-0.05,0.04,-0.35,-0.37,0.56,-2.69,166.87,194.0,0.0,0.0,0.0,0.0
1776452192693355925,40507,0.0,0.6,0.056,0.2,0.1,-0.08,3.75,-2.5,1.25,-0.04,0.05,-0.35,0.31,0.81,-1.75,166.87,208.0,0.0,0.0,0.0,0.0
1776452192791659984,40606,0.0,0.7,0.056,1.5,0.12,0.02,3.63,-2.56,1.25,0.03,-0.01,-0.35,-0.69,0.31,-0.81,166.36,204.0,0.0,0.0,0.0,0.0
1776452192894047066,40706,0.08,0.0,0.0,1.6,0.1,-0.12,3.56,-2.56,1.19,-0.02,0.04,-0.4,1.56,0.44,-0.19,166.36,204.0,0.0,0.0,0.0,0.0
1776452192992395457,40806,0.084,0.1,0.0,0.1,0.04,-0.1,3.5,-2.69,1.37,-0.61,-0.06,-0.32,0.88,1.69,-1.37,166.36,202.0,0.0,0.0,0.0,0.0
1776452193100680680,40905,0.0,1.4,0.0,1.1,-0.1,-0.16,3.31,-2.81,1.5,-0.11,-0.02,-0.37,-1.0,-0.75,-2.75,166.36,220.0,0.0,0.0,0.0,0.0
1776452193193046374,41005,0.088,0.2,0.0,1.5,0.0,-0.1,3.0,-2.81,1.56,-0.2,-0.05,-0.33,-0.88,0.31,-3.88,166.53,220.0,0.0,0.0,0.0,0.0
1776452193291332034,41105,0.0,1.2,0.076,0.5,0.0,0.0,2.75,-2.81,1.37,0.29,0.02,-0.3,-2.25,-0.44,-1.5,166.36,193.0,0.0,0.0,0.0,0.0
1776452193393735938,41204,0.0,0.1,0.0,1.3,-0.04,-0.12,2.75,-2.75,1.0,0.27,0.08,-0.36,-0.56,0.19,1.44,166.36,218.0,0.0,0.0,0.0,0.0
1776452193492019079,41305,0.084,0.0,0.0,0.3,0.23,0.0,3.0,-2.81,0.75,0.42,-0.0,-0.33,-2.81,0.06,2.75,166.53,218.0,0.0,0.0,0.0,0.0
1776452193594424742,41405,0.0,1.3,0.072,1.0,-0.02,-0.14,3.31,-2.75,0.44,0.07,0.09,-0.34,-1.06,1.19,3.94,166.36,181.0,0.0,0.0,0.0,0.0
1776452193692723439,41504,0.092,0.0,0.0,1.2,0.1,-0.08,3.69,-2.94,0.37,-0.14,-0.05,-0.38,-1.69,1.81,3.44,165.33,212.0,0.0,0.0,0.0,0.0
1776452193791042190,41604,0.0,0.9,0.056,0.5,0.12,-0.06,4.0,-3.06,0.31,-0.27,-0.02,-0.36,-0.56,1.37,2.13,162.24,212.0,0.0,0.0,0.0,0.0
1776452193893405560,41704,0.0,0.8,0.068,0.5,0.14,0.0,4.13,-3.19,0.31,-0.11,0.04,-0.32,-1.81,0.56,1.06,167.04,218.0,0.0,0.0,0.0,0.0
1776452193991712845,41804,0.0,0.9,0.06,1.5,0.02,-0.04,4.19,-3.25,0.19,0.0,-0.02,-0.35,-2.25,0.81,0.25,167.56,218.0,0.0,0.0,0.0,0.0
1776452194094101180,41904,0.088,1.3,0.0,0.6,0.1,-0.14,4.19,-3.31,0.06,-0.2,0.04,-0.33,-0.56,1.12,0.69,167.56,198.0,0.0,0.0,0.0,0.0
1776452194192412434,42004,0.0,0.9,0.0,1.4,0.08,-0.08,4.25,-3.44,0.06,0.02,-0.1,-0.4,-2.25,-0.12,0.81,168.76,199.0,0.0,0.0,0.0,0.0
1776452194290711170,42104,0.088,0.3,0.0,1.4,0.2,-0.04,4.38,-3.44,0.0,-0.06,-0.0,-0.36,-1.37,0.69,1.0,168.24,199.0,0.0,0.0,0.0,0.0
1776452194393099745,42204,0.0,1.4,0.064,0.3,0.04,-0.08,4.44,-3.44,-0.06,0.04,0.01,-0.36,-1.44,0.19,0.63,168.24,218.0,0.0,0.0,0.0,0.0
1776452194491393369,42305,0.092,0.4,0.0,1.1,0.16,-0.08,4.5,-3.44,-0.06,-0.24,-0.02,-0.35,-0.12,0.56,0.88,172.36,197.0,0.0,0.0,0.0,0.0
1776452194593758482,42404,0.072,0.1,0.072,0.5,0.14,-0.12,4.56,-3.44,-0.19,0.3,-0.05,-0.37,-2.06,-0.81,0.37,168.24,197.0,0.0,0.0,0.0,0.0
1776452194692096032,42505,0.0,0.2,0.0,1.0,0.1,-0.1,4.56,-3.44,-0.37,0.0,0.04,-0.37,0.81,0.12,0.25,172.36,198.0,0.0,0.0,0.0,0.0
1776452194794504904,42605,0.076,0.4,0.0,1.1,0.0,-0.12,4.56,-3.38,-0.5,0.36,0.04,-0.34,-1.94,-0.75,0.37,168.07,198.0,0.0,0.0,0.0,0.0
1776452194892793047,42704,0.08,0.1,0.0,1.3,0.12,-0.02,4.63,-3.38,-0.5,0.0,0.02,-0.38,0.56,0.44,1.5,167.56,198.0,0.0,0.0,0.0,0.0
1776452195457639539,42804,0.076,0.2,0.0,1.3,0.12,-0.02,4.81,-3.38,-0.5,-0.14,0.03,-0.39,1.44,0.37,2.5,168.58,209.0,0.0,0.0,0.0,0.0
1776452195494907906,42905,0.0,0.2,0.0,0.3,0.12,-0.1,5.06,-3.44,-0.25,-0.04,-0.1,-0.36,-0.69,0.19,1.94,167.56,209.0,0.0,0.0,0.0,0.0
1776452195499011244,43004,0.0,0.7,0.068,0.1,-0.02,-0.08,5.13,-3.44,-0.31,-0.32,0.03,-0.42,3.44,0.19,0.44,167.04,194.0,0.0,0.0,0.0,0.0
1776452195503205417,43104,0.0,0.9,0.0,1.5,0.18,0.08,5.19,-3.44,0.0,-0.49,-0.09,-0.36,-1.06,0.06,0.69,167.04,198.0,0.0,0.0,0.0,0.0
1776452195507326978,43205,0.06,0.1,0.0,1.5,0.12,0.04,5.19,-3.44,-0.19,0.45,0.04,-0.39,-1.5,-0.75,1.25,167.56,198.0,0.0,0.0,0.0,0.0
1776452195511329020,43304,0.084,0.5,0.068,0.5,0.02,-0.02,5.44,-3.44,-0.12,-0.04,-0.03,-0.32,0.81,-0.06,2.56,171.16,216.0,0.0,0.0,0.0,0.0
1776452195593148703,43404,0.084,0.5,0.064,0.6,0.12,-0.12,5.63,-3.44,-0.12,-0.11,-0.0,-0.36,0.88,-0.12,2.0,171.16,205.0,0.0,0.0,0.0,0.0
1776452195695583507,43505,0.0,0.7,0.072,0.3,0.06,-0.04,5.75,-3.44,-0.06,0.02,-0.04,-0.31,-1.12,-0.81,0.31,171.16,205.0,0.0,0.0,0.0,0.0
1776452195793906602,43604,0.0,1.1,0.064,0.6,0.08,0.02,5.81,-3.31,-0.37,0.46,0.14,-0.37,-0.12,-0.44,1.31,171.16,191.0,0.0,0.0,0.0,0.0
1776452195896292165,43705,0.0,0.8,0.0,1.0,0.06,-0.04,6.0,-3.31,-0.37,0.04,0.08,-0.35,1.06,-0.0,3.25,167.04,210.0,0.0,0.0,0.0,0.0
1776452195994604241,43805,0.088,0.2,0.0,0.6,-0.04,-0.04,6.38,-3.31,-0.37,0.03,0.01,-0.28,-0.19,0.25,3.81,167.04,210.0,0.0,0.0,0.0,0.0
1776452196092859161,43905,0.0,0.3,0.064,0.5,0.25,0.1,6.75,-3.31,-0.37,0.01,-0.0,-0.36,2.31,-0.25,3.38,167.04,207.0,0.0,0.0,0.0,0.0
1776452196195294990,44005,0.0,0.9,0.0,1.7,0.04,-0.16,7.0,-3.31,-0.12,-0.13,-0.02,-0.32,-0.12,-0.63,1.88,167.9,207.0,0.0,0.0,0.0,0.0
1776452196293576906,44106,0.08,0.3,0.0,1.3,0.02,-0.04,7.13,-3.19,-0.12,-0.05,-0.0,-0.38,1.63,-1.12,0.56,167.56,213.0,0.0,0.0,0.0,0.0
1776452196395992698,44206,0.0,0.9,0.0,1.2,0.02,-0.02,7.13,-3.13,0.06,-0.31,-0.0,-0.36,1.88,-1.06,0.12,167.56,208.0,0.0,0.0,0.0,0.0
1776452196498383230,44307,0.0,1.3,0.064,0.6,-0.06,-0.02,7.13,-3.0,0.31,-0.24,-0.0,-0.37,0.37,-1.19,0.31,171.67,208.0,0.0,0.0,0.0,0.0
1776452196596648961,44407,0.0,1.0,0.068,0.5,0.06,0.06,7.13,-2.88,0.44,-0.03,-0.01,-0.36,-0.06,-1.19,0.69,167.56,201.0,0.0,0.0,0.0,0.0
1776452196699068308,44508,0.0,0.7,0.0,1.5,0.1,-0.04,7.25,-2.81,0.44,-0.07,0.03,-0.37,0.5,-0.56,1.94,167.56,190.0,0.0,0.0,0.0,0.0
1776452196797372355,44608,0.088,0.8,0.06,0.3,-0.06,-0.08,7.44,-2.81,0.63,-0.18,-0.0,-0.32,0.88,-0.06,2.31,171.16,190.0,0.0,0.0,0.0,0.0
1776452196899785868,44709,0.092,0.2,0.0,1.1,-0.16,-0.1,7.63,-2.75,0.69,-0.02,-0.0,-0.33,1.25,-0.37,1.19,166.87,192.0,0.0,0.0,0.0,0.0
1776452197041621276,44809,0.088,0.1,0.0,0.9,0.12,-0.1,7.63,-2.75,0.81,-0.13,0.03,-0.37,1.5,-0.25,-1.25,167.04,190.0,0.0,0.0,0.0,0.0
1776452197100494733,44910,0.0,1.3,0.064,0.5,0.16,0.06,7.44,-2.75,0.88,0.08,0.02,-0.36,-0.25,-0.56,-2.25,167.04,190.0,0.0,0.0,0.0,0.0
1776452197198751695,45009,0.0,0.0,0.0,0.9,0.16,0.04,7.19,-2.69,0.88,-0.01,0.12,-0.31,1.94,0.19,-2.25,167.04,174.0,0.0,0.0,0.0,0.0
1776452197301180141,45109,0.0,0.2,0.0,1.6,0.1,-0.06,7.0,-2.69,0.88,0.17,0.06,-0.31,-0.37,0.31,-1.31,167.04,174.0,0.0,0.0,0.0,0.0
1776452197399492287,45209,0.088,0.1,0.0,1.6,-0.02,-0.1,6.94,-2.81,1.0,-0.01,-0.0,-0.3,0.63,1.37,-0.63,167.04,193.0,0.0,0.0,0.0,0.0
1776452197497745730,45308,0.092,0.3,0.0,1.4,0.04,-0.1,6.94,-2.88,0.94,0.02,0.04,-0.38,1.75,0.81,0.75,166.36,187.0,0.0,0.0,0.0,0.0
1776452197600203028,45409,0.092,0.5,0.076,0.6,0.04,-0.14,6.94,-2.94,1.0,0.0,-0.03,-0.37,0.19,0.37,0.0,166.36,187.0,0.0,0.0,0.0,0.0
1776452197698460156,45509,0.0,0.3,0.072,0.3,0.06,0.08,6.88,-2.94,1.0,0.01,-0.04,-0.31,-0.06,0.37,-1.56,166.53,193.0,0.0,0.0,0.0,0.0
1776452197800888343,45609,0.0,0.1,0.0,0.6,0.08,-0.14,6.63,-3.0,1.0,-0.06,0.13,-0.38,1.94,0.69,-2.63,166.36,203.0,0.0,0.0,0.0,0.0
1776452197899152100,45709,0.0,1.2,0.072,0.2,0.1,-0.14,6.44,-3.06,1.06,0.07,-0.06,-0.39,-1.19,0.25,-1.44,167.38,203.0,0.0,0.0,0.0,0.0
1776452198001578158,45810,0.0,-0.1,0.0,1.1,0.21,-0.04,6.31,-3.06,1.0,-0.04,0.03,-0.32,0.5,0.75,-1.44,166.53,189.0,0.0,0.0,0.0,0.0
1776452198099860535,45910,0.084,0.0,0.0,0.9,0.06,-0.06,6.13,-3.06,0.94,0.06,0.07,-0.34,0.44,0.12,-1.56,166.36,202.0,0.0,0.0,0.0,0.0
1776452198202279655,46011,0.084,0.9,0.0,1.5,0.0,-0.08,6.0,-3.13,1.0,0.05,-0.01,-0.36,-0.56,0.69,-1.06,171.16,202.0,0.0,0.0,0.0,0.0
1776452198300551161,46111,0.088,0.0,0.0,0.4,0.06,-0.12,5.94,-3.13,0.94,0.11,0.07,-0.37,-0.31,0.31,-0.63,167.04,204.0,0.0,0.0,0.0,0.0
1776452198402953632,46211,0.0,1.2,0.068,0.0,0.08,0.04,5.94,-3.25,1.0,-0.09,-0.0,-0.34,0.19,1.94,-0.25,167.04,204.0,0.0,0.0,0.0,0.0
1776452198501257490,46311,0.0,1.4,0.0,1.3,0.04,-0.02,6.0,-3.38,0.88,0.19,0.02,-0.35,-0.69,0.5,0.94,171.16,217.0,0.0,0.0,0.0,0.0
1776452198599546608,46410,0.0,0.7,0.064,0.4,0.12,0.02,6.13,-3.38,0.75,0.4,0.01,-0.37,-1.5,0.06,1.44,171.67,177.0,0.0,0.0,0.0,0.0
1776452198701980412,46510,0.0,0.7,0.064,0.2,-0.08,-0.18,6.19,-3.44,0.75,-0.19,0.01,-0.35,2.44,1.94,0.0,171.16,177.0,0.0,0.0,0.0,0.0
1776452198800267567,46611,0.0,0.9,0.0,1.5,0.1,-0.08,6.06,-3.56,0.81,0.2,-0.0,-0.33,-0.94,-0.19,-1.63,171.16,199.0,0.0,0.0,0.0,0.0
1776452198902664353,46710,0.088,0.0,0.0,0.3,0.0,-0.06,5.94,-3.56,0.69,0.06,0.12,-0.42,2.69,0.56,-0.37,172.19,197.0,0.0,0.0,0.0,0.0
1776452199000971193,46811,0.0,0.2,0.0,1.3,-0.02,-0.06,6.13,-3.75,1.12,-0.44,-0.11,-0.32,2.13,2.38,3.19,171.16,197.0,0.0,0.0,0.0,0.0
1776452199103374914,46911,0.0,0.1,0.0,1.6,0.06,0.0,6.5,-3.94,1.5,-0.14,-0.12,-0.26,1.0,1.25,4.5,166.36,186.0,0.0,0.0,0.0,0.0
1776452199201670632,47011,0.08,-0.1,0.0,1.4,0.08,-0.14,6.88,-4.13,1.81,-0.25,-0.03,-0.3,1.75,0.81,2.69,166.36,205.0,0.0,0.0,0.0,0.0
1776452199304088888,47112,0.084,0.2,0.072,0.5,0.06,-0.21,7.0,-4.19,2.06,0.14,-0.08,-0.31,-1.0,0.12,0.37,171.16,205.0,0.0,0.0,0.0,0.0
1776452199406440736,47213,0.0,0.4,0.0,1.0,0.18,-0.08,7.0,-4.19,2.19,-0.03,-0.0,-0.48,2.44,0.5,0.69,166.36,186.0,0.0,0.0,0.0,0.0
1776452199504762158,47312,0.088,0.3,0.0,1.2,0.0,-0.2,7.06,-4.25,2.31,-0.01,0.05,-0.31,0.69,0.81,0.25,166.36,186.0,0.0,0.0,0.0,0.0
1776452199603023580,47412,0.0,1.4,0.076,0.3,0.14,-0.1,7.06,-4.31,2.25,0.45,0.03,-0.36,-0.0,0.75,0.0,166.53,195.0,0.0,0.0,0.0,0.0
1776452199705479595,47512,0.0,0.2,0.0,0.5,0.06,-0.12,7.06,-4.31,2.31,0.06,-0.0,-0.35,2.63,0.88,0.19,166.36,196.0,0.0,0.0,0.0,0.0
1776452199803768035,47612,0.0,0.7,0.068,0.5,0.12,-0.02,7.0,-4.38,2.5,0.07,-0.0,-0.37,2.44,0.25,-0.81,166.36,196.0,0.0,0.0,0.0,0.0
1776452199906162013,47712,0.0,0.4,0.0,1.6,-0.02,-0.02,6.88,-4.38,2.75,0.02,-0.01,-0.33,2.0,-0.0,-1.63,165.84,206.0,0.0,0.0,0.0,0.0
1776452200004455805,47812,0.08,0.1,0.0,0.5,0.1,0.12,6.69,-4.38,2.69,0.2,0.06,-0.4,2.19,-0.5,-2.31,161.72,191.0,0.0,0.0,0.0,0.0
1776452200102763458,47911,0.0,0.8,0.084,0.5,0.12,-0.06,6.44,-4.38,3.0,-0.33,0.03,-0.33,2.69,0.37,-1.69,165.84,191.0,0.0,0.0,0.0,0.0
1776452200205174906,48011,0.0,0.7,0.0,1.1,0.08,0.02,6.25,-4.31,3.0,0.17,-0.06,-0.44,-0.56,-1.31,-3.44,161.55,198.0,0.0,0.0,0.0,0.0
1776452200303454410,48111,0.0,1.3,0.076,0.6,-0.04,0.04,5.81,-4.31,3.13,-0.46,-0.01,-0.28,-0.06,0.31,-5.19,165.15,197.0,0.0,0.0,0.0,0.0
1776452200401735192,48210,0.0,1.4,0.0,0.2,0.08,-0.16,5.38,-4.31,2.94,0.28,-0.01,-0.39,-1.44,-0.69,-3.69,166.01,197.0,0.0,0.0,0.0,0.0
1776452200504125900,48311,0.0,0.9,0.0,0.5,0.06,-0.04,5.06,-4.31,3.0,-0.17,-0.04,-0.4,0.63,0.5,-2.75,165.67,210.0,0.0,0.0,0.0,0.0
1776452200602386422,48412,0.0,1.4,0.068,0.4,-0.06,-0.04,4.81,-4.38,2.94,0.06,-0.02,-0.38,-1.19,-0.12,-2.38,165.84,209.0,0.0,0.0,0.0,0.0
1776452200704825500,48512,0.0,0.1,0.064,0.6,0.14,-0.14,4.75,-4.44,3.06,-0.18,-0.04,-0.33,-0.81,0.44,0.06,162.75,209.0,0.0,0.0,0.0,0.0
1776452200807261578,48613,0.0,1.4,0.06,0.3,0.02,-0.08,4.75,-4.44,2.88,0.48,0.07,-0.36,-1.69,-0.75,0.88,161.72,207.0,0.0,0.0,0.0,0.0
1776452200905577545,48713,0.0,0.4,0.0,1.0,0.06,-0.08,4.81,-4.38,2.75,0.03,0.05,-0.37,0.25,0.88,0.94,161.72,207.0,0.0,0.0,0.0,0.0
1776452201007946493,48813,0.08,0.0,0.056,0.2,0.08,-0.04,4.88,-4.44,2.63,0.27,0.02,-0.36,-0.75,-0.19,0.0,161.72,197.0,0.0,0.0,0.0,0.0
1776452201106253487,48914,0.0,1.0,0.056,0.1,0.18,-0.02,4.81,-4.44,2.5,0.25,0.07,-0.39,-0.37,-0.37,-1.25,161.72,208.0,0.0,0.0,0.0,0.0
1776452201204586278,49013,0.0,1.3,0.06,0.3,0.08,0.04,4.63,-4.44,2.56,-0.16,-0.01,-0.35,0.06,0.5,-2.69,161.04,208.0,0.0,0.0,0.0,0.0
1776452201306964233,49113,0.0,1.3,0.0,0.1,-0.08,-0.18,4.44,-4.5,2.5,0.03,-0.0,-0.4,0.12,0.37,-1.19,161.04,181.0,0.0,0.0,0.0,0.0
1776452201473597248,49214,0.0,0.3,0.06,0.6,0.04,-0.04,4.44,-4.5,2.5,0.02,-0.0,-0.36,0.37,0.06,1.31,165.15,204.0,0.0,0.0,0.0,0.0
1776452201507637016,49313,0.0,0.2,0.0,0.3,0.08,0.06,4.63,-4.44,2.38,0.21,0.11,-0.41,-0.06,-0.94,3.06,165.33,204.0,0.0,0.0,0.0,0.0
1776452201605941122,49413,0.076,0.3,0.0,1.7,-0.04,-0.08,5.0,-4.38,2.5,-0.08,-0.02,-0.31,0.31,0.31,3.56,161.04,195.0,0.0,0.0,0.0,0.0
1776452201708349633,49514,0.08,0.2,0.0,0.2,0.08,-0.21,5.44,-4.31,2.38,0.36,0.08,-0.38,-1.56,-1.19,4.88,164.81,210.0,0.0,0.0,0.0,0.0
1776452201806684331,49614,0.0,1.2,0.0,0.9,0.16,-0.08,5.88,-4.25,2.44,-0.17,0.01,-0.38,4.19,0.56,3.63,161.72,210.0,0.0,0.0,0.0,0.0
1776452201909051879,49714,0.084,0.0,0.08,0.3,0.08,0.02,6.0,-4.19,2.5,0.02,-0.0,-0.38,-0.31,-1.44,-0.37,165.84,205.0,0.0,0.0,0.0,0.0
1776452202007350929,49814,0.0,0.9,0.056,0.5,0.08,-0.14,5.81,-4.13,2.69,-0.16,0.05,-0.39,2.56,-0.88,-2.38,163.27,205.0,0.0,0.0,0.0,0.0
1776452202115738581,49914,0.0,0.2,0.0,1.3,0.14,-0.04,5.63,-4.13,3.0,-0.21,0.02,-0.33,0.63,-0.37,-1.37,162.07,186.0,0.0,0.0,0.0,0.0
1776452202208041599,50014,0.076,1.1,0.0,1.3,0.1,-0.08,5.63,-4.06,3.0,0.35,0.08,-0.39,-1.75,-1.25,1.75,167.04,178.0,0.0,0.0,0.0,0.0
1776452202310426951,50115,0.092,0.3,0.0,1.2,0.1,-0.12,6.0,-3.94,3.25,-0.42,0.01,-0.31,4.75,0.37,3.94,162.24,178.0,0.0,0.0,0.0,0.0
1776452202408779843,50215,0.088,0.2,0.076,0.2,0.06,0.02,6.25,-3.94,3.44,-0.16,-0.04,-0.32,-1.12,-1.06,2.06,166.36,189.0,0.0,0.0,0.0,0.0
1776452202511140195,50315,0.08,0.5,0.06,0.3,0.0,-0.23,6.44,-3.81,3.5,-0.09,-0.0,-0.36,0.56,-0.56,1.75,166.36,204.0,0.0,0.0,0.0,0.0
1776452202609399383,50415,0.0,1.3,0.068,0.3,0.02,-0.04,6.56,-3.69,3.5,0.04,-0.0,-0.32,-0.06,-0.94,1.0,167.04,204.0,0.0,0.0,0.0,0.0
1776452202707711756,50514,0.0,0.2,0.0,1.1,-0.08,-0.14,6.56,-3.63,3.5,0.08,0.07,-0.29,0.88,-0.69,0.63,166.36,205.0,0.0,0.0,0.0,0.0
1776452202810126812,50614,0.08,0.4,0.0,1.1,0.06,0.06,6.63,-3.56,3.5,0.06,0.05,-0.35,0.75,-0.44,-0.44,166.36,187.0,0.0,0.0,0.0,0.0
1776452202908458538,50714,0.08,0.3,0.0,0.2,0.12,0.12,6.56,-3.56,3.56,0.06,-0.05,-0.36,-0.88,-0.31,-1.06,166.36,187.0,0.0,0.0,0.0,0.0
1776452204033634808,50814,0.0,0.4,0.08,0.3,-0.16,-0.1,6.5,-3.5,3.56,-0.28,0.13,-0.37,2.5,0.56,0.19,166.36,200.0,0.0,0.0,0.0,0.0
1776452204039953643,50914,0.0,1.3,0.0,1.3,0.06,0.0,6.63,-3.56,3.75,-0.4,-0.05,-0.38,-1.0,0.5,2.25,162.24,200.0,0.0,0.0,0.0,0.0
1776452204042095316,51014,0.072,0.1,0.0,1.2,0.12,-0.08,6.81,-3.56,3.63,0.12,0.1,-0.39,-0.75,-0.69,1.19,162.24,193.0,0.0,0.0,0.0,0.0
1776452204108525327,51113,0.068,0.3,0.068,0.2,0.18,-0.12,7.0,-3.56,3.63,0.24,-0.04,-0.43,-2.25,0.12,3.0,162.24,187.0,0.0,0.0,0.0,0.0
1776452204120915960,51213,0.0,0.8,0.0,1.6,0.04,-0.1,7.31,-3.5,3.44,0.32,-0.0,-0.37,-1.5,-0.44,3.5,162.24,187.0,0.0,0.0,0.0,0.0
1776452204133169944,51313,0.072,1.4,0.064,0.5,0.02,-0.02,7.69,-3.38,3.13,0.11,0.15,-0.35,1.06,-0.37,3.25,165.84,184.0,0.0,0.0,0.0,0.0
1776452204210930584,51412,0.0,1.1,0.0,1.3,-0.02,0.0,7.81,-3.38,3.06,0.21,-0.01,-0.41,-1.69,-0.94,0.37,161.72,187.0,0.0,0.0,0.0,0.0
1776452204224118386,51512,0.0,0.9,0.056,0.3,0.04,0.0,7.69,-3.38,3.06,-0.27,0.01,-0.38,-0.94,0.31,-2.81,161.72,187.0,0.0,0.0,0.0,0.0
1776452204236454722,51613,0.0,1.5,0.068,0.5,0.16,-0.02,7.38,-3.38,2.94,0.01,0.05,-0.4,-1.94,-0.56,-3.19,166.36,224.0,0.0,0.0,0.0,0.0
1776452204248831799,51714,0.0,1.1,0.064,0.7,0.12,-0.04,7.25,-3.38,2.75,0.04,0.04,-0.34,-1.56,-0.31,0.37,162.24,187.0,0.0,0.0,0.0,0.0
1776452204309214235,51814,0.0,1.4,0.0,1.1,0.02,-0.1,7.38,-3.31,2.44,0.3,0.11,-0.36,-2.0,-0.37,1.75,162.24,187.0,0.0,0.0,0.0,0.0
1776452204321323682,51914,0.084,0.0,0.0,1.2,0.16,-0.06,7.56,-3.25,2.25,0.17,0.07,-0.39,-2.94,-0.56,2.56,166.36,210.0,0.0,0.0,0.0,0.0
1776452204334445705,52015,0.084,0.3,0.0,1.3,0.1,-0.08,7.94,-3.19,2.06,-0.05,-0.01,-0.32,-2.06,-0.75,3.56,166.87,210.0,0.0,0.0,0.0,0.0
1776452204346664949,52116,0.08,0.1,0.064,0.1,-0.04,-0.12,8.31,-3.06,1.81,0.06,0.09,-0.38,-0.25,-1.0,3.5,166.87,195.0,0.0,0.0,0.0,0.0
1776452204411632807,52215,0.0,0.2,0.0,1.2,0.02,-0.12,8.5,-3.0,1.81,-0.55,0.03,-0.34,-0.94,0.12,2.06,166.87,195.0,0.0,0.0,0.0,0.0
1776452204509882587,52316,0.084,0.3,0.0,0.9,0.04,-0.08,8.75,-3.0,1.94,-0.19,0.04,-0.38,-0.88,-0.12,1.94,167.04,195.0,0.0,0.0,0.0,0.0
1776452204612313418,52416,0.084,0.1,0.0,0.7,0.0,-0.04,8.94,-3.0,2.0,-0.23,0.05,-0.38,-0.75,-0.19,2.94,166.87,209.0,0.0,0.0,0.0,0.0
1776452204710610884,52515,0.0,0.9,0.06,0.2,0.14,-0.08,9.25,-3.0,2.0,0.04,-0.01,-0.39,-1.88,-0.25,3.56,166.87,204.0,0.0,0.0,0.0,0.0
1776452204808895127,52615,0.076,0.1,0.0,1.6,0.14,-0.1,9.69,-2.94,1.94,0.0,0.09,-0.35,-0.31,0.44,4.0,167.04,204.0,0.0,0.0,0.0,0.0
1776452204911318384,52715,0.084,0.2,0.0,1.3,0.0,-0.08,10.0,-2.94,1.88,-0.01,0.13,-0.39,-0.12,0.5,3.81,166.36,191.0,0.0,0.0,0.0,0.0
1776452205009626591,52814,0.084,0.2,0.068,0.0,-0.02,-0.06,10.31,-3.0,1.81,0.22,-0.03,-0.42,-1.81,-0.06,2.81,166.87,194.0,0.0,0.0,0.0,0.0
1776452205112011800,52914,0.0,0.3,0.0,1.2,0.06,-0.04,10.5,-3.06,1.81,-0.09,0.01,-0.37,-0.5,1.63,1.63,166.36,194.0,0.0,0.0,0.0,0.0
1776452205210317146,53014,0.088,0.3,0.056,0.5,0.1,-0.04,10.69,-3.19,1.75,-0.09,0.03,-0.36,0.12,0.94,0.88,165.84,194.0,0.0,0.0,0.0,0.0
1776452205308616380,53113,0.0,0.0,0.0,1.5,0.2,0.0,10.69,-3.19,1.69,0.1,0.04,-0.31,-0.56,-0.5,0.63,165.84,192.0,0.0,0.0,0.0,0.0
1776452205411010997,53214,0.084,0.4,0.0,1.8,0.16,-0.1,10.69,-3.19,1.69,-0.07,-0.0,-0.35,-0.44,0.56,-0.5,161.72,192.0,0.0,0.0,0.0,0.0
1776452205509278991,53314,0.084,-0.1,0.0,0.6,0.02,-0.02,10.63,-3.19,1.5,0.42,0.08,-0.42,-1.5,-0.69,-1.19,161.72,197.0,0.0,0.0,0.0,0.0
1776452205607588336,53413,0.0,0.2,0.0,1.4,0.12,-0.06,10.5,-3.25,1.5,-0.15,-0.04,-0.29,-1.44,0.81,-1.25,161.55,197.0,0.0,0.0,0.0,0.0
1776452205710013046,53513,0.08,0.3,0.0,0.3,0.06,-0.04,10.5,-3.25,1.44,-0.12,-0.0,-0.37,-0.31,-0.19,0.0,161.72,189.0,0.0,0.0,0.0,0.0
1776452205945656889,53613,0.088,0.1,0.0,1.3,0.0,-0.08,10.5,-3.25,1.37,0.14,0.04,-0.35,-1.0,-0.5,0.37,165.84,188.0,0.0,0.0,0.0,0.0
1776452206013107662,53713,0.084,0.3,0.0,1.5,0.02,-0.18,10.56,-3.25,1.19,0.31,0.07,-0.29,-1.56,-0.69,0.44,166.36,188.0,0.0,0.0,0.0,0.0
1776452206026524457,53814,0.084,0.6,0.0,1.1,0.1,0.14,10.56,-3.25,1.12,-0.1,0.06,-0.33,0.5,0.88,0.12,161.72,211.0,0.0,0.0,0.0,0.0
1776452206111393925,53915,0.0,0.6,0.072,0.2,0.04,-0.1,10.63,-3.25,1.19,-0.22,0.01,-0.33,-0.88,0.25,1.63,161.55,198.0,0.0,0.0,0.0,0.0
1776452206209703280,54014,0.0,1.0,0.06,0.5,0.08,-0.16,10.81,-3.25,1.12,0.01,0.09,-0.42,0.69,-0.12,1.37,161.55,198.0,0.0,0.0,0.0,0.0
1776452206312106165,54114,0.0,0.6,0.088,0.3,-0.08,-0.14,10.88,-3.31,1.31,-0.33,-0.05,-0.35,-0.44,0.37,0.25,161.72,200.0,0.0,0.0,0.0,0.0
1776452206410408594,54213,0.0,1.0,0.06,0.5,0.06,-0.16,10.88,-3.25,1.25,0.05,0.11,-0.34,-0.88,-0.69,-0.5,161.55,200.0,0.0,0.0,0.0,0.0
1776452206508691209,54312,0.0,1.0,0.0,1.6,0.1,0.02,10.88,-3.25,1.25,0.16,-0.0,-0.34,-1.5,0.37,0.12,161.55,183.0,0.0,0.0,0.0,0.0
1776452206611071241,54412,0.088,0.1,0.076,0.3,0.04,-0.12,11.0,-3.25,1.06,0.08,0.09,-0.37,1.06,0.31,1.69,162.75,206.0,0.0,0.0,0.0,0.0
1776452206709398689,54513,0.0,1.4,0.068,0.4,-0.02,0.0,11.13,-3.25,1.06,0.07,0.05,-0.3,-1.06,-0.06,0.81,165.84,206.0,0.0,0.0,0.0,0.0
1776452206817787127,54612,0.0,1.4,0.068,0.3,0.02,-0.02,11.19,-3.19,0.88,0.17,0.13,-0.41,0.63,0.25,1.37,165.67,209.0,0.0,0.0,0.0,0.0
1776452206910103559,54713,0.0,1.3,0.06,0.5,0.18,-0.06,11.44,-3.25,1.06,-0.12,0.06,-0.28,0.25,0.81,3.0,165.67,190.0,0.0,0.0,0.0,0.0
1776452207008456451,54813,0.0,0.1,0.0,1.2,0.04,0.04,11.94,-3.31,1.06,0.09,0.09,-0.39,-0.19,0.5,6.88,166.36,190.0,0.0,0.0,0.0,0.0
1776452207110798382,54913,0.08,0.4,0.0,1.5,0.2,-0.14,12.56,-3.38,1.25,-0.33,-0.03,-0.33,2.13,2.25,7.38,166.87,205.0,0.0,0.0,0.0,0.0
1776452207209068025,55014,0.088,0.2,0.0,1.5,0.06,-0.14,13.31,-3.44,1.37,0.05,0.07,-0.38,-0.06,0.19,6.5,170.64,195.0,0.0,0.0,0.0,0.0
1776452207311496622,55113,0.0,0.9,0.0,0.2,0.02,-0.08,13.81,-3.5,1.56,-0.2,-0.0,-0.33,1.81,0.69,4.06,170.64,195.0,0.0,0.0,0.0,0.0
1776452207414110627,55214,0.0,0.3,0.0,1.6,0.14,-0.02,14.13,-3.56,1.63,0.05,0.01,-0.38,-0.56,-0.31,2.75,166.36,201.0,0.0,0.0,0.0,0.0
1776452207512158751,55314,0.092,0.2,0.068,0.3,0.1,-0.06,14.38,-3.56,1.69,0.0,-0.03,-0.34,0.44,0.44,1.75,167.04,185.0,0.0,0.0,0.0,0.0
1776452207610534505,55413,0.0,-0.1,0.0,1.2,0.02,-0.2,14.56,-3.56,1.75,-0.12,0.06,-0.37,1.0,0.44,2.94,167.04,185.0,0.0,0.0,0.0,0.0
1776452207849628096,55513,0.092,0.2,0.068,0.4,0.04,-0.14,14.88,-3.56,1.81,0.03,0.06,-0.36,1.19,0.31,3.31,166.36,201.0,0.0,0.0,0.0,0.0
1776452207909495832,55613,0.0,1.0,0.0,0.0,0.2,-0.23,15.13,-3.56,2.0,0.06,-0.03,-0.34,0.75,0.37,2.56,166.87,201.0,0.0,0.0,0.0,0.0
1776452207921755695,55713,0.0,-0.1,0.0,1.1,-0.02,-0.16,15.31,-3.56,2.0,0.16,0.02,-0.37,2.13,0.44,1.56,166.36,198.0,0.0,0.0,0.0,0.0
1776452208011880429,55813,0.088,0.2,0.068,0.5,0.06,-0.1,15.5,-3.56,2.13,0.17,0.06,-0.4,1.69,0.44,2.06,166.53,187.0,0.0,0.0,0.0,0.0
1776452208110188378,55913,0.0,1.0,0.092,0.2,0.1,0.0,15.69,-3.69,2.56,-0.41,-0.03,-0.36,3.19,1.63,1.88,165.84,187.0,0.0,0.0,0.0,0.0
1776452208208468383,56012,0.0,0.8,0.0,1.5,0.0,-0.02,15.88,-3.75,2.88,-0.04,-0.08,-0.31,-1.63,0.12,1.25,161.55,206.0,0.0,0.0,0.0,0.0
1776452208310915249,56112,0.084,0.3,0.072,0.0,0.12,-0.21,15.94,-3.75,2.81,-0.08,0.15,-0.38,3.69,1.12,0.94,161.04,194.0,0.0,0.0,0.0,0.0
1776452208409156809,56212,0.0,0.3,0.0,0.8,0.08,-0.16,15.94,-3.81,2.94,0.0,-0.07,-0.39,-1.25,-0.0,-0.94,166.01,194.0,0.0,0.0,0.0,0.0
1776452208511638545,56312,0.0,0.9,0.068,0.5,0.14,-0.16,15.88,-3.81,2.88,0.15,-0.04,-0.32,-2.38,-0.31,-0.56,165.15,206.0,0.0,0.0,0.0,0.0
1776452208609856920,56412,0.0,0.3,0.0,1.5,-0.04,-0.08,15.88,-3.69,2.5,0.45,0.08,-0.35,-0.81,-1.0,0.19,161.04,206.0,0.0,0.0,0.0,0.0
1776452208708155110,56512,0.0,0.5,0.0,0.3,0.02,-0.08,15.88,-3.63,2.19,0.29,0.03,-0.32,-0.81,-0.69,0.06,160.87,199.0,0.0,0.0,0.0,0.0
1776452208810594846,56611,0.0,1.0,0.064,0.2,-0.02,-0.12,15.75,-3.63,2.19,0.0,-0.04,-0.37,0.12,0.06,-2.25,161.04,206.0,0.0,0.0,0.0,0.0
1776452208908886850,56711,0.0,0.9,0.0,1.6,0.0,-0.12,15.56,-3.63,2.13,0.09,0.01,-0.34,-1.56,-1.06,-1.12,165.67,206.0,0.0,0.0,0.0,0.0
1776452209011281401,56811,0.0,0.1,0.0,1.2,0.1,-0.02,15.63,-3.56,1.94,0.15,0.08,-0.36,-0.44,-0.25,0.88,161.55,210.0,0.0,0.0,0.0,0.0
1776452209109588342,56910,0.088,0.3,0.0,1.2,0.08,-0.1,15.69,-3.56,1.94,-0.04,0.03,-0.35,0.19,0.37,1.19,161.55,184.0,0.0,0.0,0.0,0.0
1776452209207862487,57010,0.08,0.2,0.0,1.2,-0.1,-0.1,15.88,-3.56,1.88,0.11,-0.02,-0.41,-0.75,-0.31,2.63,161.55,184.0,0.0,0.0,0.0,0.0
1776452209310293213,57111,0.088,0.2,0.06,0.4,0.06,0.04,16.12,-3.5,1.88,-0.06,-0.02,-0.37,0.31,-0.75,3.31,161.04,190.0,0.0,0.0,0.0,0.0
1776452209408581654,57210,0.0,1.1,0.06,0.4,0.06,-0.08,16.44,-3.44,2.0,-0.21,-0.01,-0.41,0.63,-1.0,2.81,161.04,186.0,0.0,0.0,0.0,0.0
1776452209506817910,57310,0.0,1.4,0.0,1.3,-0.04,-0.18,16.62,-3.38,2.31,-0.43,-0.05,-0.35,1.37,-0.44,0.75,161.04,186.0,0.0,0.0,0.0,0.0
1776452209609281581,57410,0.088,0.1,0.064,0.3,0.14,-0.1,16.69,-3.31,2.56,-0.19,0.02,-0.37,0.31,-0.56,0.06,162.07,185.0,0.0,0.0,0.0,0.0
1776452209707547466,57510,0.0,0.3,0.0,1.5,0.14,0.0,16.69,-3.31,2.69,-0.06,0.09,-0.33,0.06,-0.69,0.75,165.15,212.0,0.0,0.0,0.0,0.0
1776452209829625118,57610,0.0,1.1,0.0,1.1,0.1,-0.02,16.81,-3.19,2.69,0.11,-0.02,-0.39,-0.5,-0.81,1.44,165.15,212.0,0.0,0.0,0.0,0.0
1776452209908281467,57710,0.08,0.4,0.0,0.9,0.0,0.04,16.94,-3.19,2.88,-0.18,-0.02,-0.41,2.44,-0.25,1.44,165.15,178.0,0.0,0.0,0.0,0.0
1776452210010676934,57810,0.088,0.2,0.0,1.8,-0.08,-0.2,17.06,-3.13,3.0,0.06,0.03,-0.34,-0.31,-0.81,1.25,161.04,178.0,0.0,0.0,0.0,0.0
1776452210108952960,57911,0.088,0.1,0.06,0.1,0.0,-0.16,17.19,-3.0,2.94,0.28,0.02,-0.28,-0.06,-2.0,1.44,165.15,198.0,0.0,0.0,0.0,0.0
1776452210211376195,58011,0.084,0.3,0.0,1.5,0.14,-0.1,17.31,-2.81,2.88,0.2,0.04,-0.35,0.12,-1.88,0.94,165.15,212.0,0.0,0.0,0.0,0.0
1776452210309642425,58112,0.088,0.3,0.0,1.5,0.04,0.14,17.31,-2.69,3.06,-0.3,-0.0,-0.31,2.56,-0.37,-0.75,165.15,212.0,0.0,0.0,0.0,0.0
1776452210412091864,58212,0.0,1.2,0.084,0.5,0.06,-0.25,17.25,-2.56,3.38,-0.23,-0.0,-0.35,-0.69,-0.81,-0.5,161.55,201.0,0.0,0.0,0.0,0.0
1776452210510368353,58311,0.0,1.4,0.072,0.3,0.06,-0.04,17.25,-2.5,3.13,0.39,0.04,-0.46,-1.19,-0.56,0.37,161.55,183.0,0.0,0.0,0.0,0.0
1776452210612744366,58411,0.0,1.2,0.0,1.2,0.12,-0.16,17.25,-2.5,3.31,-0.45,-0.0,-0.37,1.75,0.06,-0.19,161.55,183.0,0.0,0.0,0.0,0.0
1776452210711066299,58511,0.088,0.2,0.064,0.3,0.12,-0.14,17.31,-2.5,3.31,0.13,-0.0,-0.3,-2.38,-0.63,1.06,161.55,188.0,0.0,0.0,0.0,0.0
1776452210809389269,58610,0.0,0.4,0.0,0.3,0.23,-0.1,17.37,-2.44,3.19,0.04,0.1,-0.35,0.31,-0.31,0.69,161.72,188.0,0.0,0.0,0.0,0.0
1776452210911780357,58710,0.0,1.3,0.072,0.3,0.04,0.0,17.5,-2.44,3.19,0.3,0.07,-0.34,-2.81,-0.5,1.63,165.84,198.0,0.0,0.0,0.0,0.0
1776452211010060549,58810,0.0,1.0,0.0,1.2,0.21,-0.06,17.69,-2.38,3.0,0.18,0.06,-0.35,0.75,0.37,2.56,161.72,197.0,0.0,0.0,0.0,0.0
1776452211133628045,58910,0.092,0.1,0.0,1.3,0.04,-0.02,18.0,-2.38,2.81,0.12,0.08,-0.36,0.81,0.06,3.25,161.72,197.0,0.0,0.0,0.0,0.0
1776452211210772572,59010,0.088,0.1,0.0,1.7,-0.04,-0.06,18.25,-2.31,2.81,0.19,0.02,-0.25,-0.31,-0.12,2.75,161.55,198.0,0.0,0.0,0.0,0.0
1776452211309087701,59110,0.088,0.2,0.0,0.2,0.1,-0.04,18.5,-2.31,2.69,0.26,0.01,-0.38,-0.81,0.19,1.88,165.84,198.0,0.0,0.0,0.0,0.0
1776452211407350181,59209,0.0,1.2,0.0,0.3,0.12,-0.02,18.56,-2.31,2.63,0.0,-0.0,-0.35,-0.31,0.56,0.0,165.84,198.0,0.0,0.0,0.0,0.0
1776452211509717704,59309,0.092,-0.1,0.0,1.6,-0.04,-0.14,18.69,-2.31,2.5,0.16,0.06,-0.33,-1.25,-0.19,3.13,165.33,198.0,0.0,0.0,0.0,0.0
1776452211608019630,59410,0.08,1.2,0.064,0.3,0.12,-0.1,19.06,-2.25,2.31,0.01,0.06,-0.42,0.31,1.06,4.75,161.04,207.0,0.0,0.0,0.0,0.0
1776452211729629308,59509,0.0,-0.3,0.0,1.2,-0.06,0.02,19.62,-2.38,2.38,-0.11,-0.0,-0.29,-1.88,1.31,7.06,165.15,207.0,0.0,0.0,0.0,0.0
1776452211812874935,59610,0.056,1.1,0.0,1.5,0.06,-0.08,20.5,-2.38,2.25,0.01,0.05,-0.4,-0.5,0.88,9.13,165.84,208.0,0.0,0.0,0.0,0.0
1776452211911173935,59710,0.084,1.1,0.068,0.2,-0.12,-0.12,21.31,-2.38,2.25,-0.07,-0.01,-0.32,-1.5,0.37,7.5,165.84,201.0,0.0,0.0,0.0,0.0
1776452212009460063,59809,0.0,1.1,0.0,1.0,0.12,-0.1,21.94,-2.38,2.19,-0.14,0.04,-0.33,-0.19,0.94,5.25,165.84,201.0,0.0,0.0,0.0,0.0
1776452212111853356,59909,0.0,1.0,0.064,0.6,0.08,-0.16,22.44,-2.44,2.19,-0.07,0.01,-0.37,-1.06,0.63,4.0,165.84,198.0,0.0,0.0,0.0,0.0
1776452212210222385,60010,0.0,0.7,0.056,0.4,0.02,-0.12,22.81,-2.44,2.06,0.1,0.05,-0.37,-1.06,0.44,4.0,165.67,198.0,0.0,0.0,0.0,0.0
1776452212318511146,60109,0.0,0.6,0.0,1.5,0.06,-0.08,23.19,-2.44,1.81,0.33,-0.0,-0.35,-1.5,0.25,4.0,165.67,200.0,0.0,0.0,0.0,0.0
1776452212410865705,60210,0.088,0.2,0.0,0.3,0.02,-0.04,23.56,-2.5,1.75,-0.14,0.09,-0.35,0.56,2.31,3.13,161.72,196.0,0.0,0.0,0.0,0.0
1776452212513234331,60311,0.0,1.2,0.072,0.3,0.02,0.06,23.87,-2.69,1.81,-0.08,-0.07,-0.36,-1.12,0.63,2.31,165.84,196.0,0.0,0.0,0.0,0.0
1776452212611561267,60410,0.0,0.4,0.0,1.0,0.04,-0.18,24.06,-2.69,1.56,0.44,0.12,-0.39,-1.75,0.06,2.69,165.84,202.0,0.0,0.0,0.0,0.0
1776452212709796925,60510,0.088,0.3,0.0,1.2,0.08,-0.12,24.31,-2.75,1.63,-0.19,0.03,-0.33,0.88,2.63,1.94,165.84,185.0,0.0,0.0,0.0,0.0
1776452212812305773,60610,0.08,0.2,0.0,1.1,0.18,-0.12,24.44,-2.88,1.56,-0.01,-0.02,-0.35,-2.0,0.37,1.69,165.33,185.0,0.0,0.0,0.0,0.0
1776452212910559172,60710,0.076,0.7,0.0,0.8,0.12,0.0,24.62,-2.94,1.5,-0.17,-0.02,-0.33,0.06,0.69,1.81,161.55,203.0,0.0,0.0,0.0,0.0
1776452213012943057,60810,0.088,0.1,0.0,1.2,0.12,-0.14,24.87,-2.94,1.44,-0.02,0.04,-0.38,0.06,-0.19,2.44,165.67,189.0,0.0,0.0,0.0,0.0
1776452213111246449,60910,0.084,0.0,0.0,0.8,0.06,-0.18,25.12,-2.94,1.37,-0.1,-0.03,-0.36,-0.44,-0.25,2.19,165.84,189.0,0.0,0.0,0.0,0.0
1776452213213634696,61010,0.0,-0.2,0.0,1.7,0.12,-0.06,25.31,-2.94,1.5,-0.17,-0.01,-0.34,-0.19,-0.37,1.5,165.84,197.0,0.0,0.0,0.0,0.0
1776452213311954495,61110,0.0,1.3,0.064,0.2,0.1,0.02,25.56,-2.94,1.56,-0.04,0.09,-0.33,1.31,-0.12,3.94,165.67,197.0,0.0,0.0,0.0,0.0
1776452213410204720,61210,0.0,1.3,0.068,0.1,-0.02,-0.14,26.0,-2.88,1.69,-0.08,0.01,-0.34,1.63,0.19,5.38,165.67,204.0,0.0,0.0,0.0,0.0
1776452213512601003,61310,0.0,0.3,0.0,1.1,-0.1,-0.21,26.62,-2.88,1.81,0.11,0.06,-0.34,1.19,0.37,7.06,165.84,173.0,0.0,0.0,0.0,0.0
1776452213621017070,61411,0.084,0.1,0.0,0.9,0.2,-0.04,27.31,-2.81,1.94,0.11,0.04,-0.38,2.25,0.25,7.75,161.04,173.0,0.0,0.0,0.0,0.0
1776452213713325605,61511,0.0,0.8,0.064,0.2,0.1,0.06,28.06,-2.81,2.13,0.18,-0.0,-0.35,1.5,-0.19,7.63,162.07,201.0,0.0,0.0,0.0,0.0
1776452213815733703,61612,0.0,0.5,0.0,0.7,0.0,-0.06,28.75,-2.81,2.31,0.0,0.02,-0.37,2.75,-0.31,6.38,165.33,191.0,0.0,0.0,0.0,0.0
1776452213914039003,61712,0.0,1.2,0.0,1.1,-0.1,-0.12,29.31,-2.69,2.5,-0.12,-0.03,-0.37,0.69,-1.37,4.81,165.15,191.0,0.0,0.0,0.0,0.0
1776452214012297060,61812,0.0,0.8,0.0,1.2,0.04,0.02,29.75,-2.56,2.69,-0.26,0.02,-0.38,0.37,-1.44,3.94,164.64,191.0,0.0,0.0,0.0,0.0
1776452214114726409,61912,0.0,1.2,0.0,1.4,-0.04,-0.08,30.12,-2.38,2.81,-0.07,-0.02,-0.4,-2.0,-1.69,3.75,161.04,203.0,0.0,0.0,0.0,0.0
1776452214223116225,62012,0.0,0.9,0.0,1.5,0.08,-0.08,30.5,-2.25,2.81,-0.11,0.03,-0.35,-0.0,-0.81,4.13,165.15,203.0,0.0,0.0,0.0,0.0
1776452214315432551,62112,0.088,-0.2,0.072,0.5,0.16,-0.02,30.94,-2.13,2.88,-0.14,0.02,-0.35,-0.69,-0.63,4.88,165.15,203.0,0.0,0.0,0.0,0.0
1776452214413702880,62212,0.0,1.0,0.0,1.3,0.2,-0.12,31.37,-2.13,2.94,-0.2,-0.0,-0.34,-0.25,-0.69,4.0,165.15,203.0,0.0,0.0,0.0,0.0
1776452214511957709,62312,0.088,0.2,0.0,1.1,-0.02,-0.1,31.69,-2.06,3.0,-0.19,-0.0,-0.31,0.12,-0.25,2.63,165.67,197.0,0.0,0.0,0.0,0.0
1776452214614411132,62411,0.084,0.2,0.0,1.3,0.14,-0.02,31.87,-2.0,3.0,-0.12,0.01,-0.44,-0.06,-0.5,2.0,161.55,183.0,0.0,0.0,0.0,0.0
1776452214712725572,62511,0.084,0.7,0.064,0.4,0.08,0.04,32.06,-2.0,3.06,0.08,-0.02,-0.31,-1.44,-0.5,1.63,165.84,183.0,0.0,0.0,0.0,0.0
1776452214815121996,62611,0.0,1.0,0.068,0.2,0.08,-0.08,32.25,-1.94,2.94,0.02,0.06,-0.34,0.69,0.25,2.06,161.55,214.0,0.0,0.0,0.0,0.0
1776452214913423714,62711,0.0,0.7,0.06,0.6,0.21,-0.1,32.44,-1.94,2.88,0.15,-0.0,-0.35,-0.63,-0.37,2.38,161.55,193.0,0.0,0.0,0.0,0.0
1776452215015833063,62811,0.0,0.0,0.0,1.5,-0.02,-0.18,32.69,-1.94,2.81,0.17,0.07,-0.37,-0.5,-0.25,2.5,166.36,193.0,0.0,0.0,0.0,0.0
1776452215114126571,62912,0.088,0.4,0.0,0.5,0.08,-0.1,32.94,-1.88,2.69,0.44,0.01,-0.37,-2.19,-0.69,3.06,162.24,196.0,0.0,0.0,0.0,0.0
1776452215216522005,63012,0.0,0.8,0.0,1.4,0.0,-0.08,33.31,-1.81,2.25,0.25,0.05,-0.35,0.69,-0.12,3.63,166.87,193.0,0.0,0.0,0.0,0.0
1776452215318909383,63113,0.0,0.3,0.0,1.1,0.14,0.04,33.69,-1.75,2.25,0.08,0.04,-0.31,0.69,-0.0,4.44,166.36,193.0,0.0,0.0,0.0,0.0
1776452215417238779,63214,0.076,0.0,0.0,1.2,0.1,-0.06,34.06,-1.75,2.31,0.03,0.07,-0.38,0.88,-0.31,3.06,166.36,166.0,0.0,0.0,0.0,0.0
1776452215515475064,63313,0.088,0.4,0.0,1.0,0.02,0.1,34.25,-1.75,2.38,-0.1,0.03,-0.37,0.69,-0.12,0.44,162.24,166.0,0.0,0.0,0.0,0.0
1776452215617937369,63413,0.08,0.5,0.06,0.6,0.06,-0.04,34.19,-1.75,2.38,-0.01,0.05,-0.32,-1.31,-0.06,-1.37,166.36,192.0,0.0,0.0,0.0,0.0
1776452216025620729,63513,0.0,0.0,0.0,1.4,0.02,-0.12,34.06,-1.75,2.31,0.0,-0.0,-0.36,0.19,0.81,-0.44,166.87,205.0,0.0,0.0,0.0,0.0
1776452216037876692,63613,0.084,0.4,0.0,1.7,0.23,-0.02,34.13,-1.81,2.38,-0.18,0.01,-0.42,-0.81,0.56,0.69,170.64,205.0,0.0,0.0,0.0,0.0
1776452216051328451,63713,0.076,0.4,0.0,0.3,0.23,-0.06,34.19,-1.81,2.44,-0.22,0.02,-0.33,-1.19,0.56,1.25,166.36,192.0,0.0,0.0,0.0,0.0
1776452216117622507,63813,0.0,1.0,0.084,0.5,0.02,-0.08,34.38,-1.81,2.44,-0.31,0.04,-0.36,0.63,0.56,2.25,166.36,196.0,0.0,0.0,0.0,0.0
1776452216131643785,63912,0.0,1.0,0.08,0.4,0.23,-0.06,34.63,-1.88,2.69,-0.43,-0.0,-0.37,0.44,1.31,2.56,166.36,196.0,0.0,0.0,0.0,0.0
1776452216215877211,64013,0.0,1.3,0.096,0.1,-0.02,-0.1,34.88,-1.94,3.0,-0.19,-0.01,-0.41,-0.81,0.63,3.31,170.47,205.0,0.0,0.0,0.0,0.0
1776452216318298693,64113,0.0,1.3,0.06,0.6,0.02,-0.1,35.31,-1.94,3.0,0.14,0.05,-0.44,-1.88,-0.06,5.75,170.47,219.0,0.0,0.0,0.0,0.0
1776452216416606749,64212,0.0,1.3,0.0,0.2,0.0,0.0,36.06,-1.88,2.81,0.14,0.14,-0.24,0.19,1.0,8.19,170.47,219.0,0.0,0.0,0.0,0.0
1776452216514836471,64312,0.08,0.5,0.0,1.4,0.12,-0.18,37.06,-1.88,2.63,0.2,0.12,-0.34,0.63,1.06,11.81,167.04,196.0,0.0,0.0,0.0,0.0
1776452216617296842,64413,0.088,0.1,0.0,0.3,0.0,0.06,38.19,-1.94,2.5,0.28,-0.0,-0.37,-1.0,0.75,11.69,170.64,187.0,0.0,0.0,0.0,0.0
1776452216715591398,64513,0.0,1.1,0.056,0.5,0.0,-0.14,39.25,-1.94,2.13,0.36,0.09,-0.34,-0.37,0.63,10.5,166.36,187.0,0.0,0.0,0.0,0.0
1776452216817999361,64613,0.0,0.7,0.064,0.1,0.04,-0.06,40.13,-2.0,2.0,0.26,-0.09,-0.29,-1.06,1.56,7.5,167.38,184.0,0.0,0.0,0.0,0.0
1776452216916298288,64713,0.0,1.0,0.0,0.4,0.06,0.04,40.69,-2.13,1.88,0.05,-0.01,-0.37,0.5,1.56,4.06,161.55,184.0,0.0,0.0,0.0,0.0
1776452217018695954,64813,0.0,1.4,0.0,1.0,0.12,-0.14,40.81,-2.25,1.69,0.37,-0.05,-0.41,-1.56,0.19,-0.44,162.58,198.0,0.0,0.0,0.0,0.0
1776452217116997707,64914,0.0,0.4,0.0,1.4,0.12,-0.12,40.63,-2.31,1.56,-0.02,-0.09,-0.35,0.88,0.63,-3.06,165.84,191.0,0.0,0.0,0.0,0.0
1776452217215301201,65013,0.08,0.2,0.0,1.6,0.1,-0.02,40.31,-2.31,1.63,-0.29,-0.02,-0.41,0.94,-1.0,-2.31,165.84,191.0,0.0,0.0,0.0,0.0
1776452217317694157,65113,0.08,0.1,0.0,1.3,0.12,-0.16,40.25,-2.25,1.94,-0.16,-0.01,-0.37,-1.06,-1.06,0.12,161.55,196.0,0.0,0.0,0.0,0.0
1776452217429618702,65213,0.088,0.4,0.0,1.4,0.14,-0.23,40.38,-2.13,2.13,-0.26,0.02,-0.39,1.31,-0.69,3.13,165.15,191.0,0.0,0.0,0.0,0.0
1776452217518363310,65312,0.084,0.1,0.0,0.5,0.04,-0.04,40.75,-2.06,2.25,-0.13,0.03,-0.39,0.44,-0.94,3.5,165.33,191.0,0.0,0.0,0.0,0.0
1776452217616692081,65413,0.0,1.1,0.068,0.0,0.1,-0.14,41.0,-2.0,2.31,0.05,-0.03,-0.38,-0.25,-1.06,1.06,165.15,186.0,0.0,0.0,0.0,0.0
1776452217937626370,65513,0.084,0.1,0.0,0.8,0.1,0.08,41.0,-1.88,2.31,0.07,0.03,-0.46,1.81,-0.81,-0.56,166.36,186.0,0.0,0.0,0.0,0.0
1776452217951095515,65614,0.088,0.2,0.0,0.6,0.06,-0.16,40.94,-1.88,2.63,-0.15,0.02,-0.26,2.13,0.5,-0.12,164.47,193.0,0.0,0.0,0.0,0.0
1776452218018079163,65714,0.0,0.3,0.0,0.9,-0.04,-0.06,41.0,-1.88,2.69,0.0,0.02,-0.38,-0.44,0.44,2.06,164.64,191.0,0.0,0.0,0.0,0.0
1776452218030220046,65814,0.0,1.4,0.0,1.4,0.14,-0.14,41.38,-1.81,2.69,-0.12,0.06,-0.39,1.88,0.56,5.69,164.64,191.0,0.0,0.0,0.0,0.0
1776452218116387391,65913,0.0,0.7,0.076,0.4,0.02,-0.08,41.94,-1.88,3.0,-0.24,-0.06,-0.27,-1.37,0.5,5.81,164.64,194.0,0.0,0.0,0.0,0.0
1776452218218773710,66013,0.0,0.5,0.072,0.1,0.1,-0.12,42.5,-1.88,2.94,-0.13,0.01,-0.41,-0.19,0.12,4.44,164.64,199.0,0.0,0.0,0.0,0.0
1776452218317136345,66114,0.0,1.3,0.0,1.1,0.14,-0.08,42.88,-1.88,3.13,-0.35,-0.02,-0.34,-0.5,0.31,3.25,164.64,199.0,0.0,0.0,0.0,0.0
1776452218419443756,66213,0.0,0.6,0.076,0.6,0.1,0.02,43.25,-1.88,3.19,-0.14,0.05,-0.4,-0.06,0.06,4.0,165.15,188.0,0.0,0.0,0.0,0.0
1776452218521825853,66314,0.0,0.5,0.0,1.5,0.2,0.06,43.63,-1.88,3.44,-0.29,-0.0,-0.33,-1.0,0.88,4.5,165.15,200.0,0.0,0.0,0.0,0.0
1776452218620181229,66414,0.08,0.1,0.0,1.3,0.02,-0.14,44.19,-1.88,3.38,0.11,0.08,-0.35,-0.75,0.25,6.75,161.04,200.0,0.0,0.0,0.0,0.0
1776452218718481161,66513,0.0,0.1,0.0,1.7,0.02,-0.04,44.94,-1.88,3.31,0.15,0.06,-0.26,-0.25,1.31,8.0,161.04,189.0,0.0,0.0,0.0,0.0
1776452218816739000,66613,0.088,0.4,0.0,1.7,0.02,-0.06,45.88,-1.88,3.13,0.15,0.11,-0.36,-0.25,0.69,11.81,161.04,192.0,0.0,0.0,0.0,0.0
1776452218941621826,66713,0.0,0.3,0.0,0.9,0.02,-0.18,47.06,-2.0,3.25,-0.14,-0.08,-0.28,-0.06,2.13,11.94,161.04,192.0,0.0,0.0,0.0,0.0
1776452219017468099,66812,0.084,0.1,0.0,0.3,-0.02,-0.06,48.38,-2.0,3.19,-0.04,0.02,-0.33,0.25,0.44,13.63,161.04,194.0,0.0,0.0,0.0,0.0
1776452219119885595,66913,0.0,1.0,0.092,0.5,0.06,-0.02,49.56,-2.13,3.38,-0.3,-0.09,-0.33,0.37,1.44,11.31,161.04,194.0,0.0,0.0,0.0,0.0
1776452219218237984,67013,0.0,0.9,0.0,1.7,0.0,-0.04,50.56,-2.13,3.44,0.02,-0.01,-0.37,-1.5,-0.0,10.56,165.15,185.0,0.0,0.0,0.0,0.0
1776452219320546703,67113,0.084,1.0,0.072,0.6,0.02,0.06,51.56,-2.13,3.38,0.16,-0.0,-0.34,-1.94,0.37,10.94,165.84,187.0,0.0,0.0,0.0,0.0
1776452219418865480,67213,0.0,1.3,0.072,0.1,0.16,-0.2,52.88,-2.0,3.13,0.43,0.1,-0.36,-1.56,0.25,16.75,165.33,187.0,0.0,0.0,0.0,0.0
1776452219527202731,67313,0.0,0.6,0.084,0.5,0.04,-0.12,54.63,-2.0,3.06,0.06,-0.04,-0.26,-1.19,1.63,18.75,166.18,192.0,0.0,0.0,0.0,0.0
1776452219619562976,67414,0.0,0.9,0.0,0.2,0.04,-0.08,56.5,-2.0,3.0,0.0,-0.02,-0.41,-0.56,1.25,19.25,165.33,194.0,0.0,0.0,0.0,0.0
1776452219721970565,67514,0.0,1.3,0.0,1.3,0.0,0.08,58.38,-2.0,3.0,0.14,0.12,-0.35,-2.69,0.25,21.31,161.55,194.0,0.0,0.0,0.0,0.0
1776452219820324935,67615,0.084,0.1,0.064,0.5,0.04,-0.06,60.81,-1.94,2.88,0.14,0.09,-0.29,-1.5,2.13,27.44,161.55,205.0,0.0,0.0,0.0,0.0
1776452219922665376,67715,0.0,0.9,0.0,1.7,0.14,-0.08,64.0,-1.88,2.63,0.31,0.16,-0.37,-0.63,1.5,35.13,161.55,188.0,0.0,0.0,0.0,0.0
1776452220025065740,67816,0.0,1.4,0.06,0.2,0.06,-0.02,67.0,-2.0,2.69,-0.36,-0.16,-0.32,-0.19,2.06,25.5,165.15,188.0,0.0,0.0,0.0,0.0
1776452220123363901,67916,0.0,1.3,0.0,0.3,0.04,-0.04,68.81,-2.06,2.75,0.03,-0.07,-0.4,-3.0,-0.37,15.75,165.15,190.0,0.0,0.0,0.0,0.0
1776452220221626654,68017,0.0,0.6,0.084,0.4,0.02,-0.2,70.06,-2.06,2.88,-0.62,-0.09,-0.38,0.88,1.31,10.38,165.15,190.0,0.0,0.0,0.0,0.0
1776452220324049365,68117,0.08,0.2,0.0,1.3,0.02,-0.14,71.06,-2.06,2.94,-0.19,0.06,-0.37,-1.44,0.25,11.25,165.84,193.0,0.0,0.0,0.0,0.0
1776452220422405748,68217,0.08,0.1,0.08,0.3,0.12,-0.1,72.25,-2.13,3.0,-0.35,-0.02,-0.33,0.56,1.56,12.13,161.55,192.0,0.0,0.0,0.0,0.0
1776452220524707941,68317,0.0,1.5,0.084,0.3,0.1,0.0,73.44,-2.19,3.13,0.08,-0.0,-0.36,-2.75,0.63,13.0,165.67,192.0,0.0,0.0,0.0,0.0
1776452220623038472,68417,0.0,1.6,0.056,0.2,0.06,0.14,75.19,-2.13,2.94,0.32,0.22,-0.32,-0.63,0.94,22.62,166.36,188.0,0.0,0.0,0.0,0.0
1776452220721351169,68516,0.0,1.3,0.072,0.5,0.02,-0.16,77.69,-2.13,2.81,0.2,0.06,-0.3,-1.94,1.63,28.69,165.84,200.0,0.0,0.0,0.0,0.0
1776452220823755121,68616,0.08,0.9,0.064,0.5,0.04,0.08,80.31,-2.13,2.75,-0.09,-0.0,-0.37,-1.06,1.56,29.62,165.84,200.0,0.0,0.0,0.0,0.0
1776452220922024263,68717,0.0,1.0,0.0,1.4,0.2,0.12,83.06,-2.13,2.69,-0.03,-0.02,-0.35,-1.81,0.81,26.5,165.84,187.0,0.0,0.0,0.0,0.0
1776452221157621581,68816,0.088,0.1,0.0,0.1,0.06,-0.02,85.44,-2.13,2.69,-0.36,-0.1,-0.37,0.94,1.5,20.62,165.84,198.0,0.0,0.0,0.0,0.0
1776452221225161496,68916,0.0,1.3,0.08,0.4,0.12,-0.04,87.06,-2.19,2.94,-0.39,-0.04,-0.37,-1.56,0.56,14.06,165.84,198.0,0.0,0.0,0.0,0.0
1776452221237339684,69016,0.0,1.1,0.084,0.1,0.02,0.0,88.31,-2.19,3.13,-0.38,-0.01,-0.39,0.06,1.0,11.06,166.36,192.0,0.0,0.0,0.0,0.0
1776452221323452613,69116,0.0,1.3,0.0,1.1,0.16,-0.1,89.12,-2.25,3.38,0.14,-0.0,-0.38,-3.13,0.12,7.81,167.04,189.0,0.0,0.0,0.0,0.0
1776452221425829615,69217,0.1,0.6,0.092,0.3,0.06,0.04,89.94,-2.25,3.38,-0.17,0.05,-0.34,1.12,1.25,6.88,169.96,189.0,0.0,0.0,0.0,0.0
1776452221524096788,69318,0.0,0.2,0.0,1.1,0.06,0.0,91.0,-2.19,3.25,0.46,0.19,-0.34,-0.19,0.44,14.81,166.36,192.0,0.0,0.0,0.0,0.0
1776452221626623696,69419,0.0,0.2,0.0,1.6,0.08,-0.1,92.62,-2.19,3.06,0.47,0.12,-0.31,-3.44,0.44,21.75,166.36,192.0,0.0,0.0,0.0,0.0
1776452221724848925,69519,0.084,0.1,0.0,1.5,0.0,-0.2,95.12,-1.94,2.5,0.34,0.14,-0.36,-1.12,1.88,29.12,166.36,191.0,0.0,0.0,0.0,0.0
1776452221833203715,69618,0.088,0.1,0.0,1.4,0.0,-0.2,97.81,-2.0,2.56,-0.22,-0.11,-0.36,-0.12,1.31,23.5,165.84,187.0,0.0,0.0,0.0,0.0
1776452221925533265,69718,0.092,0.2,0.0,1.6,0.08,-0.16,99.75,-2.0,2.75,-0.35,-0.01,-0.35,-0.37,0.19,16.5,166.87,187.0,0.0,0.0,0.0,0.0
1776452222027919819,69819,0.0,1.3,0.076,0.3,0.06,0.1,101.19,-1.94,2.75,-0.1,0.03,-0.36,-1.37,0.06,14.56,165.84,183.0,0.0,0.0,0.0,0.0
1776452222126223671,69918,0.0,1.3,0.08,0.1,-0.02,-0.16,102.69,-1.88,2.81,-0.36,-0.0,-0.35,0.37,0.69,15.5,165.84,190.0,0.0,0.0,0.0,0.0
1776452222234599305,70018,0.0,0.2,0.0,0.3,-0.12,-0.08,104.06,-1.81,3.0,-0.09,0.03,-0.33,-2.06,0.06,13.56,165.67,190.0,0.0,0.0,0.0,0.0
1776452222326932129,70119,0.0,0.9,0.064,0.3,-0.06,-0.08,105.5,-1.75,2.88,0.13,0.09,-0.38,-0.44,0.31,15.75,165.84,192.0,0.0,0.0,0.0,0.0
1776452222425237537,70218,0.0,1.0,0.064,0.3,0.12,0.02,107.0,-1.69,2.88,0.27,0.04,-0.31,-2.31,0.06,16.0,165.67,192.0,0.0,0.0,0.0,0.0
1776452222527583569,70318,0.0,0.6,0.064,0.3,0.1,-0.1,108.69,-1.56,2.44,0.64,0.07,-0.35,-2.0,-0.06,18.31,166.36,200.0,0.0,0.0,0.0,0.0
1776452222625911125,70419,0.0,0.8,0.068,0.3,0.14,0.02,110.37,-1.44,2.31,0.05,-0.0,-0.29,2.31,0.31,15.25,165.84,201.0,0.0,0.0,0.0,0.0
1776452222728320601,70518,0.0,0.9,0.024,1.6,0.2,-0.2,111.56,-1.37,2.5,-0.27,0.04,-0.31,2.25,0.25,8.75,165.84,201.0,0.0,0.0,0.0,0.0
1776452222826613620,70619,0.0,1.4,0.0,1.1,0.0,-0.1,112.12,-1.37,2.63,-0.04,-0.06,-0.34,-0.88,-0.19,4.19,165.84,193.0,0.0,0.0,0.0,0.0
1776452222929017874,70719,0.0,0.9,0.092,0.3,0.06,-0.12,112.44,-1.37,2.81,-0.49,-0.01,-0.34,3.19,0.56,2.44,165.67,195.0,0.0,0.0,0.0,0.0
1776452223027319464,70819,0.0,0.6,0.08,0.1,-0.04,-0.14,112.62,-1.37,3.25,-0.38,-0.01,-0.33,-0.19,-0.12,2.13,165.84,195.0,0.0,0.0,0.0,0.0
1776452223125585552,70919,0.0,0.0,0.0,1.2,-0.14,-0.12,112.81,-1.37,3.38,-0.08,-0.0,-0.35,-0.69,-0.31,1.75,165.84,194.0,0.0,0.0,0.0,0.0
1776452223228004392,71019,0.092,0.1,0.0,1.4,0.0,-0.18,113.0,-1.37,3.56,-0.25,-0.0,-0.31,-0.5,0.06,2.44,165.84,193.0,0.0,0.0,0.0,0.0
1776452223326307294,71118,0.0,1.1,0.088,0.2,0.0,-0.12,113.31,-1.37,3.69,-0.27,0.07,-0.28,0.75,0.25,4.0,165.67,193.0,0.0,0.0,0.0,0.0
1776452223428686357,71218,0.0,1.3,0.084,0.3,0.1,-0.18,113.81,-1.31,3.69,0.11,0.05,-0.34,-1.63,-0.12,6.5,166.18,184.0,0.0,0.0,0.0,0.0
1776452223527009444,71319,0.0,1.3,0.088,0.2,0.1,-0.16,114.56,-1.25,3.69,-0.2,-0.0,-0.31,1.69,1.0,6.81,165.67,197.0,0.0,0.0,0.0,0.0
1776452223635376126,71418,0.0,1.4,0.0,0.5,0.1,-0.04,115.06,-1.25,3.88,-0.07,-0.06,-0.28,-1.25,0.12,4.38,165.15,197.0,0.0,0.0,0.0,0.0
1776452223727697817,71519,0.0,1.3,0.0,0.5,0.12,-0.12,115.44,-1.19,3.63,0.52,0.05,-0.34,-1.44,-0.69,3.94,165.84,198.0,0.0,0.0,0.0,0.0
1776452223826012201,71619,0.0,0.9,0.064,0.2,0.06,-0.14,115.87,-1.19,3.31,0.13,0.05,-0.28,-0.06,1.31,4.69,165.15,198.0,0.0,0.0,0.0,0.0
1776452223928402837,71718,0.0,0.7,0.068,0.9,0.0,-0.16,116.37,-1.25,3.25,0.16,0.04,-0.31,-1.31,0.88,6.75,166.18,191.0,0.0,0.0,0.0,0.0
1776452224036779697,71819,0.088,0.3,0.0,1.6,-0.02,-0.12,117.19,-1.25,3.0,0.58,0.19,-0.37,-1.25,1.19,10.06,161.55,185.0,0.0,0.0,0.0,0.0
1776452224129111921,71919,0.0,1.2,0.088,0.3,0.12,0.0,118.25,-1.31,2.94,-0.3,-0.05,-0.25,1.19,2.44,11.25,161.72,185.0,0.0,0.0,0.0,0.0
1776452224227400114,72018,0.0,1.2,0.08,0.3,-0.06,-0.02,119.44,-1.37,2.88,-0.14,-0.02,-0.37,-1.25,-0.75,12.0,165.67,204.0,0.0,0.0,0.0,0.0
1776452224325670697,72118,0.0,1.1,0.0,1.2,0.0,-0.18,120.5,-1.19,2.81,0.07,-0.01,-0.32,-3.94,-1.75,10.19,166.36,195.0,0.0,0.0,0.0,0.0
1776452224428100512,72218,0.084,0.3,0.0,1.1,0.08,-0.25,121.31,-1.06,2.88,-0.61,0.01,-0.34,3.31,-0.5,7.19,165.15,195.0,0.0,0.0,0.0,0.0
1776452224526365910,72318,0.0,1.2,0.0,0.3,0.0,0.04,121.87,-0.94,3.38,-0.48,0.03,-0.33,-1.44,-1.19,5.0,165.15,196.0,0.0,0.0,0.0,0.0
1776452224628782132,72418,0.0,0.2,0.0,1.8,0.18,-0.14,122.25,-0.81,3.94,-0.56,0.01,-0.34,0.12,-0.31,2.19,165.15,192.0,0.0,0.0,0.0,0.0
1776452224727084048,72519,0.088,0.5,0.104,0.4,-0.06,-0.02,122.37,-0.81,4.25,-0.12,0.05,-0.38,-1.5,-0.44,0.81,165.15,192.0,0.0,0.0,0.0,0.0
1776452224829487289,72619,0.0,1.3,0.096,0.5,0.06,-0.06,122.44,-0.81,4.5,-0.38,-0.06,-0.34,-0.69,-0.06,0.75,165.15,195.0,0.0,0.0,0.0,0.0
1776452224927759261,72719,0.0,0.5,0.0,0.9,0.02,-0.08,122.56,-0.75,4.38,0.65,0.04,-0.31,-3.94,-1.0,1.63,165.84,195.0,0.0,0.0,0.0,0.0
1776452225030198940,72820,0.0,0.9,0.096,0.5,0.18,-0.04,122.69,-0.75,4.44,-0.32,-0.03,-0.3,2.75,1.12,1.12,165.15,196.0,0.0,0.0,0.0,0.0
1776452225138565736,72920,0.0,0.9,0.076,0.5,0.04,-0.21,122.87,-0.69,4.25,0.38,-0.0,-0.3,-1.88,-0.94,2.25,166.36,190.0,0.0,0.0,0.0,0.0
1776452225230891493,73021,0.0,0.9,0.06,0.5,-0.02,-0.08,123.0,-0.63,3.81,0.26,0.07,-0.34,-0.56,-0.31,0.94,161.55,190.0,0.0,0.0,0.0,0.0
1776452225333286136,73121,0.0,0.8,0.064,0.3,0.04,-0.06,123.06,-0.63,3.75,0.34,0.01,-0.29,-2.69,-0.31,0.69,166.53,194.0,0.0,0.0,0.0,0.0
1776452225431589880,73222,0.0,1.0,0.0,0.5,-0.02,-0.06,123.12,-0.63,3.38,0.26,0.06,-0.36,-0.25,0.31,0.31,166.36,194.0,0.0,0.0,0.0,0.0
1776452225529822569,73322,0.08,0.2,0.0,1.5,0.14,-0.06,123.19,-0.56,3.25,0.14,0.02,-0.34,-1.31,-0.12,1.31,166.36,194.0,0.0,0.0,0.0,0.0
1776452225632273915,73421,0.08,0.3,0.0,1.3,0.02,-0.16,123.31,-0.56,3.06,0.11,-0.0,-0.32,-0.31,0.12,0.88,166.36,194.0,0.0,0.0,0.0,0.0
1776452225893620629,73521,0.084,1.1,0.056,0.5,0.12,-0.14,123.37,-0.56,2.88,0.2,0.07,-0.34,-0.19,0.06,1.06,166.87,197.0,0.0,0.0,0.0,0.0
1776452225931301045,73621,0.0,1.1,0.0,1.2,0.1,-0.06,123.56,-0.56,2.81,0.07,0.02,-0.33,-1.5,0.12,2.38,167.04,197.0,0.0,0.0,0.0,0.0
1776452225943964776,73722,0.088,0.3,0.0,1.1,0.04,-0.16,123.75,-0.56,2.75,-0.01,0.04,-0.28,0.81,0.69,1.94,167.04,191.0,0.0,0.0,0.0,0.0
1776452226033663793,73822,0.0,0.7,0.072,0.6,-0.06,-0.16,123.87,-0.56,2.69,0.11,-0.01,-0.35,-0.31,-0.31,0.94,166.87,195.0,0.0,0.0,0.0,0.0
1776452226131984310,73923,0.0,0.3,0.0,1.6,0.06,0.04,123.87,-0.56,2.69,-0.04,-0.0,-0.35,0.25,0.37,0.19,167.04,195.0,0.0,0.0,0.0,0.0
1776452226234364243,74022,0.088,1.1,0.0,1.2,-0.06,0.02,124.0,-0.56,2.63,0.25,0.02,-0.3,-1.19,-0.31,1.81,171.67,190.0,0.0,0.0,0.0,0.0
1776452226332637816,74123,0.08,0.5,0.0,1.3,0.06,0.0,124.19,-0.56,2.63,0.09,-0.0,-0.37,2.94,0.44,2.0,171.67,190.0,0.0,0.0,0.0,0.0
1776452226435033601,74223,0.092,0.3,0.088,0.3,0.14,-0.06,124.44,-0.56,3.0,-0.24,-0.01,-0.32,3.63,0.44,3.0,166.87,190.0,0.0,0.0,0.0,0.0
1776452226533325877,74322,0.0,1.4,0.08,0.3,0.06,-0.04,124.81,-0.5,3.25,0.0,0.01,-0.34,1.06,-0.31,4.94,171.16,193.0,0.0,0.0,0.0,0.0
1776452226631658783,74422,0.0,1.5,0.0,0.9,0.12,-0.02,125.31,-0.5,3.44,-0.06,-0.0,-0.33,2.75,-0.0,4.06,171.16,193.0,0.0,0.0,0.0,0.0
1776452226734065975,74522,0.0,1.1,0.092,0.4,0.12,0.0,125.62,-0.5,3.69,0.06,-0.01,-0.33,1.06,-0.31,2.56,167.04,185.0,0.0,0.0,0.0,0.0
1776452227101631380,74621,0.0,1.0,0.076,0.4,0.08,-0.12,125.81,-0.44,3.94,-0.16,-0.0,-0.3,4.06,-0.06,1.88,166.87,190.0,0.0,0.0,0.0,0.0
1776452227131398688,74721,0.0,1.0,0.0,1.4,0.2,0.04,126.0,-0.44,4.0,0.22,-0.0,-0.34,-1.06,-0.75,2.31,166.87,190.0,0.0,0.0,0.0,0.0
1776452227144137117,74821,0.08,0.0,0.0,1.3,0.04,-0.12,126.19,-0.37,4.13,-0.13,-0.0,-0.36,3.81,0.56,0.88,166.36,191.0,0.0,0.0,0.0,0.0
1776452227157725062,74920,0.0,1.3,0.088,0.2,0.18,0.06,126.19,-0.44,4.5,-0.14,-0.08,-0.29,-0.69,-0.44,-0.56,166.36,191.0,0.0,0.0,0.0,0.0
1776452227239728192,75020,0.0,0.3,0.024,0.3,0.06,0.04,126.19,-0.37,4.44,0.27,0.05,-0.38,1.37,-0.19,0.63,166.36,193.0,0.0,0.0,0.0,0.0
1776452227332048535,75120,0.0,0.8,0.088,0.3,0.06,-0.1,126.25,-0.37,4.5,-0.01,0.01,-0.36,1.5,-0.19,1.19,166.36,197.0,0.0,0.0,0.0,0.0
1776452227430369622,75219,0.0,1.0,0.0,1.5,0.1,-0.02,126.31,-0.37,4.69,-0.19,-0.05,-0.28,-1.63,-0.56,0.75,165.84,197.0,0.0,0.0,0.0,0.0
1776452227532738549,75319,0.084,0.2,0.0,0.2,-0.02,-0.1,126.37,-0.25,4.5,0.39,0.1,-0.39,-0.31,-1.12,0.19,165.67,186.0,0.0,0.0,0.0,0.0
1776452227631081080,75419,0.0,0.3,0.0,1.2,0.04,-0.12,126.37,-0.25,4.56,-0.14,-0.05,-0.22,-2.38,-0.06,-0.12,165.84,187.0,0.0,0.0,0.0,0.0
1776452227729360092,75518,0.0,1.5,0.084,0.5,0.0,0.04,126.31,-0.19,4.38,0.12,0.08,-0.32,1.37,0.12,-1.31,161.55,187.0,0.0,0.0,0.0,0.0
1776452227831750927,75618,0.0,1.3,0.088,0.2,0.04,-0.04,126.25,-0.19,4.31,0.12,-0.04,-0.37,-1.5,-0.63,-0.06,165.67,196.0,0.0,0.0,0.0,0.0
1776452227930056161,75718,0.0,0.9,0.08,0.3,0.18,-0.1,126.25,-0.19,4.38,-0.08,-0.05,-0.29,-1.37,-0.12,-0.44,165.67,190.0,0.0,0.0,0.0,0.0
1776452228028344430,75817,0.0,0.2,0.0,1.4,-0.1,-0.18,126.25,-0.12,4.25,0.04,0.04,-0.36,1.0,-0.19,0.81,165.84,190.0,0.0,0.0,0.0,0.0
1776452228130748556,75917,0.088,0.3,0.0,1.5,0.12,0.1,126.37,-0.12,4.13,0.22,-0.0,-0.36,-2.69,-1.12,1.81,166.36,201.0,0.0,0.0,0.0,0.0
1776452228229037841,76017,0.084,0.0,0.0,1.6,0.16,-0.14,126.56,-0.0,4.06,0.07,0.02,-0.36,-0.94,-0.37,1.5,166.36,194.0,0.0,0.0,0.0,0.0
1776452228327355960,76116,0.0,1.2,0.084,0.5,0.23,-0.1,126.69,-0.0,4.0,0.0,0.01,-0.33,-0.81,-0.5,1.37,163.27,194.0,0.0,0.0,0.0,0.0
1776452228429745956,76217,0.0,1.3,0.0,1.3,0.16,-0.12,126.81,-0.0,3.88,-0.01,0.07,-0.35,-0.94,-0.0,1.44,162.24,189.0,0.0,0.0,0.0,0.0
1776452228532086711,76318,0.0,1.0,0.084,0.3,0.16,-0.06,127.0,-0.0,3.81,0.03,0.01,-0.31,-0.69,-0.25,2.69,162.07,189.0,0.0,0.0,0.0,0.0
1776452228630432312,76418,0.0,1.1,0.0,1.6,0.08,-0.02,127.31,0.06,3.56,0.58,0.04,-0.32,-2.31,-1.19,3.31,166.36,206.0,0.0,0.0,0.0,0.0
1776452228728734986,76518,0.092,0.2,0.0,1.4,0.12,0.02,127.56,0.19,3.56,-0.12,0.02,-0.28,1.81,-0.19,2.69,166.36,192.0,0.0,0.0,0.0,0.0
1776452228831137334,76617,0.1,0.7,0.088,0.1,0.1,0.02,127.81,0.25,3.5,0.11,0.01,-0.36,-1.25,-1.12,1.44,166.87,192.0,0.0,0.0,0.0,0.0
1776452228929407749,76718,0.0,1.3,0.0,1.2,0.06,0.0,127.94,0.31,3.38,0.34,0.07,-0.33,-1.37,-0.63,2.44,171.67,201.0,0.0,0.0,0.0,0.0
1776452229031829127,76818,0.0,1.1,0.088,0.5,0.1,-0.12,128.25,0.37,3.38,-0.18,0.06,-0.31,1.31,0.5,3.38,171.67,197.0,0.0,0.0,0.0,0.0
1776452229130139446,76918,0.0,0.1,0.0,0.3,-0.02,-0.06,128.63,0.37,3.44,0.21,0.02,-0.33,-1.75,-0.5,3.75,172.36,197.0,0.0,0.0,0.0,0.0
1776452229232531195,77018,0.0,1.4,0.088,0.3,0.18,0.04,128.94,0.44,3.44,-0.03,0.09,-0.33,2.69,0.75,3.19,172.36,193.0,0.0,0.0,0.0,0.0
1776452229330839458,77118,0.0,1.3,0.0,1.1,0.06,-0.06,129.25,0.37,3.75,0.05,-0.07,-0.25,-0.25,0.56,3.44,172.36,193.0,0.0,0.0,0.0,0.0
1776452229429092277,77218,0.092,0.3,0.0,1.2,0.08,-0.14,129.63,0.44,3.63,0.26,0.19,-0.39,4.19,0.63,4.25,172.19,192.0,0.0,0.0,0.0,0.0
1776452229531483952,77318,0.076,0.9,0.084,0.4,0.12,-0.04,130.06,0.37,3.94,-0.15,0.12,-0.33,2.25,2.06,4.81,172.36,192.0,0.0,0.0,0.0,0.0
1776452229629838659,77418,0.0,0.7,0.052,0.5,0.1,0.0,130.56,0.25,4.06,0.28,-0.02,-0.38,-1.69,0.81,4.25,172.19,192.0,0.0,0.0,0.0,0.0
1776452229732221465,77518,0.0,1.2,0.076,0.0,-0.08,0.04,130.88,0.19,4.0,0.0,0.11,-0.44,4.63,1.88,1.75,171.67,193.0,0.0,0.0,0.0,0.0
1776452229834614307,77619,0.0,0.1,0.092,0.7,0.0,0.0,130.94,-0.0,4.5,-0.23,-0.15,-0.36,-0.5,1.12,0.37,167.56,196.0,0.0,0.0,0.0,0.0
1776452229932913977,77719,0.0,0.7,0.0,1.4,-0.04,-0.06,130.94,-0.0,4.44,0.19,-0.0,-0.44,1.44,0.19,-0.88,171.67,196.0,0.0,0.0,0.0,0.0
1776452230031218567,77818,0.088,0.2,0.0,1.4,0.1,0.1,130.81,-0.06,4.75,-0.27,0.01,-0.32,3.94,0.5,-1.31,166.87,198.0,0.0,0.0,0.0,0.0
1776452230133628497,77918,0.0,0.2,0.0,1.0,0.08,-0.08,130.75,-0.06,5.0,-0.16,-0.03,-0.36,2.13,0.81,0.63,166.87,189.0,0.0,0.0,0.0,0.0
1776452230231912978,78018,0.0,1.0,0.092,0.3,0.16,-0.08,130.88,-0.19,5.44,-0.66,-0.03,-0.34,1.94,0.69,0.81,166.36,189.0,0.0,0.0,0.0,0.0
1776452230330209310,78117,0.0,1.1,0.092,0.2,0.04,0.0,130.88,-0.25,6.06,-0.52,-0.01,-0.37,1.06,-0.0,0.31,166.36,195.0,0.0,0.0,0.0,0.0
1776452230432618648,78218,0.0,0.3,0.088,0.6,0.04,-0.35,130.88,-0.25,6.31,0.03,-0.0,-0.34,-1.31,-0.12,0.12,166.36,193.0,0.0,0.0,0.0,0.0
1776452230530871703,78318,0.064,0.2,0.0,1.4,-0.08,-0.14,131.0,-0.19,6.25,0.11,0.04,-0.31,-0.06,-0.06,2.44,165.84,193.0,0.0,0.0,0.0,0.0
1776452230629196776,78417,0.096,0.4,0.0,1.2,0.18,-0.04,131.38,-0.19,6.06,0.45,0.06,-0.31,-1.19,-0.06,4.13,165.84,190.0,0.0,0.0,0.0,0.0
1776452230731618280,78517,0.0,0.9,0.084,0.3,0.0,-0.12,131.81,-0.06,5.88,0.24,0.06,-0.31,2.25,0.44,4.44,165.67,190.0,0.0,0.0,0.0,0.0
1776452230829893261,78618,0.0,1.0,0.092,0.2,0.02,-0.02,132.19,-0.06,5.88,0.37,-0.0,-0.3,-2.06,-0.37,3.75,165.84,193.0,0.0,0.0,0.0,0.0
1776452230932297209,78717,0.0,0.9,0.1,0.2,0.12,-0.04,132.56,-0.0,5.69,0.23,-0.0,-0.32,0.81,0.19,3.81,165.67,200.0,0.0,0.0,0.0,0.0
1776452231040685871,78818,0.0,0.9,0.088,0.6,0.08,-0.02,132.88,-0.0,5.5,0.44,-0.06,-0.27,-2.44,-0.75,2.88,165.33,200.0,0.0,0.0,0.0,0.0
1776452231132998258,78918,0.0,0.2,0.0,1.5,0.06,-0.1,133.06,0.06,5.25,0.33,0.02,-0.35,1.56,-0.06,1.06,165.33,195.0,0.0,0.0,0.0,0.0
1776452231231307401,79017,0.084,0.3,0.084,1.2,0.1,0.0,133.13,0.06,5.25,0.14,-0.02,-0.37,-0.56,-0.25,0.37,165.15,186.0,0.0,0.0,0.0,0.0
1776452231329626989,79117,0.096,1.1,0.092,0.3,0.04,0.08,133.13,0.12,5.25,0.03,-0.01,-0.32,-1.0,-0.69,0.44,165.15,186.0,0.0,0.0,0.0,0.0
1776452231431966396,79217,0.0,1.4,0.084,0.5,0.04,-0.08,133.13,0.19,5.06,0.25,0.04,-0.34,-1.44,-0.31,0.19,166.18,197.0,0.0,0.0,0.0,0.0
1776452231534364524,79318,0.0,1.1,0.104,0.6,0.0,-0.14,133.13,0.19,5.0,-0.22,-0.1,-0.39,0.44,-1.37,0.44,165.67,193.0,0.0,0.0,0.0,0.0
1776452231632686075,79419,0.0,0.2,0.0,1.6,0.04,-0.16,133.13,0.37,5.25,-0.43,0.03,-0.33,-0.94,-1.25,-1.56,165.67,193.0,0.0,0.0,0.0,0.0
1776452231735079796,79519,0.1,0.4,0.0,1.7,0.16,-0.08,132.81,0.44,5.19,-0.07,0.04,-0.39,-0.12,-0.56,-2.69,165.84,201.0,0.0,0.0,0.0,0.0
1776452231833394181,79619,0.0,1.3,0.088,0.2,0.16,-0.04,132.75,0.44,5.19,0.05,0.04,-0.27,-2.25,-0.5,1.06,165.84,201.0,0.0,0.0,0.0,0.0
1776452231931686324,79719,0.0,0.0,0.0,1.1,0.1,-0.1,132.88,0.5,5.06,0.17,0.03,-0.33,0.25,-0.31,0.88,165.84,193.0,0.0,0.0,0.0,0.0
1776452232034083724,79818,0.0,0.1,0.048,0.4,0.1,-0.02,132.88,0.5,4.88,0.33,0.02,-0.31,-1.75,-0.25,0.44,165.67,184.0,0.0,0.0,0.0,0.0
1776452232132390160,79918,0.0,0.3,0.0,1.5,-0.06,0.02,132.88,0.5,4.69,-0.01,0.02,-0.32,-0.31,0.25,0.69,165.84,184.0,0.0,0.0,0.0,0.0
1776452232230688318,80018,0.064,0.3,0.0,1.3,0.04,-0.1,133.0,0.56,4.63,0.0,-0.0,-0.31,-0.88,-0.75,1.19,165.84,196.0,0.0,0.0,0.0,0.0
1776452232333104164,80117,0.084,0.3,0.088,0.4,0.18,-0.08,133.06,0.56,4.5,0.09,0.03,-0.36,-2.25,-0.63,0.44,162.24,189.0,0.0,0.0,0.0,0.0
1776452232431414989,80217,0.0,0.8,0.0,1.6,0.08,0.0,133.06,0.56,4.38,-0.03,0.07,-0.28,-1.31,0.88,-0.63,166.36,189.0,0.0,0.0,0.0,0.0
1776452232539718960,80317,0.0,1.1,0.0,1.1,0.04,-0.06,133.0,0.44,4.44,-0.19,-0.0,-0.3,-1.5,1.56,-1.0,166.87,192.0,0.0,0.0,0.0,0.0
1776452232632051215,80416,0.0,0.1,0.0,1.5,-0.02,-0.14,132.88,0.37,4.31,0.05,0.05,-0.31,-0.81,0.75,-1.06,166.87,185.0,0.0,0.0,0.0,0.0
1776452232730380892,80516,0.0,0.6,0.0,1.2,0.0,-0.02,132.88,0.25,4.25,0.13,0.02,-0.35,-1.25,1.0,-0.5,171.16,185.0,0.0,0.0,0.0,0.0
1776452232832785053,80616,0.072,0.2,0.0,1.5,0.14,-0.14,132.88,0.12,4.19,-0.04,0.03,-0.3,-0.63,1.69,-0.44,166.87,192.0,0.0,0.0,0.0,0.0
1776452232931073674,80715,0.0,0.2,0.0,1.0,0.02,-0.06,132.88,0.06,4.13,0.18,0.01,-0.29,-0.69,1.25,0.31,166.87,192.0,0.0,0.0,0.0,0.0
1776452233029351605,80815,0.06,0.2,0.0,1.1,-0.04,-0.12,132.94,-0.0,3.81,0.2,0.09,-0.31,0.25,1.69,0.25,166.87,210.0,0.0,0.0,0.0,0.0
1776452233137761644,80915,0.092,0.0,0.0,1.1,0.04,0.0,132.94,-0.12,3.81,-0.18,-0.0,-0.29,1.31,2.25,0.94,162.24,191.0,0.0,0.0,0.0,0.0
1776452233230063194,81014,0.088,0.4,0.0,1.0,0.02,-0.02,133.0,-0.19,3.69,0.54,-0.09,-0.31,-2.69,0.12,-0.06,166.36,191.0,0.0,0.0,0.0,0.0
1776452233332438628,81115,0.0,0.6,0.0,1.6,0.08,0.08,133.0,-0.19,3.25,0.3,0.1,-0.37,1.19,1.0,-0.5,166.36,193.0,0.0,0.0,0.0,0.0
1776452233430735431,81216,0.08,0.2,0.08,0.3,0.23,0.02,132.94,-0.25,3.25,0.15,-0.01,-0.34,-2.13,-0.06,-0.63,162.07,183.0,0.0,0.0,0.0,0.0
1776452233529028919,81315,0.0,1.5,0.088,0.3,0.0,-0.06,132.88,-0.25,3.19,-0.2,-0.04,-0.3,-0.75,0.37,-0.75,165.67,183.0,0.0,0.0,0.0,0.0
1776452233631476926,81415,0.0,0.6,0.0,1.0,-0.04,-0.12,132.88,-0.25,2.94,0.3,-0.01,-0.29,-2.75,-0.88,0.5,166.36,195.0,0.0,0.0,0.0,0.0
1776452233729761933,81515,0.0,1.3,0.072,0.3,0.12,-0.14,132.94,-0.25,2.75,0.11,0.02,-0.31,-1.0,0.06,0.94,166.36,196.0,0.0,0.0,0.0,0.0
1776452233832155941,81615,0.0,0.1,0.0,1.1,0.02,0.02,133.06,-0.25,2.69,-0.19,0.01,-0.3,-0.75,-0.31,2.0,161.55,196.0,0.0,0.0,0.0,0.0
1776452233930460485,81715,0.084,0.1,0.0,1.3,0.0,0.02,133.19,-0.19,2.56,0.22,-0.0,-0.24,-3.06,-0.94,0.75,166.18,192.0,0.0,0.0,0.0,0.0
1776452234028739857,81815,0.096,0.0,0.0,0.3,0.12,-0.12,133.19,-0.12,2.38,-0.16,0.06,-0.35,2.13,0.37,-0.5,165.67,192.0,0.0,0.0,0.0,0.0
1776452234131153435,81914,0.0,0.9,0.068,0.6,0.0,0.0,133.13,-0.19,2.44,-0.29,-0.07,-0.36,-2.5,-0.19,-1.31,165.67,189.0,0.0,0.0,0.0,0.0
1776452234229455919,82014,0.0,0.5,0.068,0.5,0.0,0.02,132.94,-0.19,2.38,0.01,-0.01,-0.35,-2.44,-0.37,-2.94,165.67,198.0,0.0,0.0,0.0,0.0
1776452234331856108,82114,0.0,0.7,0.0,1.7,0.0,0.02,132.69,-0.25,2.25,-0.05,0.04,-0.37,-0.12,-0.19,-1.37,165.67,198.0,0.0,0.0,0.0,0.0
1776452234430153056,82213,0.068,0.5,0.0,1.2,0.02,-0.16,132.63,-0.19,2.25,-0.08,-0.04,-0.36,-1.37,-0.81,-0.31,166.36,190.0,0.0,0.0,0.0,0.0
1776452234528397800,82313,0.068,0.1,0.0,1.5,-0.06,-0.04,132.63,-0.12,2.25,-0.18,0.01,-0.3,-0.56,-0.81,-0.94,165.67,188.0,0.0,0.0,0.0,0.0
1776452234630848970,82414,0.0,1.3,0.076,0.2,0.02,0.0,132.5,-0.0,2.19,-0.05,0.03,-0.37,-0.5,-0.88,-0.63,165.67,188.0,0.0,0.0,0.0,0.0
1776452234729151936,82513,0.0,1.4,0.0,0.9,0.0,-0.08,132.5,-0.0,2.25,0.02,-0.0,-0.32,-1.63,-0.88,-0.06,165.67,194.0,0.0,0.0,0.0,0.0
1776452234831534384,82614,0.0,0.6,0.056,0.5,0.1,-0.12,132.38,0.06,2.13,0.08,-0.0,-0.33,0.25,-0.56,-2.38,165.84,191.0,0.0,0.0,0.0,0.0
1776452234929846609,82714,0.0,0.9,0.064,0.3,0.1,-0.08,132.19,0.06,2.13,0.09,0.05,-0.31,-0.5,-0.31,-2.13,161.55,191.0,0.0,0.0,0.0,0.0
1776452235038203952,82813,0.0,0.1,0.0,1.3,0.2,-0.12,132.0,0.06,2.0,0.29,0.02,-0.32,-1.19,-0.5,-0.69,166.36,193.0,0.0,0.0,0.0,0.0
1776452235130541108,82914,0.088,0.3,0.0,1.4,0.04,-0.12,132.06,0.12,1.69,0.21,0.07,-0.41,1.44,-0.37,1.44,165.67,193.0,0.0,0.0,0.0,0.0
1776452235228826237,83014,0.068,1.1,0.0,0.2,0.02,-0.08,132.19,0.12,1.75,0.05,-0.0,-0.29,-3.25,-0.69,1.06,166.36,198.0,0.0,0.0,0.0,0.0
1776452235331244811,83113,0.0,0.3,0.0,1.5,0.02,-0.08,132.31,0.25,1.56,0.31,0.09,-0.37,1.31,-0.44,1.37,166.87,191.0,0.0,0.0,0.0,0.0
1776452235433627829,83214,0.0,1.4,0.072,0.5,0.02,-0.14,132.5,0.31,1.44,0.38,-0.0,-0.32,-2.38,-0.94,3.31,165.67,191.0,0.0,0.0,0.0,0.0
1776452235531897273,83314,0.0,1.1,0.0,1.2,-0.08,-0.02,132.88,0.37,1.06,0.19,0.04,-0.28,0.75,-0.63,4.06,165.67,186.0,0.0,0.0,0.0,0.0
1776452235630230865,83414,0.084,0.1,0.0,1.2,0.25,-0.08,133.19,0.56,0.75,0.48,0.06,-0.36,-0.5,-1.12,2.56,165.84,195.0,0.0,0.0,0.0,0.0
1776452235732636365,83514,0.096,0.3,0.0,1.2,0.02,-0.12,133.44,0.63,0.81,-0.32,0.05,-0.31,3.88,-0.37,2.06,161.55,195.0,0.0,0.0,0.0,0.0
1776452235830928031,83615,0.0,0.9,0.092,0.2,0.1,0.04,133.56,0.69,1.25,-0.38,-0.0,-0.37,0.44,-0.31,0.5,165.84,186.0,0.0,0.0,0.0,0.0
1776452235933329271,83715,0.0,1.0,0.0,1.5,0.0,-0.2,133.5,0.69,1.56,-0.34,0.01,-0.35,1.63,0.19,-1.88,165.67,188.0,0.0,0.0,0.0,0.0
1776452236035738116,83816,0.092,1.2,0.08,0.6,-0.02,-0.04,133.31,0.69,1.88,-0.06,0.02,-0.34,0.37,-0.56,-1.19,166.36,188.0,0.0,0.0,0.0,0.0
1776452236134019890,83916,0.0,1.2,0.1,0.2,0.02,0.0,133.31,0.75,2.0,-0.07,0.05,-0.37,1.37,0.12,1.25,166.36,194.0,0.0,0.0,0.0,0.0
1776452236232322979,84016,0.0,1.5,0.084,0.1,0.12,-0.02,133.5,0.75,2.25,-0.13,0.02,-0.34,2.06,0.5,3.0,166.36,194.0,0.0,0.0,0.0,0.0
1776452236334684123,84116,0.0,1.2,0.064,0.5,0.0,-0.18,133.88,0.75,2.31,0.35,0.02,-0.4,-0.25,-0.25,4.31,167.38,192.0,0.0,0.0,0.0,0.0
1776452236432980620,84216,0.0,1.2,0.0,0.2,0.08,-0.1,134.25,0.81,2.56,-0.04,-0.0,-0.27,3.56,0.19,3.06,165.84,179.0,0.0,0.0,0.0,0.0
1776452236535400152,84316,0.0,0.6,0.08,0.4,0.02,-0.06,134.31,0.88,2.63,0.32,-0.03,-0.4,1.25,-1.31,-2.69,166.36,179.0,0.0,0.0,0.0,0.0
1776452236633713778,84416,0.0,0.3,0.0,1.5,0.08,-0.18,133.75,0.88,3.06,-0.24,0.05,-0.33,7.13,0.37,-6.38,165.67,188.0,0.0,0.0,0.0,0.0
1776452236742054690,84516,0.0,0.5,0.0,0.5,0.06,-0.14,133.25,0.81,3.44,0.0,-0.05,-0.34,-0.81,0.12,-3.88,165.67,193.0,0.0,0.0,0.0,0.0
1776452237017620232,84616,0.0,1.0,0.076,0.2,-0.02,-0.06,133.13,0.81,3.63,-0.18,0.05,-0.35,2.63,0.94,0.44,165.84,193.0,0.0,0.0,0.0,0.0
1776452237030974203,84716,0.0,0.4,0.084,0.3,0.08,0.0,133.31,0.75,3.81,-0.24,0.04,-0.35,1.75,1.0,2.69,165.67,191.0,0.0,0.0,0.0,0.0
1776452237043612436,84815,0.0,1.6,0.08,0.2,0.04,-0.14,133.56,0.69,4.0,-0.1,-0.0,-0.37,-0.63,0.37,2.5,165.84,192.0,0.0,0.0,0.0,0.0
1776452237133380768,84915,0.0,1.4,0.104,0.5,-0.08,-0.04,133.75,0.69,4.25,-0.33,-0.0,-0.33,-0.25,0.5,1.44,165.84,192.0,0.0,0.0,0.0,0.0
1776452237235807353,85016,0.0,1.1,0.092,0.8,-0.02,-0.14,133.88,0.69,4.31,-0.04,0.05,-0.35,-0.88,-0.25,1.5,165.67,189.0,0.0,0.0,0.0,0.0
1776452237334098254,85115,0.0,0.3,0.0,1.3,0.16,-0.06,134.0,0.69,4.5,-0.08,-0.05,-0.33,-2.13,0.25,1.31,165.84,201.0,0.0,0.0,0.0,0.0
1776452237436472375,85216,0.0,0.9,0.088,0.4,0.18,0.0,134.13,0.69,4.38,0.17,0.01,-0.34,-1.5,-0.25,1.75,165.67,201.0,0.0,0.0,0.0,0.0
1776452237534799202,85316,0.0,0.9,0.1,0.3,0.06,0.06,134.38,0.69,4.25,0.19,0.01,-0.32,-1.5,0.06,2.88,165.67,190.0,0.0,0.0,0.0,0.0
1776452237633095047,85416,0.0,-0.1,0.0,1.6,0.1,-0.02,134.69,0.75,4.06,0.07,0.02,-0.36,0.44,0.5,3.63,165.84,190.0,0.0,0.0,0.0,0.0
1776452237735498761,85516,0.092,0.5,0.092,0.6,0.1,-0.06,135.13,0.75,3.88,0.31,-0.0,-0.33,-1.12,-0.0,5.25,166.36,188.0,0.0,0.0,0.0,0.0
1776452237833784347,85616,0.0,-0.2,0.0,1.1,0.18,-0.16,135.69,0.81,3.75,0.08,-0.0,-0.29,0.5,0.69,5.38,165.67,184.0,0.0,0.0,0.0,0.0
1776452237932083063,85715,0.0,0.4,0.0,1.2,-0.04,0.04,136.13,0.81,3.56,0.41,-0.0,-0.35,-2.0,-0.37,4.81,166.36,184.0,0.0,0.0,0.0,0.0
1776452238034489919,85815,0.08,0.0,0.0,1.2,-0.1,0.02,136.5,0.81,3.44,-0.1,0.01,-0.35,0.19,0.44,3.0,165.67,187.0,0.0,0.0,0.0,0.0
1776452238132799465,85915,0.076,0.3,0.0,1.1,0.04,-0.14,136.81,0.81,3.38,0.44,-0.12,-0.33,-4.06,-0.44,2.75,165.67,191.0,0.0,0.0,0.0,0.0
1776452238235192916,86016,0.096,0.2,0.0,1.1,0.0,0.02,137.06,0.81,3.38,-0.01,-0.07,-0.35,2.38,0.69,2.63,165.84,191.0,0.0,0.0,0.0,0.0
1776452238333492166,86116,0.088,0.3,0.0,1.2,-0.02,-0.04,137.31,0.81,3.38,0.05,-0.01,-0.37,0.37,-0.12,2.0,165.84,209.0,0.0,0.0,0.0,0.0
1776452238435844932,86215,0.0,0.7,0.088,0.3,0.1,0.0,137.38,0.88,3.44,0.3,-0.05,-0.28,-1.37,-0.37,-0.25,163.95,179.0,0.0,0.0,0.0,0.0
1776452238534157367,86315,0.0,0.9,0.0,1.6,0.02,-0.04,137.38,0.88,3.38,0.01,0.05,-0.34,4.06,-0.19,0.06,165.15,179.0,0.0,0.0,0.0,0.0
1776452238632499580,86415,0.092,0.1,0.0,1.5,0.0,-0.04,137.44,0.88,3.63,0.11,-0.07,-0.34,-0.69,-0.31,0.56,165.15,197.0,0.0,0.0,0.0,0.0
1776452238734884124,86514,0.092,1.1,0.092,0.5,0.23,0.0,137.44,1.0,3.63,0.15,-0.03,-0.31,1.0,-1.06,-0.44,166.87,197.0,0.0,0.0,0.0,0.0
1776452238833166633,86615,0.0,1.1,0.0,0.3,0.04,-0.14,137.5,1.06,3.69,0.18,0.04,-0.32,1.06,-0.69,1.81,165.67,197.0,0.0,0.0,0.0,0.0
1776452238935577991,86715,0.0,0.5,0.0,0.5,0.06,-0.1,137.75,1.19,3.81,0.0,-0.03,-0.23,1.19,-1.12,2.81,166.87,200.0,0.0,0.0,0.0,0.0
1776452239033876384,86815,0.0,0.0,0.04,0.4,-0.02,-0.29,137.88,1.31,3.81,-0.02,-0.13,-0.42,0.75,-1.69,0.37,162.07,200.0,0.0,0.0,0.0,0.0
1776452239161629139,86915,0.0,0.1,0.0,1.6,0.12,0.02,137.81,1.5,4.06,-0.5,-0.03,-0.32,-1.06,-1.81,-3.38,166.36,199.0,0.0,0.0,0.0,0.0
1776452239234573671,87015,0.0,1.4,0.0,1.3,-0.06,-0.12,137.31,1.63,4.38,-0.4,0.08,-0.36,-0.75,-0.19,-5.63,166.36,198.0,0.0,0.0,0.0,0.0
1776452239332887622,87114,0.092,0.2,0.096,0.1,0.1,-0.23,136.94,1.63,4.5,-0.08,-0.04,-0.42,-1.0,-0.0,-1.12,166.36,198.0,0.0,0.0,0.0,0.0
1776452239435218700,87214,0.0,1.0,0.08,0.2,0.02,-0.06,136.94,1.63,4.63,-0.12,-0.09,-0.34,-3.38,-0.06,1.44,166.87,195.0,0.0,0.0,0.0,0.0
1776452239533576428,87315,0.0,1.5,0.088,0.5,0.18,-0.12,137.25,1.69,4.38,0.22,-0.0,-0.3,-0.25,-0.12,3.31,166.36,199.0,0.0,0.0,0.0,0.0
1776452239635991209,87415,0.0,1.0,0.068,0.7,0.14,-0.18,137.56,1.69,4.13,0.73,-0.01,-0.35,-2.44,-0.75,4.0,166.36,199.0,0.0,0.0,0.0,0.0
1776452239917622504,87515,0.0,1.1,0.0,1.5,0.0,-0.06,137.88,1.69,4.19,-0.24,-0.07,-0.29,-0.37,1.0,1.94,166.36,190.0,0.0,0.0,0.0,0.0
1776452239934965263,87615,0.0,0.3,0.0,0.3,0.16,-0.18,138.06,1.69,4.0,0.16,-0.0,-0.31,-1.37,-0.12,1.94,166.87,190.0,0.0,0.0,0.0,0.0
1776452239948631578,87714,0.0,0.8,0.088,0.6,0.18,-0.18,138.38,1.69,3.75,0.53,0.12,-0.33,-0.31,0.44,4.44,166.87,191.0,0.0,0.0,0.0,0.0
1776452240033214357,87814,0.0,1.1,0.076,0.4,0.06,-0.06,138.75,1.56,3.56,0.13,-0.0,-0.31,-3.0,1.63,3.0,167.56,201.0,0.0,0.0,0.0,0.0
1776452240135649727,87915,0.096,0.0,0.0,1.8,0.04,-0.08,138.94,1.44,3.31,-0.03,0.05,-0.31,-0.44,1.31,0.12,172.19,201.0,0.0,0.0,0.0,0.0
1776452240233953324,88014,0.0,1.3,0.0,1.1,0.21,-0.04,138.88,1.31,3.25,0.22,-0.05,-0.32,-2.69,0.75,-0.12,172.87,203.0,0.0,0.0,0.0,0.0
1776452240336366934,88114,0.1,0.2,0.0,1.3,0.02,-0.04,138.94,1.19,3.13,-0.02,0.03,-0.34,0.25,2.25,1.31,169.27,194.0,0.0,0.0,0.0,0.0
1776452240434620457,88215,0.096,0.1,0.0,1.2,0.0,0.02,139.19,0.94,3.13,0.18,-0.08,-0.33,-1.56,1.69,3.06,169.27,194.0,0.0,0.0,0.0,0.0
1776452240537011217,88314,0.0,0.4,0.092,0.3,0.02,-0.2,139.5,0.88,3.0,0.15,0.09,-0.37,2.19,2.44,3.06,169.27,197.0,0.0,0.0,0.0,0.0
1776452240635342035,88415,0.0,1.3,0.1,0.3,0.04,-0.14,139.81,0.56,3.19,-0.06,0.05,-0.3,1.63,3.38,4.06,169.79,198.0,0.0,0.0,0.0,0.0
1776452240737747535,88516,0.0,1.6,0.096,0.6,-0.02,-0.02,140.31,0.31,3.31,-0.07,-0.05,-0.35,0.81,2.31,4.38,169.27,198.0,0.0,0.0,0.0,0.0
1776452240836049317,88615,0.096,0.3,0.0,0.5,0.14,-0.12,140.63,0.12,3.44,-0.03,-0.0,-0.35,0.88,1.81,3.31,172.87,194.0,0.0,0.0,0.0,0.0
1776452240938445780,88716,0.0,1.2,0.1,0.3,0.16,0.02,140.94,-0.0,3.63,-0.11,-0.01,-0.32,1.75,2.31,3.06,168.76,194.0,0.0,0.0,0.0,0.0
1776452241036743352,88817,0.0,0.9,0.0,1.5,0.02,-0.04,141.31,-0.06,3.56,0.51,0.01,-0.33,-1.06,-0.0,4.38,172.36,196.0,0.0,0.0,0.0,0.0
1776452241209621586,88916,0.096,1.1,0.088,0.1,0.04,-0.02,141.81,-0.06,3.5,0.16,-0.0,-0.35,2.5,1.06,5.69,167.73,194.0,0.0,0.0,0.0,0.0
1776452241237430517,89017,0.1,0.9,0.0,0.1,0.14,-0.06,142.25,-0.12,3.75,-0.17,-0.09,-0.27,2.06,0.5,3.69,166.36,194.0,0.0,0.0,0.0,0.0
1776452241339795829,89118,0.048,-0.3,0.0,1.2,0.1,-0.06,142.38,-0.12,3.88,-0.08,-0.03,-0.4,4.06,-0.19,-1.19,165.67,200.0,0.0,0.0,0.0,0.0
1776452241438061368,89218,0.0,0.6,0.092,0.5,0.04,0.0,142.19,-0.12,4.06,0.25,-0.05,-0.19,-5.38,-1.0,-2.25,162.07,192.0,0.0,0.0,0.0,0.0
1776452241540488642,89319,0.0,0.0,0.092,0.2,0.08,-0.06,142.13,-0.06,3.81,0.1,0.01,-0.45,6.88,0.06,0.56,161.55,192.0,0.0,0.0,0.0,0.0
1776452241648910474,89419,0.0,1.4,0.052,0.2,0.1,-0.14,142.25,-0.0,3.94,-0.06,0.02,-0.38,-3.81,-1.75,1.63,162.24,192.0,0.0,0.0,0.0,0.0
1776452241741221640,89520,0.0,0.5,0.056,0.4,0.02,-0.2,142.38,0.06,4.06,-0.31,-0.0,-0.35,-1.88,-1.12,1.37,166.36,187.0,0.0,0.0,0.0,0.0
1776452241843619155,89620,0.0,0.7,0.052,0.1,0.12,-0.02,142.56,0.19,4.06,-0.17,-0.0,-0.36,-1.06,-0.94,2.56,166.87,187.0,0.0,0.0,0.0,0.0
1776452241941921028,89720,0.0,0.6,0.048,0.2,0.04,-0.21,142.81,0.31,3.94,-0.01,-0.01,-0.36,-1.44,-0.69,2.94,166.87,190.0,0.0,0.0,0.0,0.0
1776452242040188783,89820,0.0,0.9,0.056,0.6,0.16,-0.08,143.13,0.37,3.94,-0.25,-0.02,-0.35,0.56,-0.94,2.75,167.04,191.0,0.0,0.0,0.0,0.0
1776452242142608961,89920,0.064,0.4,0.0,1.5,0.06,-0.12,143.31,0.5,3.81,0.6,-0.0,-0.29,-4.06,-0.75,2.56,168.07,191.0,0.0,0.0,0.0,0.0
1776452242240912239,90019,0.0,1.4,0.0,1.2,0.12,-0.1,143.56,0.5,3.81,-0.4,-0.0,-0.32,2.56,0.44,2.63,167.38,189.0,0.0,0.0,0.0,0.0
1776452242339202405,90119,0.0,0.4,0.064,0.1,0.02,-0.14,143.81,0.56,3.75,0.25,-0.02,-0.39,-2.75,-0.5,3.0,171.67,189.0,0.0,0.0,0.0,0.0
1776452242441567214,90219,0.0,0.4,0.08,0.3,0.02,-0.12,144.19,0.56,3.69,-0.09,-0.01,-0.37,0.19,0.63,3.56,167.56,201.0,0.0,0.0,0.0,0.0
1776452242539877917,90318,0.0,-0.1,0.0,1.5,0.04,-0.08,144.5,0.56,3.56,0.16,0.01,-0.36,-1.06,0.19,3.88,171.67,198.0,0.0,0.0,0.0,0.0
1776452242642310522,90419,0.084,1.0,0.084,0.4,0.16,-0.1,144.94,0.63,3.5,0.16,-0.02,-0.35,-0.81,0.06,4.5,168.07,198.0,0.0,0.0,0.0,0.0
1776452242740620225,90519,0.056,0.1,0.0,1.3,0.14,-0.14,145.38,0.63,3.38,0.12,-0.01,-0.31,-0.44,0.69,3.69,168.07,196.0,0.0,0.0,0.0,0.0
1776452243021621658,90619,0.0,0.1,0.0,1.5,0.08,-0.02,145.69,0.56,3.25,0.11,-0.0,-0.39,0.44,0.75,3.19,172.19,194.0,0.0,0.0,0.0,0.0
1776452243039613157,90719,0.064,0.2,0.0,1.7,0.1,-0.18,146.0,0.5,3.31,0.04,-0.02,-0.32,-0.5,0.88,2.75,172.36,194.0,0.0,0.0,0.0,0.0
1776452243053124591,90819,0.08,-0.1,0.0,1.5,0.02,-0.02,146.25,0.44,3.31,0.15,-0.01,-0.33,-0.44,0.75,2.38,172.19,194.0,0.0,0.0,0.0,0.0
1776452243141990592,90918,0.072,0.1,0.0,1.4,0.1,-0.04,146.44,0.37,3.25,0.01,-0.06,-0.32,0.44,0.69,1.5,173.22,191.0,0.0,0.0,0.0,0.0
1776452243240306867,91019,0.0,1.3,0.068,0.6,0.14,-0.04,146.5,0.37,3.25,0.26,-0.06,-0.34,-1.19,0.31,0.81,172.19,191.0,0.0,0.0,0.0,0.0
1776452243342876487,91119,0.0,1.2,0.084,0.2,0.1,0.08,146.56,0.31,3.13,-0.1,-0.0,-0.36,2.19,1.06,-0.5,168.07,208.0,0.0,0.0,0.0,0.0
1776452243440963912,91218,0.072,0.2,0.0,1.0,-0.02,0.02,146.5,0.19,3.25,0.01,-0.04,-0.36,-0.06,0.44,-0.37,172.19,208.0,0.0,0.0,0.0,0.0
1776452243543384551,91318,0.076,0.0,0.0,1.2,0.14,-0.1,146.5,0.19,3.25,-0.03,-0.05,-0.27,0.19,0.5,-0.56,172.19,186.0,0.0,0.0,0.0,0.0
1776452243641688956,91419,0.084,0.2,0.0,0.2,0.12,-0.1,146.44,0.12,3.13,0.41,-0.01,-0.32,-1.12,-0.12,-0.63,172.19,195.0,0.0,0.0,0.0,0.0
1776452243740004527,91518,0.0,0.8,0.0,1.6,0.18,-0.02,146.44,0.12,2.69,0.37,0.02,-0.36,0.81,0.94,-0.44,168.07,195.0,0.0,0.0,0.0,0.0
1776452243842388704,91619,0.08,0.3,0.0,1.5,0.18,-0.08,146.44,-0.0,2.75,0.09,0.02,-0.33,1.0,1.94,0.0,167.56,194.0,0.0,0.0,0.0,0.0
1776452243940731886,91719,0.064,0.2,0.052,0.5,0.02,-0.02,146.44,-0.12,2.75,0.0,-0.04,-0.36,1.44,2.06,-0.44,167.56,205.0,0.0,0.0,0.0,0.0
1776452244043082890,91819,0.0,0.1,0.0,1.3,0.12,-0.06,146.38,-0.37,3.0,-0.35,-0.07,-0.39,1.88,1.81,-0.88,166.87,205.0,0.0,0.0,0.0,0.0
1776452244141391627,91919,0.08,0.6,0.084,0.3,-0.02,0.04,146.38,-0.5,3.31,-0.24,-0.06,-0.37,-0.5,0.19,1.25,166.87,186.0,0.0,0.0,0.0,0.0
1776452244437616791,92019,0.0,0.8,0.08,0.5,0.18,-0.1,146.5,-0.5,3.5,-0.27,-0.04,-0.34,-0.06,0.63,1.19,170.47,189.0,0.0,0.0,0.0,0.0
1776452244441239194,92119,0.0,0.1,0.0,1.6,0.04,-0.06,146.63,-0.56,3.63,-0.2,-0.04,-0.34,-1.12,0.12,1.31,166.36,189.0,0.0,0.0,0.0,0.0
1776452244444471951,92219,0.0,1.4,0.0,1.6,0.02,-0.04,146.69,-0.56,3.56,0.16,-0.04,-0.35,-1.5,-0.37,0.19,166.36,187.0,0.0,0.0,0.0,0.0
1776452244542803984,92319,0.0,0.9,0.0,1.6,0.02,0.04,146.69,-0.56,3.44,0.26,-0.01,-0.35,-1.75,-0.63,-0.25,167.38,187.0,0.0,0.0,0.0,0.0
1776452244645200953,92420,0.084,0.3,0.0,1.5,0.04,-0.08,146.63,-0.56,3.06,0.42,0.02,-0.43,-1.56,-0.56,-1.25,166.87,191.0,0.0,0.0,0.0,0.0
1776452244743474449,92521,0.088,0.3,0.092,0.5,0.06,-0.08,146.5,-0.56,3.0,-0.02,-0.01,-0.22,-1.31,-0.12,-0.81,166.36,194.0,0.0,0.0,0.0,0.0
1776452244901622467,92620,0.0,1.2,0.068,0.3,0.04,-0.04,146.5,-0.5,2.75,0.13,0.04,-0.43,2.5,-0.06,0.88,166.36,194.0,0.0,0.0,0.0,0.0
1776452244944170359,92720,0.0,1.1,0.0,1.3,-0.1,-0.06,146.63,-0.5,2.88,-0.16,-0.05,-0.32,-1.37,-0.63,1.44,166.36,206.0,0.0,0.0,0.0,0.0
