timestamp_ns,time_ms,voltage_left,current_left_ma,voltage_right,current_right_ma,motor_current_left,motor_current_right,euler_x,euler_y,euler_z,acc_lin_x,acc_lin_y,acc_lin_z,gyro_x,gyro_y,gyro_z,sonar_mm,tof_mm,rpm_left,rpm_right,rotations_left,rotations_right
1775764156652588784,17015,0.0,1.3,0.004,0.3,0.0,-0.16,-0.0,-1.12,3.25,0.02,0.01,-0.39,-0.0,-0.0,0.0,0.0,0.0,0.06,11967.44,197.0,0.0
1775764158843815160,17015,0.0,1.3,0.004,0.3,0.0,-0.16,-0.0,-1.12,3.25,0.02,0.01,-0.39,-0.0,-0.0,0.0,,,,,,
1775764158929859813,1905,0.0,1.2,0.004,0.3,-0.1,-0.1,-0.0,-1.12,3.19,0.03,-0.0,-0.38,0.12,0.12,-0.06,11964.35,196.0,0.0,0.0,0.0,0.0
1775764159028145610,2004,0.0,1.3,0.004,0.3,0.04,-0.02,-0.0,-1.12,3.19,0.0,0.02,-0.37,-0.12,-0.0,0.12,11968.13,195.0,0.0,0.0,0.0,0.0
1775764159130532382,2104,0.0,1.2,0.004,0.3,0.06,-0.08,-0.0,-1.12,3.19,0.02,0.01,-0.36,0.06,-0.19,0.06,11967.1,196.0,0.0,0.0,0.0,0.0
1775764159228894239,2204,0.0,1.5,0.04,0.2,0.04,0.02,-0.0,-1.12,3.19,0.02,-0.0,-0.36,0.12,0.19,0.12,11969.5,196.0,0.0,0.0,0.0,0.0
1775764159331221014,2305,0.0,1.1,0.032,0.4,0.06,-0.16,-0.0,-1.12,3.19,0.02,-0.0,-0.36,-0.0,0.06,0.0,11969.16,195.0,0.0,0.0,0.0,0.0
1775764159427681131,2405,0.0,0.8,0.024,0.0,-0.18,-0.08,-0.0,-1.12,3.19,0.02,-0.0,-0.37,0.06,-0.0,0.06,11967.1,191.0,0.0,0.0,0.0,0.0
1775764159530010498,2505,0.0,0.8,0.012,1.4,0.14,-0.12,-0.0,-1.12,3.19,0.02,-0.0,-0.34,-0.06,-0.0,0.12,11970.36,191.0,0.0,0.0,0.0,0.0
1775764159628267009,2606,0.0,1.5,0.016,0.3,0.02,-0.04,-0.0,-1.12,3.19,0.03,-0.0,-0.39,0.19,-0.0,-0.06,1944.98,199.0,0.0,0.0,0.0,0.0
1775764159732595686,2705,0.0,1.4,0.004,0.1,-0.04,-0.25,-0.0,-1.12,3.19,0.01,-0.0,-0.37,0.12,-0.06,0.06,11969.5,194.0,0.0,0.0,0.0,0.0
1775764159830905287,2805,0.0,1.3,0.0,1.1,-0.02,-0.21,-0.0,-1.12,3.19,0.01,-0.0,-0.38,-0.06,-0.0,0.12,11970.36,194.0,0.0,0.0,0.0,0.0
1775764159933283670,2906,0.0,0.9,0.012,0.6,0.02,-0.23,-0.0,-1.12,3.19,0.01,-0.0,-0.37,-0.0,-0.06,-0.12,11971.04,193.0,0.0,0.0,0.0,0.0
1775764160031670144,3006,0.0,1.1,0.008,0.1,-0.16,0.06,-0.0,-1.12,3.19,-0.25,0.71,-0.83,1.44,0.5,-0.12,11974.64,193.0,0.0,0.0,0.0,0.0
1775764160133973228,3106,0.0,0.9,0.0,0.7,-0.06,-0.04,-0.0,-1.12,3.25,-0.18,-0.3,-0.09,0.5,-0.25,-0.19,11972.59,194.0,0.0,0.0,0.0,0.0
1775764160232296641,3206,0.0,1.4,0.044,0.2,0.12,-0.06,-0.0,-1.06,3.25,0.11,0.08,-0.49,-0.63,0.5,-0.06,11969.33,198.0,0.0,0.0,0.0,0.0
1775764160332771594,3306,0.0,1.5,0.032,0.2,-0.08,-0.18,-0.0,-1.06,3.25,0.09,0.01,-0.36,0.25,-0.06,-0.12,11970.36,198.0,0.0,0.0,0.0,0.0
1775764160430993438,3406,0.036,0.2,0.0,0.9,-0.04,-0.16,-0.0,-1.06,3.25,-0.01,0.16,-0.38,-0.19,-0.0,0.12,11971.39,193.0,0.0,0.0,0.0,0.0
1775764160531205774,3506,0.0,1.1,0.028,1.1,-0.04,-0.14,-0.0,-1.06,3.25,0.05,-0.0,-0.43,0.19,-0.19,0.0,11969.33,198.0,0.0,0.0,0.0,0.0
1775764160631721355,3606,0.0,1.2,0.016,0.3,0.02,-0.06,-0.0,-1.06,3.25,0.02,-0.0,-0.35,-0.37,0.37,0.06,237.01,198.0,0.0,0.0,0.0,0.0
1775764160731935581,3706,0.008,0.2,0.0,1.1,0.0,-0.18,-0.0,-1.06,3.25,0.0,0.02,-0.34,0.19,-0.19,0.06,11969.67,193.0,0.0,0.0,0.0,0.0
1775764160840413078,3806,0.0,1.2,0.008,0.2,0.02,-0.21,-0.0,-1.06,3.25,0.03,-0.02,-0.38,-0.0,0.19,-0.06,11969.67,194.0,0.0,0.0,0.0,0.0
1775764160932709366,3906,0.02,1.5,0.012,0.1,-0.02,-0.12,-0.0,-1.06,3.25,-0.01,0.01,-0.37,-0.06,-0.06,0.0,11971.73,194.0,0.0,0.0,0.0,0.0
1775764161030914681,4006,0.0,1.4,0.012,0.2,0.0,-0.18,-0.0,-1.06,3.25,0.0,0.07,-0.36,0.12,0.06,-0.06,11968.81,192.0,0.0,0.0,0.0,0.0
1775764161139426776,4106,0.0,1.4,0.008,0.3,0.06,-0.12,-0.0,-1.19,3.44,0.03,0.27,-0.67,17.56,7.56,0.5,11970.53,192.0,0.0,0.0,0.0,0.0
1775764161231596707,4206,0.0,1.6,0.044,0.2,0.0,-0.14,-0.0,-1.19,3.69,-0.17,-0.03,-0.43,-0.31,-0.25,0.12,11971.73,200.0,0.0,0.0,0.0,0.0
1775764161332107581,4306,0.0,1.2,0.032,0.5,0.02,-0.12,-0.0,-1.19,3.69,0.12,-0.07,-0.38,-0.0,0.19,-0.12,11969.33,194.0,0.0,0.0,0.0,0.0
1775764161430335147,4406,0.0,1.0,0.032,0.3,-0.1,-0.06,-0.0,-1.19,3.69,-0.06,-0.03,-0.37,-0.37,0.06,0.0,11970.19,194.0,0.0,0.0,0.0,0.0
1775764161538746894,4506,0.0,0.8,0.024,0.3,-0.14,-0.27,-0.0,-1.19,3.69,-0.09,0.1,-0.36,0.12,-0.06,0.12,11970.36,194.0,0.0,0.0,0.0,0.0
1775764161631059744,4606,0.0,0.9,0.004,0.5,-0.04,-0.08,-0.0,-1.25,3.69,-0.02,-0.07,-0.41,0.06,0.25,0.0,220.38,194.0,0.0,0.0,0.0,0.0
1775764161733446097,4706,0.0,1.0,0.012,0.1,-0.02,0.0,-0.0,-1.25,3.63,-0.12,0.12,-0.33,-1.0,0.56,-0.19,207.34,194.0,0.0,0.0,0.0,0.0
1775764161831759084,4807,0.0,1.0,0.012,0.2,0.0,0.06,0.06,-1.44,3.38,-0.09,-0.0,-0.34,-3.94,2.88,-0.06,205.63,194.0,0.0,0.0,0.0,0.0
1775764161934148362,4907,0.0,1.0,0.004,0.2,-0.04,-0.12,0.06,-1.75,2.88,-0.19,-0.02,-0.15,-7.19,2.38,-0.5,209.74,198.0,0.0,0.0,0.0,0.0
1775764162032432573,5007,0.0,0.9,0.004,0.0,0.18,-0.14,0.19,-1.69,2.5,-0.44,-0.29,1.53,3.06,-2.75,3.56,227.07,202.0,0.0,0.0,0.0,0.0
1775764162142750655,5108,0.0,0.9,0.004,0.8,-0.02,-0.14,1.44,-1.19,2.5,-0.58,-1.13,2.21,-5.81,-3.19,16.94,11970.7,218.0,0.0,0.0,0.0,0.0
1775764162233101653,5209,0.0,0.9,0.04,0.6,-0.04,0.02,3.31,-0.44,1.56,-0.31,-1.08,1.64,-8.63,3.19,17.25,372.84,218.0,0.0,0.0,0.0,0.0
1775764162335546629,5309,0.0,1.1,0.036,0.3,-0.06,-0.21,4.25,0.5,0.94,0.0,-0.79,1.31,-4.63,-11.06,5.44,11973.62,308.0,0.0,0.0,0.0,0.0
1775764162433772288,5409,0.0,0.9,0.028,0.5,-0.08,-0.33,4.31,2.13,0.94,-0.51,-0.1,0.72,0.31,-18.19,-2.69,11971.04,419.0,0.0,0.0,0.0,0.0
1775764162536166934,5509,0.0,0.8,0.02,0.3,0.0,-0.21,3.69,3.38,0.56,-0.69,-0.15,-0.1,-9.44,-9.06,-7.88,591.5,419.0,0.0,0.0,0.0,0.0
1775764162634486274,5609,0.0,0.9,0.016,0.3,0.02,-0.16,2.81,4.0,-0.31,-0.49,-0.27,-0.79,-12.56,-9.0,-11.0,699.55,639.0,0.0,0.0,0.0,0.0
1775764162736881586,5709,0.0,0.8,0.016,0.5,-0.12,-0.1,1.56,4.63,-1.0,-0.5,-0.0,-1.24,-7.69,-2.69,-15.19,789.24,639.0,0.0,0.0,0.0,0.0
1775764162835178371,5810,0.0,0.7,0.008,0.5,-0.02,-0.06,-0.12,4.19,-1.44,-0.39,-0.23,-1.56,-5.63,12.63,-21.81,893.86,1364.0,0.0,0.0,0.0,0.0
1775764162937565276,5911,0.0,0.9,0.008,0.3,-0.1,-0.27,-2.19,2.88,-1.75,0.14,-0.62,-1.54,-2.63,11.38,-19.69,958.51,1364.0,0.0,0.0,0.0,0.0
1775764163035870968,6010,0.0,0.9,0.004,0.4,0.0,0.02,-4.06,1.37,-2.31,0.06,-0.28,-2.01,-9.5,22.44,-21.87,1008.93,1060.0,0.0,0.0,0.0,0.0
1775764163138262594,6111,0.0,1.0,0.004,0.3,-0.08,-0.18,-6.63,-0.94,-2.94,0.38,-0.69,-2.21,-0.94,24.87,-27.62,1096.91,1659.0,0.0,0.0,0.0,0.0
1775764163236541235,6212,0.0,1.0,0.04,0.4,-0.08,-0.2,-9.56,-2.44,-2.38,0.23,-0.64,-1.66,11.5,12.13,-31.87,1132.93,1659.0,0.0,0.0,0.0,0.0
1775764163339005228,6311,0.0,0.7,0.028,0.1,0.02,-0.04,-13.13,-3.44,-1.06,-0.04,-0.42,-0.5,18.0,9.94,-38.5,174.93,1601.0,0.0,0.0,0.0,0.0
1775764163437223057,6412,0.0,1.1,0.02,0.1,-0.02,-0.1,-16.94,-3.88,0.44,-0.41,0.19,-0.07,17.75,2.19,-39.56,1061.24,750.0,0.0,0.0,0.0,0.0
1775764163545538737,6512,0.0,0.7,0.02,0.3,0.1,-0.1,-21.12,-4.38,1.0,-0.13,-0.05,-0.61,2.44,5.5,-45.44,1124.01,750.0,0.0,0.0,0.0,0.0
1775764163637921823,6611,0.0,0.9,0.004,0.3,0.02,0.02,-25.37,-4.75,0.44,0.07,-0.4,-1.64,-4.0,0.88,-42.06,1137.04,1424.0,0.0,0.0,0.0,0.0
1775764163736213556,6711,0.0,0.6,0.012,0.5,0.1,-0.12,-28.5,-5.06,-0.06,0.06,-0.32,-1.25,-0.56,3.56,-30.19,1094.68,1704.0,0.0,0.0,0.0,0.0
1775764163834506586,6810,0.0,1.0,0.008,0.0,-0.21,-0.08,-31.06,-6.0,-0.12,-0.35,-0.76,-0.57,1.0,8.06,-20.62,1158.83,1704.0,0.0,0.0,0.0,0.0
1775764163936894508,6909,0.0,0.9,0.008,0.2,0.04,0.0,-32.5,-6.88,-0.44,-0.04,-0.32,0.33,-2.38,11.31,-10.88,174.93,1063.0,0.0,0.0,0.0,0.0
1775764164045253156,7010,0.0,1.1,0.0,0.2,0.14,-0.12,-33.31,-7.25,-0.69,0.44,0.57,1.18,1.0,-6.31,-8.0,169.61,1562.0,0.0,0.0,0.0,0.0
1775764164137595255,7111,0.0,0.8,0.004,0.2,0.02,-0.02,-33.81,-6.69,-0.44,0.36,1.21,-0.69,4.94,-3.13,-4.13,166.7,1562.0,0.0,0.0,0.0,0.0
1775764164235874679,7211,0.0,0.7,0.048,0.3,0.0,-0.18,-34.63,-6.69,0.0,0.25,-0.24,-1.57,3.5,-1.25,-10.81,162.41,1569.0,0.0,0.0,0.0,0.0
1775764164338270990,7311,0.0,1.0,0.02,0.5,0.14,0.02,-35.56,-6.31,0.0,0.27,-0.25,-1.55,-1.94,-5.25,-8.69,167.73,1569.0,0.0,0.0,0.0,0.0
1775764164440609100,7412,0.0,0.8,0.02,0.6,0.02,-0.1,-36.38,-5.94,-0.37,0.73,-0.35,-0.08,-0.31,2.56,-8.06,166.53,1740.0,0.0,0.0,0.0,0.0
1775764164538920226,7512,0.0,0.9,0.012,0.3,0.08,-0.06,-37.19,-6.75,-0.06,0.62,0.18,0.88,5.56,11.0,-4.69,166.53,845.0,0.0,0.0,0.0,0.0
1775764164637247407,7612,0.0,1.0,0.012,0.2,0.06,-0.14,-37.81,-7.88,0.81,0.26,-0.04,1.55,12.31,1.63,-7.19,1156.25,845.0,0.0,0.0,0.0,0.0
1775764164739638107,7711,0.0,0.9,0.016,0.3,-0.04,-0.12,-38.81,-8.06,1.44,-0.04,0.63,-0.76,3.38,5.44,-12.06,1109.09,1648.0,0.0,0.0,0.0,0.0
1775764164837934123,7811,0.0,0.9,0.0,0.6,0.12,-0.12,-40.06,-8.88,1.06,0.32,0.39,-1.8,-4.31,6.5,-13.38,1131.73,1871.0,0.0,0.0,0.0,0.0
1775764164936233935,7911,0.0,0.9,0.004,0.2,0.08,-0.2,-40.81,-8.81,0.63,0.23,0.08,-2.47,-1.25,-3.81,-1.31,1140.13,1871.0,0.0,0.0,0.0,0.0
1775764165038628906,8010,0.0,0.9,0.0,0.1,-0.04,-0.1,-40.38,-8.63,0.5,-0.26,-0.47,-0.96,-3.69,0.25,7.75,1109.6,819.0,0.0,0.0,0.0,0.0
1775764165136903133,8111,0.0,1.0,0.004,0.2,-0.06,-0.12,-38.94,-8.88,0.19,0.29,0.02,1.32,-5.19,2.69,19.94,1092.28,819.0,0.0,0.0,0.0,0.0
1775764165239319575,8212,0.0,1.1,0.032,0.3,0.02,-0.1,-36.5,-8.56,0.19,0.36,0.65,1.7,-2.56,-14.19,25.44,1109.43,834.0,0.0,0.0,0.0,0.0
1775764165337578692,8312,0.0,0.6,0.04,0.3,-0.16,-0.21,-34.38,-7.38,0.12,0.93,0.23,-0.85,-2.31,-7.63,19.56,1128.3,2614.0,0.0,0.0,0.0,0.0
1775764165439969412,8412,0.0,1.0,0.032,0.3,-0.02,-0.21,-33.25,-6.25,0.69,0.47,0.13,-2.06,9.44,-11.69,4.69,1189.87,2614.0,0.0,0.0,0.0,0.0
1775764165538216715,8513,0.0,1.0,0.02,0.6,-0.04,-0.1,-33.06,-5.69,1.37,0.14,0.04,-2.16,3.19,0.25,1.44,1055.07,1483.0,0.0,0.0,0.0,0.0
1775764165640650267,8613,0.0,1.5,0.016,0.5,-0.12,-0.21,-32.88,-6.75,1.63,0.56,-0.28,-0.1,4.56,16.62,1.94,1121.78,1079.0,0.0,0.0,0.0,0.0
1775764165738978695,8713,0.0,1.4,0.004,0.3,0.04,-0.16,-33.0,-8.19,2.5,0.51,-0.41,1.65,11.63,9.44,-2.5,1072.39,1079.0,0.0,0.0,0.0,0.0
1775764165841378544,8813,0.0,1.3,0.0,0.6,0.1,-0.14,-33.19,-7.06,3.56,-0.07,0.86,1.04,3.69,-19.31,2.25,1082.51,2340.0,0.0,0.0,0.0,0.0
1775764165939666715,8912,0.0,1.2,0.0,0.3,0.1,0.04,-33.56,-6.56,3.63,-0.02,0.09,-1.28,-5.5,3.81,-6.75,1093.31,1605.0,0.0,0.0,0.0,0.0
1775764166042053200,9013,0.0,1.3,0.008,0.2,-0.08,-0.08,-33.94,-7.13,2.81,0.01,0.31,-2.38,-8.94,9.69,-1.44,1101.2,1605.0,0.0,0.0,0.0,0.0
1775764166140332028,9114,0.0,1.4,0.0,0.5,0.04,-0.1,-33.69,-8.63,2.06,0.37,-0.03,-1.91,-2.69,18.75,4.56,1083.88,1940.0,0.0,0.0,0.0,0.0
1775764166242735863,9214,0.0,1.3,0.036,0.3,0.0,-0.08,-32.25,-10.81,2.13,0.15,0.4,0.76,-4.69,22.19,23.87,1052.67,369.0,0.0,0.0,0.0,0.0
1775764166341048614,9314,0.0,1.3,0.02,0.3,0.02,-0.12,-29.62,-12.19,1.88,0.8,0.33,1.8,-12.94,9.81,29.12,1050.95,369.0,0.0,0.0,0.0,0.0
1775764166443408915,9414,0.0,1.4,0.024,0.3,-0.04,-0.14,-27.19,-12.0,1.94,0.87,0.49,0.68,1.31,-14.13,21.94,1155.57,991.0,0.0,0.0,0.0,0.0
1775764166541691983,9513,0.0,1.4,0.004,0.5,0.06,-0.08,-25.62,-10.19,2.75,0.59,0.5,-2.78,5.19,-17.5,11.63,1095.89,991.0,0.0,0.0,0.0,0.0
1775764166640010123,9613,0.0,1.4,0.012,0.2,0.02,-0.14,-24.94,-9.25,3.38,0.27,0.53,-2.32,0.75,2.88,4.75,1119.72,1657.0,0.0,0.0,0.0,0.0
1775764166738271452,9712,0.0,1.2,0.0,0.7,-0.2,-0.1,-24.5,-9.88,3.25,0.8,-0.53,-0.69,-2.31,8.69,4.81,1068.79,1577.0,0.0,0.0,0.0,0.0
1775764166840729691,9812,0.0,1.5,0.008,0.3,-0.08,-0.1,-24.06,-10.63,3.63,0.45,-0.62,1.16,4.38,6.25,6.19,1097.43,1577.0,0.0,0.0,0.0,0.0
1775764166938999649,9912,0.0,1.4,0.0,0.4,0.1,-0.16,-23.19,-10.0,3.56,0.58,0.68,0.96,-7.75,-10.88,10.44,1071.88,1750.0,0.0,0.0,0.0,0.0
1775764167037273845,10011,0.0,1.5,0.004,0.3,-0.02,-0.12,-22.94,-9.94,3.13,0.09,0.35,-0.32,-4.06,1.81,-3.5,1085.08,1434.0,0.0,0.0,0.0,0.0
1775764167139759958,10110,0.0,1.3,0.0,0.3,-0.12,-0.12,-23.06,-9.19,2.31,0.21,0.54,-2.44,-8.19,-10.63,2.44,1098.29,1434.0,0.0,0.0,0.0,0.0
1775764167237997150,10210,0.0,1.4,0.048,0.1,0.12,-0.06,-22.31,-9.0,1.5,0.27,-0.38,-2.51,-6.88,4.94,10.94,1102.75,1639.0,0.0,0.0,0.0,0.0
1775764167336280005,10309,0.0,1.4,0.024,0.5,-0.04,-0.16,-20.75,-9.75,1.19,0.28,0.55,0.84,-7.38,8.13,23.12,1122.98,1639.0,0.0,0.0,0.0,0.0
1775764167438631145,10408,0.0,1.2,0.028,0.6,-0.08,-0.04,-18.31,-10.56,0.69,0.72,1.41,2.4,-11.31,9.88,24.19,1119.04,1876.0,0.0,0.0,0.0,0.0
1775764167536917408,10509,0.0,1.2,0.008,1.1,0.06,-0.12,-15.56,-11.25,0.0,2.09,0.07,0.54,-8.94,-5.94,32.06,1143.73,1107.0,0.0,0.0,0.0,0.0
1775764167635224355,10609,0.0,0.9,0.012,0.6,0.02,-0.29,-12.81,-10.06,0.56,1.43,0.66,-2.99,3.88,-15.88,21.19,1120.75,1107.0,0.0,0.0,0.0,0.0
1775764167737644287,10708,0.0,0.9,0.012,0.0,0.02,-0.12,-11.38,-9.0,1.19,0.42,0.36,-2.59,-0.94,-5.69,8.75,1119.72,1465.0,0.0,0.0,0.0,0.0
1775764167835939142,10808,0.0,0.7,0.0,0.5,0.02,-0.12,-10.88,-9.13,1.0,0.64,0.23,-0.11,-2.06,10.0,4.94,1121.1,1315.0,0.0,0.0,0.0,0.0
1775764167934243367,10907,0.0,0.9,0.004,0.4,-0.06,-0.04,-10.31,-10.75,1.31,0.52,-0.07,2.61,2.44,16.94,6.0,1084.91,1315.0,0.0,0.0,0.0,0.0
1775764168032485169,11006,0.0,0.7,0.0,0.5,-0.04,-0.12,-9.63,-10.56,1.25,0.27,0.22,-0.17,-4.25,-7.5,8.13,1119.38,1547.0,0.0,0.0,0.0,0.0
1775764168134924940,11106,0.0,0.9,0.012,0.5,-0.02,-0.14,-9.69,-9.94,0.88,-0.11,0.29,-1.08,-6.13,-10.38,-8.75,1102.92,1132.0,0.0,0.0,0.0,0.0
1775764168233226084,11206,0.0,0.8,0.048,0.1,-0.04,-0.16,-10.31,-8.25,0.0,-0.01,0.28,-2.49,-8.63,-16.81,-2.5,1141.16,1132.0,0.0,0.0,0.0,0.0
1775764168335627228,11305,0.0,1.0,0.036,0.5,-0.08,-0.21,-10.0,-8.0,-0.5,-0.2,-0.17,-1.07,-2.94,8.06,6.0,1158.65,1409.0,0.0,0.0,0.0,0.0
1775764168433915928,11406,0.0,0.9,0.028,0.2,0.08,-0.02,-9.0,-9.13,-0.63,-0.03,-0.0,0.58,-5.13,14.19,15.44,1152.65,2355.0,0.0,0.0,0.0,0.0
1775764168532158926,11505,0.0,0.6,0.02,0.3,0.0,-0.12,-7.63,-9.88,-0.88,0.11,0.78,1.58,-4.5,-4.94,12.69,1124.18,2355.0,0.0,0.0,0.0,0.0
1775764168634547812,11604,0.0,0.7,0.012,0.1,-0.04,-0.2,-6.13,-9.56,-0.94,0.9,0.77,-0.04,0.44,-0.81,19.19,1151.79,1249.0,0.0,0.0,0.0,0.0
1775764168732895731,11705,0.0,0.9,0.012,0.7,0.0,-0.18,-4.56,-9.31,-0.31,0.37,0.52,-1.43,5.44,-1.69,11.25,1191.07,1249.0,0.0,0.0,0.0,0.0
1775764168835275154,11805,0.0,1.3,0.012,1.1,-0.02,-0.12,-4.13,-9.56,0.06,0.07,-0.12,-2.85,0.63,5.81,0.19,1168.09,1622.0,0.0,0.0,0.0,0.0
1775764168937661187,11906,0.036,0.1,0.0,1.0,-0.18,-0.2,-4.56,-9.94,0.0,0.44,-0.47,-0.73,1.44,-0.37,-6.44,1112.69,1563.0,0.0,0.0,0.0,0.0
1775764169035959609,12007,0.032,0.4,0.0,0.5,0.08,0.04,-5.19,-9.75,0.63,0.19,-0.23,1.25,10.06,-0.88,-2.88,1099.14,1563.0,0.0,0.0,0.0,0.0
1775764169134256173,12106,0.0,0.9,0.02,0.3,0.12,-0.12,-5.63,-8.81,1.31,0.09,0.45,1.16,5.44,-19.06,-3.94,1114.92,1254.0,0.0,0.0,0.0,0.0
1775764169236641382,12207,0.0,0.9,0.048,0.3,-0.04,0.02,-6.25,-8.06,1.44,0.27,0.34,-0.61,-2.19,0.44,-8.44,1124.01,1262.0,0.0,0.0,0.0,0.0
1775764169334972481,12307,0.0,1.0,0.032,0.2,-0.08,-0.23,-7.06,-8.13,1.0,0.16,-0.08,-2.11,-3.38,-0.81,-7.63,1129.16,1262.0,0.0,0.0,0.0,0.0
1775764169433280582,12406,0.0,1.0,0.02,0.1,0.04,0.0,-7.13,-8.0,0.63,0.15,-0.19,-1.99,-3.88,0.44,2.31,11969.16,2306.0,0.0,0.0,0.0,0.0
1775764169535608739,12506,0.0,1.0,0.016,0.3,0.0,-0.18,-6.81,-8.88,0.37,0.11,0.08,0.18,-2.25,12.0,5.38,1147.51,2306.0,0.0,0.0,0.0,0.0
1775764169638021761,12607,0.0,0.7,0.016,0.3,0.04,-0.02,-5.56,-10.06,0.25,0.58,-0.16,1.17,-6.81,14.31,19.94,1093.31,1070.0,0.0,0.0,0.0,0.0
1775764169736306511,12707,0.0,1.1,0.012,0.3,0.02,-0.14,-3.81,-10.88,-0.12,0.29,-0.4,-0.22,-11.25,3.56,8.69,1106.0,1973.0,0.0,0.0,0.0,0.0
1775764169838694109,12808,0.0,0.9,0.012,0.2,-0.21,-0.16,-4.13,-9.63,-0.44,0.19,0.49,-1.48,4.31,-25.12,-9.13,1113.21,1973.0,0.0,0.0,0.0,0.0
1775764169936995877,12908,0.0,0.2,0.0,1.5,0.06,-0.08,-4.63,-7.38,0.19,-0.15,0.17,-2.72,7.69,-15.13,-0.94,1124.35,2294.0,0.0,0.0,0.0,0.0
1775764170035285737,13007,0.0,1.3,0.004,0.2,0.06,-0.14,-4.75,-7.56,0.5,0.48,-0.0,-0.6,4.31,15.5,-3.88,1088.0,1182.0,0.0,0.0,0.0,0.0
1775764170137669031,13107,0.0,1.3,0.02,0.2,-0.04,-0.1,-5.63,-9.13,1.06,0.68,-0.55,1.18,7.19,14.06,-10.19,1075.48,1182.0,0.0,0.0,0.0,0.0
1775764170236023551,13207,0.0,1.3,0.044,0.2,0.04,-0.21,-6.69,-8.69,1.94,-0.04,0.07,0.9,9.38,-16.12,-9.0,1069.3,1753.0,0.0,0.0,0.0,0.0
1775764170334303167,13306,0.0,1.3,0.028,0.3,0.0,-0.14,-7.38,-7.88,2.13,0.24,0.82,-0.74,-0.44,-0.12,-5.56,1083.88,2293.0,0.0,0.0,0.0,0.0
1775764170436653315,13406,0.0,1.1,0.028,0.3,-0.06,0.0,-7.81,-8.5,1.69,0.33,-0.09,-2.1,-5.44,6.5,-5.38,1096.91,2293.0,0.0,0.0,0.0,0.0
1775764170539034998,13507,0.0,1.3,0.016,0.6,-0.04,-0.1,-8.0,-9.25,1.0,0.47,-0.4,-1.86,-2.94,7.25,0.88,1100.69,1826.0,0.0,0.0,0.0,0.0
1775764170637381869,13607,0.0,1.4,0.008,1.0,0.02,-0.23,-7.63,-10.13,1.0,0.03,0.15,0.87,-4.63,8.81,11.94,1087.65,1846.0,0.0,0.0,0.0,0.0
1775764170735601582,13707,0.0,0.2,0.0,1.3,0.04,-0.12,-5.88,-10.63,0.25,0.48,0.15,1.84,-16.75,-3.13,23.81,1077.88,1846.0,0.0,0.0,0.0,0.0
1775764170838089685,13807,0.004,0.2,0.0,1.0,0.04,-0.02,-4.06,-10.19,-0.12,0.6,0.19,0.18,3.81,-6.38,12.5,1097.6,1214.0,0.0,0.0,0.0,0.0
1775764170936335359,13907,0.0,0.9,0.008,0.2,-0.06,-0.18,-3.13,-8.75,0.69,0.0,0.8,-1.94,8.19,-14.88,8.25,1101.72,1214.0,0.0,0.0,0.0,0.0
1775764171034573719,14007,0.004,0.3,0.008,0.4,0.0,-0.04,-2.56,-8.31,1.19,0.07,0.27,-2.25,0.06,5.5,3.56,1101.89,1010.0,0.0,0.0,0.0,0.0
1775764171137001744,14106,0.02,0.2,0.0,1.1,0.12,-0.21,-2.56,-9.44,0.94,0.38,-0.32,-0.26,-1.25,10.44,-2.69,1076.16,1760.0,0.0,0.0,0.0,0.0
1775764171235301616,14205,0.032,1.0,0.048,0.5,0.0,-0.08,-2.94,-10.0,1.19,0.46,-0.29,1.59,4.56,1.81,-4.0,1063.13,1760.0,0.0,0.0,0.0,0.0
1775764171333630856,14305,0.0,0.7,0.032,0.4,0.06,-0.04,-3.56,-9.13,1.44,-0.01,0.7,0.69,0.63,-14.25,-5.5,1090.74,1862.0,0.0,0.0,0.0,0.0
1775764171435956666,14404,0.0,0.7,0.032,0.5,-0.02,-0.23,-4.44,-8.0,1.31,-0.35,0.75,-1.15,-2.69,-8.19,-10.81,1102.23,1070.0,0.0,0.0,0.0,0.0
1775764171534242909,14503,0.0,1.0,0.016,0.6,-0.02,-0.18,-5.56,-8.13,0.81,-0.27,0.04,-2.27,-6.63,9.06,-10.31,1094.86,1070.0,0.0,0.0,0.0,0.0
1775764171632560854,14603,0.0,1.1,0.016,0.2,0.08,-0.1,-6.25,-9.19,0.31,-0.17,-0.16,-0.87,-0.19,14.06,-6.31,1081.48,1073.0,0.0,0.0,0.0,0.0
1775764171730876429,14702,0.0,1.1,0.004,0.3,-0.04,0.0,-6.31,-10.38,0.25,-0.21,0.36,1.24,-1.0,12.0,5.0,1083.02,1073.0,0.0,0.0,0.0,0.0
1775764171833261308,14801,0.0,0.7,0.0,0.2,0.08,0.02,-5.19,-11.13,0.06,0.27,0.04,0.86,-4.94,1.0,11.56,1080.28,1902.0,0.0,0.0,0.0,0.0
1775764171931620158,14902,0.0,0.9,0.008,0.3,-0.06,-0.14,-4.5,-10.69,0.0,0.87,0.16,-0.21,5.69,-13.13,2.69,1097.09,1135.0,0.0,0.0,0.0,0.0
1775764172033943986,15002,0.0,1.0,0.004,0.4,0.04,0.02,-4.31,-9.38,0.81,0.2,0.44,-2.56,5.0,-10.19,2.81,1098.97,1135.0,0.0,0.0,0.0,0.0
1775764172132237598,15102,0.0,0.7,0.004,0.3,-0.16,-0.1,-4.38,-9.25,0.81,0.17,0.08,-2.14,-5.44,9.81,-5.25,1098.97,1088.0,0.0,0.0,0.0,0.0
1775764172234620954,15203,0.0,1.0,0.04,0.2,-0.04,-0.16,-5.0,-10.0,0.44,0.29,0.4,0.65,2.5,6.44,-7.44,1070.67,696.0,0.0,0.0,0.0,0.0
1775764172332957619,15302,0.0,0.7,0.028,0.5,0.12,0.02,-5.5,-10.06,0.94,-0.06,-0.1,2.25,11.13,-9.19,-7.19,1091.25,696.0,0.0,0.0,0.0,0.0
1775764172435277868,15403,0.0,0.9,0.02,0.4,0.12,-0.16,-6.44,-9.56,1.37,0.0,0.78,0.59,4.38,-4.75,-9.44,1074.96,1807.0,0.0,0.0,0.0,0.0
1775764172533578313,15503,0.0,0.7,0.012,0.5,-0.04,-0.06,-7.5,-8.94,1.44,0.05,0.4,-2.09,1.31,-5.88,-9.81,1094.0,947.0,0.0,0.0,0.0,0.0
1775764172641929667,15603,0.0,1.0,0.016,0.1,-0.06,0.0,-7.81,-9.0,1.06,0.23,0.03,-2.46,-6.38,7.94,1.63,1105.32,947.0,0.0,0.0,0.0,0.0
1775764172734279299,15704,0.0,0.8,0.0,0.4,-0.04,-0.25,-7.38,-10.19,1.06,0.19,-0.66,-0.17,5.06,8.88,9.25,1080.28,1261.0,0.0,0.0,0.0,0.0
1775764172836680302,15805,0.0,0.7,0.008,0.3,-0.02,-0.12,-5.75,-10.44,1.56,-0.08,0.77,2.89,-4.56,-1.19,20.56,1076.33,904.0,0.0,0.0,0.0,0.0
1775764172934976099,15904,0.0,0.9,0.012,0.3,0.02,-0.18,-3.94,-10.19,0.94,0.92,0.56,0.11,-8.31,2.19,12.5,1083.71,904.0,0.0,0.0,0.0,0.0
1775764173037358918,16004,0.0,0.9,0.008,0.2,0.02,-0.1,-3.0,-10.06,0.94,0.62,0.4,-1.53,3.31,-8.88,4.0,1097.26,1974.0,0.0,0.0,0.0,0.0
1775764173135657752,16105,0.0,1.1,0.012,0.4,-0.06,-0.14,-3.06,-9.31,1.12,-0.07,0.52,-3.08,-0.5,-4.56,-2.38,1103.77,1974.0,0.0,0.0,0.0,0.0
1775764173233943347,16204,0.0,1.0,0.048,0.5,-0.02,-0.02,-3.38,-9.38,0.63,0.34,-0.27,-0.75,-5.63,4.25,-4.13,1084.74,365.0,0.0,0.0,0.0,0.0
1775764173336363141,16304,0.0,0.6,0.04,0.3,0.04,-0.21,-3.69,-9.88,0.63,0.68,-0.04,1.99,5.44,2.06,-0.56,1059.87,1311.0,0.0,0.0,0.0,0.0
1775764173434648217,16405,0.0,0.9,0.024,0.2,-0.02,-0.06,-3.94,-8.88,1.37,-0.06,0.48,0.73,3.19,-13.81,-2.13,1083.19,1311.0,0.0,0.0,0.0,0.0
1775764173536994128,16504,0.0,1.1,0.024,0.5,-0.12,0.0,-4.56,-8.19,1.37,-0.2,0.61,-0.76,-2.06,-3.38,-9.19,1110.81,1318.0,0.0,0.0,0.0,0.0
1775764173635301795,16605,0.0,0.9,0.012,0.1,-0.1,-0.21,-5.38,-7.94,0.56,-0.04,0.17,-2.74,-9.0,1.44,-7.56,1101.2,1582.0,0.0,0.0,0.0,0.0
1775764173737706961,16706,0.0,1.0,0.008,0.1,-0.02,-0.2,-5.75,-8.63,-0.06,0.04,-0.62,-1.28,-2.5,9.25,-2.63,1087.65,1582.0,0.0,0.0,0.0,0.0
1775764173835982427,16806,0.0,0.7,0.0,0.3,-0.02,-0.12,-5.44,-9.38,-0.12,-0.07,-0.23,1.11,-1.94,5.31,10.5,1109.78,1565.0,0.0,0.0,0.0,0.0
1775764173938409666,16906,0.0,0.9,0.0,0.2,0.2,-0.04,-4.13,-9.31,-0.5,0.24,0.35,1.28,-6.5,-9.06,12.69,1078.73,1565.0,0.0,0.0,0.0,0.0
1775764174046755853,17007,0.0,0.9,0.012,0.3,-0.1,-0.1,-3.56,-8.56,-0.44,0.43,-0.01,-0.92,6.81,-8.75,0.25,1104.29,2263.0,0.0,0.0,0.0,0.0
1775764174139099220,17107,0.0,1.1,0.0,0.2,0.04,-0.08,-3.88,-6.81,-0.25,0.18,-0.1,-2.16,-1.94,-23.12,-4.13,1092.8,1759.0,0.0,0.0,0.0,0.0
1775764174237361207,17207,0.0,0.9,0.06,0.3,0.0,-0.1,-4.13,-6.31,-0.56,0.19,-0.28,-0.84,-2.13,12.0,-0.75,1073.42,1759.0,0.0,0.0,0.0,0.0
1775764174339847273,17307,0.0,1.0,0.036,0.5,0.06,-0.16,-4.13,-8.13,-0.19,-0.02,-0.17,1.76,11.38,16.31,-0.63,974.98,1210.0,0.0,0.0,0.0,0.0
1775764174438045967,17406,0.0,1.0,0.032,0.5,-0.04,-0.2,-5.0,-7.94,0.81,-0.56,0.41,2.61,5.88,-16.56,-15.31,1019.57,1908.0,0.0,0.0,0.0,0.0
1775764174546360344,17506,0.032,0.2,0.0,1.4,0.08,-0.08,-6.31,-6.63,0.44,0.34,0.58,-0.37,4.63,-9.44,-14.38,1083.54,1908.0,0.0,0.0,0.0,0.0
1775764174638739783,17606,0.02,0.5,0.0,1.4,-0.06,-0.1,-7.63,-5.56,0.63,-0.04,0.25,-2.52,5.63,-6.25,-9.75,1067.59,1411.0,0.0,0.0,0.0,0.0
1775764174737027083,17705,0.008,0.4,0.0,0.6,-0.06,-0.14,-8.31,-5.69,1.06,-0.33,-0.71,-2.23,5.69,11.25,-8.25,1056.78,1700.0,0.0,0.0,0.0,0.0
1775764174839386602,17806,0.0,1.4,0.012,0.5,-0.14,-0.1,-9.0,-7.31,1.31,-0.03,-0.05,0.23,-0.5,24.31,-2.44,1060.21,1700.0,0.0,0.0,0.0,0.0
1775764174937717676,17907,0.0,1.1,0.008,0.2,-0.08,-0.27,-8.63,-9.38,0.94,0.13,0.51,1.38,-11.13,15.31,12.88,1072.56,1619.0,0.0,0.0,0.0,0.0
1775764175040075329,18007,0.0,0.9,0.0,0.3,-0.06,-0.08,-6.63,-9.75,0.12,0.72,1.04,0.4,-6.25,-4.56,15.5,1062.1,751.0,0.0,0.0,0.0,0.0
1775764175138424906,18107,0.0,1.1,0.0,0.5,-0.18,-0.16,-5.81,-8.75,0.0,0.69,0.6,-2.14,3.88,-18.0,-3.0,1083.02,751.0,0.0,0.0,0.0,0.0
1775764175236698672,18206,0.0,0.9,0.056,0.6,0.1,-0.12,-6.25,-7.31,0.12,-0.19,0.47,-2.4,-1.06,-12.75,-2.5,1139.96,1527.0,0.0,0.0,0.0,0.0
1775764175339097985,18306,0.044,0.2,0.0,1.4,0.02,0.0,-6.13,-6.75,-0.37,0.37,-0.21,-0.61,-6.31,1.63,1.88,1071.02,1527.0,0.0,0.0,0.0,0.0
1775764175437340568,18406,0.032,0.1,0.0,1.4,0.04,-0.08,-5.88,-7.25,-0.37,0.67,-0.25,1.04,6.31,5.31,3.06,1173.92,883.0,0.0,0.0,0.0,0.0
1775764175535632075,18505,0.02,0.2,0.0,1.5,0.16,-0.08,-5.81,-7.0,0.75,0.33,0.25,2.26,12.31,-14.69,-0.5,1030.54,2080.0,0.0,0.0,0.0,0.0
1775764175638040294,18605,0.024,-0.1,0.0,1.5,-0.18,-0.14,-5.94,-4.94,1.56,-0.04,0.65,-0.66,9.88,-19.69,-5.19,1191.24,2080.0,0.0,0.0,0.0,0.0
1775764175738268785,18705,0.0,1.3,0.016,0.1,0.0,-0.04,-7.06,-4.06,1.75,0.0,0.27,-2.01,-4.69,-3.63,-11.38,11973.44,1343.0,0.0,0.0,0.0,0.0
1775764175838738686,18805,0.0,1.2,0.0,0.4,-0.04,-0.1,-7.69,-4.5,1.12,0.03,-0.4,-2.49,-6.63,13.81,-4.19,1036.37,1787.0,0.0,0.0,0.0,0.0
1775764175937040673,18905,0.0,1.3,0.0,0.5,-0.06,-0.18,-8.25,-5.81,0.63,0.33,0.02,0.01,-4.56,10.38,-5.81,1070.5,1787.0,0.0,0.0,0.0,0.0
1775764176039494823,19006,0.0,1.4,0.0,0.2,0.08,-0.08,-8.13,-6.63,-0.19,0.29,0.64,1.93,-12.06,4.81,6.69,1002.59,1808.0,0.0,0.0,0.0,0.0
1775764176137722467,19105,0.0,1.2,0.0,0.3,0.06,-0.14,-6.81,-6.38,-1.31,0.82,0.59,0.11,-12.63,-11.69,12.19,1014.77,1808.0,0.0,0.0,0.0,0.0
1775764176240360061,19205,0.0,1.2,0.04,0.5,-0.06,-0.16,-5.88,-5.63,-1.69,0.57,1.31,-0.95,1.25,-12.06,5.0,1068.62,1654.0,0.0,0.0,0.0,0.0
1775764176338361647,19305,0.0,1.3,0.02,0.3,0.1,-0.08,-5.38,-4.69,-1.44,0.32,0.53,-2.08,0.75,-5.06,7.25,1076.85,2061.0,0.0,0.0,0.0,0.0
1775764176436674156,19404,0.0,1.4,0.024,0.5,0.04,-0.04,-4.38,-4.81,-1.5,0.31,0.06,-1.33,-2.0,11.25,12.31,1010.65,2061.0,0.0,0.0,0.0,0.0
1775764176539086506,19505,0.0,1.2,0.012,1.1,0.06,-0.18,-3.31,-6.44,-1.25,0.93,-0.68,-0.05,10.94,18.25,7.69,1003.27,1329.0,0.0,0.0,0.0,0.0
1775764176637396941,19605,0.0,0.9,0.008,0.6,-0.12,-0.18,-3.06,-7.63,0.12,0.38,0.05,2.72,9.25,-5.31,6.63,1018.88,1582.0,0.0,0.0,0.0,0.0
1775764176739783644,19705,0.0,0.9,0.004,0.7,-0.04,-0.16,-2.06,-6.31,0.69,-0.34,0.18,-1.2,-0.75,-1.81,7.75,1023.85,1582.0,0.0,0.0,0.0,0.0
1775764176838069174,19806,0.0,0.7,0.0,0.4,0.04,-0.08,-2.06,-7.13,0.12,0.39,0.35,-0.05,-9.06,12.44,-4.94,1039.12,1736.0,0.0,0.0,0.0,0.0
1775764176940448303,19906,0.0,0.8,0.008,0.3,0.0,-0.12,-2.06,-7.44,-0.5,0.36,0.16,-2.3,-3.0,1.81,4.69,1030.89,1347.0,0.0,0.0,0.0,0.0
1775764177038758572,20006,0.0,0.7,0.0,0.3,0.04,-0.04,-1.56,-7.88,-0.69,0.17,-0.56,-2.52,-4.19,7.31,5.5,1062.96,1347.0,0.0,0.0,0.0,0.0
1775764177137000019,20106,0.0,0.7,0.0,0.6,0.02,-0.18,-0.56,-8.69,-1.19,0.39,0.1,0.22,-9.19,10.94,14.69,1047.35,1662.0,0.0,0.0,0.0,0.0
1775764177239405000,20206,0.0,0.8,0.044,0.5,0.02,-0.04,1.25,-9.88,-1.81,0.69,0.35,2.45,-11.19,8.94,20.87,1079.42,863.0,0.0,0.0,0.0,0.0
1775764177337679222,20306,0.0,0.9,0.036,0.5,0.06,-0.16,3.56,-9.63,-2.38,1.15,0.53,-0.19,-8.88,-6.5,24.56,1089.88,863.0,0.0,0.0,0.0,0.0
1775764177440084518,20406,0.0,0.6,0.032,0.5,-0.02,0.0,5.38,-9.19,-2.06,0.62,-0.1,-1.65,7.38,-10.44,10.88,1078.39,1470.0,0.0,0.0,0.0,0.0
1775764177538404441,20505,0.0,0.9,0.024,0.7,0.0,-0.08,6.25,-7.63,-1.31,0.01,-0.04,-2.49,2.81,-15.19,10.19,1088.17,1470.0,0.0,0.0,0.0,0.0
1775764177636697365,20604,0.0,1.0,0.012,0.3,0.08,-0.06,7.19,-7.63,-1.25,0.52,-0.31,-0.9,-1.56,11.25,8.88,1100.0,2335.0,0.0,0.0,0.0,0.0
1775764177739098384,20705,0.0,1.1,0.0,0.4,0.0,-0.1,7.38,-9.25,-0.56,0.65,-0.35,0.89,9.56,14.81,-4.13,1090.57,1799.0,0.0,0.0,0.0,0.0
1775764177837385346,20805,0.0,0.9,0.004,0.5,0.04,-0.16,7.0,-9.0,0.12,-0.1,0.96,2.29,-0.06,-18.0,1.37,1083.88,1799.0,0.0,0.0,0.0,0.0
1775764177939786902,20904,0.0,1.0,0.0,0.3,0.0,-0.23,6.69,-8.63,0.0,0.0,0.09,-1.54,1.25,10.5,-13.69,1114.58,1934.0,0.0,0.0,0.0,0.0
1775764178038066105,21005,0.0,0.6,0.0,0.3,0.04,-0.1,5.19,-8.38,-0.37,-0.21,0.72,-1.63,-3.5,-8.88,-10.75,1194.84,1989.0,0.0,0.0,0.0,0.0
1775764178136361981,21104,0.0,0.7,0.008,0.3,-0.06,-0.2,4.56,-8.0,-0.75,-0.04,-0.29,-2.41,-0.75,1.94,-3.5,1140.99,1989.0,0.0,0.0,0.0,0.0
1775764178238761596,21204,0.0,0.8,0.04,0.5,0.16,-0.04,4.5,-8.81,-0.75,0.14,-0.64,-1.1,0.75,11.25,2.5,1140.82,955.0,0.0,0.0,0.0,0.0
1775764178341117474,21305,0.0,0.7,0.02,0.3,0.04,0.04,5.06,-10.13,-0.69,-0.11,0.46,1.71,-3.81,14.94,7.63,1264.64,955.0,0.0,0.0,0.0,0.0
1775764178439402461,21405,0.0,0.9,0.028,0.1,-0.06,-0.02,5.81,-10.5,-1.25,0.38,0.26,0.22,-1.44,-6.19,-0.31,1172.03,2116.0,0.0,0.0,0.0,0.0
1775764178541819631,21506,0.0,0.9,0.0,1.4,0.12,-0.23,6.06,-9.06,-1.12,0.21,0.49,-0.64,2.94,-20.75,5.38,1152.99,1351.0,0.0,0.0,0.0,0.0
1775764178640122433,21606,0.0,0.9,0.004,0.3,0.06,-0.06,6.63,-7.94,-0.69,0.46,0.29,-2.19,6.31,-2.19,4.38,1205.47,1351.0,0.0,0.0,0.0,0.0
1775764178748438313,21706,0.0,0.7,0.008,0.5,0.04,-0.1,6.69,-8.5,-0.19,0.35,-0.65,-1.74,3.75,11.19,-1.0,1217.14,1789.0,0.0,0.0,0.0,0.0
1775764178840795629,21807,0.0,0.7,0.0,0.2,-0.08,-0.14,6.06,-9.94,0.12,0.4,-0.32,0.33,7.5,13.56,-9.56,1149.56,2612.0,0.0,0.0,0.0,0.0
1775764178939026787,21907,0.0,0.9,0.004,0.5,-0.04,-0.1,4.63,-10.44,0.88,-0.8,0.72,0.85,7.44,-0.06,-14.88,1179.92,2612.0,0.0,0.0,0.0,0.0
1775764179041487292,22007,0.0,1.2,0.0,1.5,-0.04,-0.1,3.88,-10.38,0.37,0.2,0.77,0.65,-3.5,-6.13,-7.94,1134.13,2140.0,0.0,0.0,0.0,0.0
1775764179139739420,22107,0.0,0.0,0.0,1.3,-0.04,-0.06,2.69,-9.44,-0.12,0.42,-0.27,-1.79,-4.0,-12.5,-13.13,1165.69,2364.0,0.0,0.0,0.0,0.0
1775764179242179445,22208,0.048,0.0,0.0,1.6,0.08,-0.2,2.13,-8.38,-0.19,0.49,0.28,-1.89,3.88,-1.19,-1.63,1195.7,2364.0,0.0,0.0,0.0,0.0
1775764179340426667,22307,0.032,0.4,0.0,1.2,0.27,-0.14,2.25,-9.31,0.06,0.4,-0.08,-0.06,-0.81,17.81,6.13,1125.73,2130.0,0.0,0.0,0.0,0.0
1775764179442825287,22407,0.036,0.1,0.0,1.4,0.04,-0.18,3.19,-10.81,0.06,0.54,-0.03,1.66,-5.06,9.56,12.94,1166.89,1184.0,0.0,0.0,0.0,0.0
1775764179541150985,22508,0.0,1.2,0.024,0.6,0.06,-0.1,4.0,-11.06,0.12,0.44,0.43,0.72,0.56,-4.31,6.69,1174.78,1184.0,0.0,0.0,0.0,0.0
1775764179643561827,22607,0.0,1.3,0.008,0.5,-0.08,0.04,4.75,-10.0,0.44,0.62,0.41,-1.55,3.19,-12.69,7.56,1156.25,1131.0,0.0,0.0,0.0,0.0
1775764179741828398,22708,0.0,1.4,0.012,0.3,-0.08,-0.1,5.13,-9.5,0.94,0.36,-0.07,-2.35,3.81,2.38,2.63,1076.33,1131.0,0.0,0.0,0.0,0.0
1775764179850182887,22808,0.0,1.1,0.012,0.2,0.02,-0.14,5.25,-10.31,1.12,0.48,0.05,-0.37,1.88,11.44,-2.5,1147.51,1931.0,0.0,0.0,0.0,0.0
1775764179942512219,22907,0.0,1.1,0.0,0.1,0.08,-0.2,4.44,-11.44,1.0,-0.07,0.14,1.95,-0.94,7.0,-11.38,1309.57,1054.0,0.0,0.0,0.0,0.0
1775764180050902993,23008,0.0,1.3,0.004,0.3,0.0,-0.23,3.63,-11.69,0.56,-0.28,0.65,1.28,-1.31,-1.88,-4.13,1150.77,1054.0,0.0,0.0,0.0,0.0
1775764180143195843,23108,0.0,1.1,0.004,0.3,0.12,-0.06,2.94,-10.69,0.0,-0.13,0.19,-1.87,-9.63,-13.88,-11.13,1203.59,1650.0,0.0,0.0,0.0,0.0
1775764180241481571,23207,0.0,1.0,0.04,0.6,0.1,-0.04,2.25,-9.94,-0.75,0.27,0.03,-2.6,-4.0,-1.37,-1.31,1162.77,1316.0,0.0,0.0,0.0,0.0
1775764180343834776,23308,0.0,1.2,0.028,0.4,-0.12,-0.08,2.44,-10.44,-0.69,-0.05,-0.39,-0.99,2.63,9.25,4.81,1159.34,1316.0,0.0,0.0,0.0,0.0
1775764180442144373,23408,0.0,1.1,0.024,0.2,0.1,-0.08,3.31,-11.5,-0.69,0.06,-0.14,1.67,-6.31,16.12,11.69,1157.11,1968.0,0.0,0.0,0.0,0.0
1775764180540424435,23507,0.0,1.3,0.02,0.5,0.04,-0.02,5.0,-12.38,-1.37,0.93,-0.22,1.49,-5.56,-1.44,11.44,1137.22,1968.0,0.0,0.0,0.0,0.0
1775764180642856504,23608,0.0,1.2,0.012,0.2,0.0,-0.16,5.69,-11.44,-1.12,0.22,0.42,-0.61,5.06,-18.75,5.56,1161.91,1119.0,0.0,0.0,0.0,0.0
1775764180741147825,23707,0.0,1.3,0.016,0.6,-0.02,-0.04,5.88,-10.06,-0.37,-0.04,0.23,-3.31,4.38,-7.44,-0.12,1199.99,825.0,0.0,0.0,0.0,0.0
1775764180839442571,23806,0.0,1.5,0.012,0.3,0.08,-0.04,5.75,-10.38,-0.19,0.13,-0.41,-2.22,0.25,11.94,-0.44,1176.15,825.0,0.0,0.0,0.0,0.0
1775764180941870067,23906,0.0,1.5,0.008,0.1,0.06,-0.16,5.13,-12.0,-0.06,0.05,-0.29,1.21,2.56,15.81,-11.5,1144.93,1291.0,0.0,0.0,0.0,0.0
1775764181040125112,24005,0.0,1.2,0.012,0.5,0.04,-0.1,3.63,-12.0,-0.25,-0.05,-0.07,2.21,-0.94,-10.56,-15.75,1298.08,986.0,0.0,0.0,0.0,0.0
1775764181138399057,24105,0.0,1.2,0.012,0.6,0.06,-0.16,2.31,-10.38,-0.37,-0.59,0.45,-0.41,0.75,-16.87,-12.0,1132.41,986.0,0.0,0.0,0.0,0.0
1775764181240788563,24205,0.0,1.5,0.044,0.3,0.02,-0.16,1.19,-9.19,-0.63,-0.24,0.49,-2.43,0.63,-4.0,-12.06,1321.75,909.0,0.0,0.0,0.0,0.0
1775764181339078543,24305,0.0,1.4,0.044,0.5,0.06,-0.16,0.63,-9.88,-0.63,-0.02,-0.18,-2.53,1.63,15.06,0.06,1187.29,1987.0,0.0,0.0,0.0,0.0
1775764181437349876,24404,0.0,1.2,0.02,0.1,0.0,0.02,1.12,-11.69,-0.44,0.25,0.01,0.66,1.5,19.0,7.81,1197.07,1987.0,0.0,0.0,0.0,0.0
1775764181539792471,24504,0.0,1.4,0.028,0.2,0.0,-0.02,1.75,-12.44,-0.5,0.87,0.37,1.62,2.56,-4.69,3.19,1113.38,1553.0,0.0,0.0,0.0,0.0
1775764181638077859,24604,0.0,1.2,0.012,0.3,-0.16,-0.12,2.56,-11.5,0.12,0.91,0.75,0.66,6.38,-17.06,19.12,1121.1,1022.0,0.0,0.0,0.0,0.0
1775764181740469902,24704,0.0,1.3,0.004,0.2,0.0,-0.14,4.19,-10.31,1.19,0.39,-0.25,-2.7,7.69,-5.63,9.69,1211.99,1022.0,0.0,0.0,0.0,0.0
1775764181838754790,24804,0.0,1.4,0.004,0.5,0.02,-0.25,4.31,-10.06,1.75,0.43,-0.6,-2.83,1.5,2.25,-5.0,1149.91,1606.0,0.0,0.0,0.0,0.0
1775764181941154869,24904,0.0,0.7,0.0,0.1,-0.02,0.02,3.63,-10.81,1.88,0.54,0.24,-0.25,4.69,16.5,-11.69,1118.69,1606.0,0.0,0.0,0.0,0.0
1775764182039402278,25005,0.0,1.0,0.004,0.4,0.0,-0.12,2.63,-12.5,2.13,0.33,-0.2,2.67,3.31,10.31,-8.13,1103.77,1729.0,0.0,0.0,0.0,0.0
1775764182141857696,25106,0.0,1.0,0.016,0.5,0.06,-0.06,2.25,-12.5,1.69,0.04,0.65,1.05,-5.0,-12.81,-1.63,1181.81,1336.0,0.0,0.0,0.0,0.0
1775764182240098322,25206,0.0,0.8,0.048,0.3,0.02,0.02,2.0,-10.94,1.0,0.32,0.16,-2.45,-9.13,-15.19,-4.06,1176.66,1336.0,0.0,0.0,0.0,0.0
1775764182342471876,25307,0.04,0.2,0.0,1.4,-0.02,-0.06,1.94,-10.19,0.12,0.26,-0.21,-2.55,-7.25,-1.69,3.25,1157.45,2256.0,0.0,0.0,0.0,0.0
1775764182444875594,25408,0.048,0.1,0.0,1.5,0.02,-0.2,2.31,-10.44,0.0,0.16,0.27,0.03,-0.31,6.13,6.56,1148.54,1946.0,0.0,0.0,0.0,0.0
1775764182543191696,25507,0.0,1.3,0.016,0.1,-0.1,-0.02,3.44,-11.44,-0.06,0.2,-0.6,2.8,-6.13,10.44,14.81,1116.64,1946.0,0.0,0.0,0.0,0.0
1775764182641498280,25607,0.0,1.4,0.016,0.3,-0.04,-0.06,5.0,-11.25,-0.31,0.34,0.6,1.18,-0.31,-5.75,10.75,1322.78,1760.0,0.0,0.0,0.0,0.0
1775764182743881259,25707,0.0,1.4,0.0,0.6,0.1,-0.16,6.0,-10.31,-0.12,-0.09,0.07,-1.16,0.69,-13.75,10.38,1166.03,1760.0,0.0,0.0,0.0,0.0
1775764182842171529,25807,0.0,1.3,0.004,0.3,0.02,-0.02,6.69,-9.56,0.31,0.07,0.02,-3.84,5.88,2.56,2.06,1146.99,1180.0,0.0,0.0,0.0,0.0
1775764182944557471,25908,0.0,1.2,0.004,0.2,-0.04,-0.08,6.5,-10.0,0.75,0.06,-0.47,-2.04,3.19,5.25,-3.19,1172.03,1672.0,0.0,0.0,0.0,0.0
1775764183042854315,26008,0.0,1.4,0.0,0.4,0.08,-0.16,5.31,-10.75,1.19,-0.32,-0.15,1.75,10.69,8.75,-19.69,1136.19,1672.0,0.0,0.0,0.0,0.0
1775764183141103139,26107,0.0,1.2,0.0,0.3,0.02,-0.12,3.06,-11.0,1.44,0.0,0.08,1.88,2.25,-8.0,-19.75,1102.75,972.0,0.0,0.0,0.0,0.0
1775764183243563937,26207,0.0,1.2,0.048,0.3,0.08,-0.14,2.06,-9.94,1.37,0.12,0.67,0.1,4.94,-11.44,-8.13,1090.23,2213.0,0.0,0.0,0.0,0.0
1775764183341790319,26307,0.0,1.4,0.032,0.5,0.08,-0.12,0.94,-8.75,1.5,-0.16,-0.0,-3.56,1.12,-12.19,-11.38,1127.1,2213.0,0.0,0.0,0.0,0.0
1775764183444183141,26406,0.0,1.4,0.004,0.2,0.04,-0.21,0.56,-8.31,1.0,0.42,-0.21,-2.56,-6.0,2.94,1.75,1202.39,2254.0,0.0,0.0,0.0,0.0
1775764183542513681,26507,0.0,1.4,0.0,0.3,0.0,-0.04,1.25,-9.19,0.63,0.36,0.16,1.3,-7.31,10.38,13.19,1071.53,1583.0,0.0,0.0,0.0,0.0
1775764183650860796,26607,0.0,1.3,0.004,0.5,0.06,-0.2,2.81,-10.06,-0.37,0.55,0.57,3.91,-19.44,0.88,16.0,1064.16,1583.0,0.0,0.0,0.0,0.0
1775764183743204231,26706,0.0,1.2,0.008,0.3,0.02,-0.12,3.56,-10.19,-0.94,0.2,0.15,0.84,0.94,-4.13,4.81,1082.51,2312.0,0.0,0.0,0.0,0.0
1775764183841489646,26806,0.0,1.2,0.004,0.3,-0.08,-0.2,3.75,-8.81,-0.63,-0.25,0.33,-3.34,5.56,-16.56,-1.19,1099.31,914.0,0.0,0.0,0.0,0.0
1775764183943871431,26906,0.0,1.4,0.0,0.0,0.1,-0.08,3.38,-8.31,-0.12,0.11,-0.28,-3.31,6.69,7.38,-4.81,1085.42,914.0,0.0,0.0,0.0,0.0
1775764184042173566,27006,0.0,1.1,0.0,0.2,-0.04,-0.08,2.44,-9.63,0.69,-0.2,-0.06,0.37,11.75,20.62,-14.06,1047.18,1801.0,0.0,0.0,0.0,0.0
1775764184144561493,27107,0.0,1.5,0.0,0.1,0.0,-0.08,0.69,-11.31,1.56,0.57,-1.22,2.45,13.25,12.06,-21.19,1236.52,1801.0,0.0,0.0,0.0,0.0
1775764184242811851,27208,0.0,1.2,0.036,0.2,-0.06,-0.02,-1.81,-11.63,2.19,0.21,0.79,2.49,-0.31,-9.19,-18.06,1070.5,1451.0,0.0,0.0,0.0,0.0
1775764184345206147,27308,0.0,1.3,0.036,0.5,-0.02,-0.12,-2.81,-10.31,1.88,0.34,0.76,-2.28,-3.81,-6.44,-4.44,1093.83,1666.0,0.0,0.0,0.0,0.0
1775764184443500057,27408,0.0,1.3,0.02,0.4,0.08,-0.1,-3.06,-10.63,1.69,0.07,0.07,-3.55,1.44,12.38,-0.75,1079.76,1666.0,0.0,0.0,0.0,0.0
1775764184541803948,27507,0.0,1.4,0.008,0.2,0.06,-0.08,-2.81,-12.13,1.75,0.2,-0.62,-1.64,-3.88,12.56,6.31,1109.43,1490.0,0.0,0.0,0.0,0.0
1775764184644214688,27607,0.0,1.4,0.008,0.2,-0.1,-0.23,-1.63,-13.19,0.94,0.51,-0.15,1.85,-16.62,2.63,10.94,1119.38,1070.0,0.0,0.0,0.0,0.0
1775764184742505006,27708,0.0,1.5,0.008,0.3,0.0,-0.08,-0.37,-12.19,-0.12,0.51,0.63,0.74,-13.19,-13.19,13.56,1080.79,1070.0,0.0,0.0,0.0,0.0
1775764184844904376,27807,0.0,1.4,0.008,0.2,0.02,-0.12,1.5,-11.0,-0.56,0.37,0.71,0.0,-2.13,-12.69,18.37,1091.94,1755.0,0.0,0.0,0.0,0.0
1775764184947284858,27908,0.0,1.4,0.004,0.3,-0.04,0.0,2.56,-9.38,-0.25,0.22,0.06,-3.02,2.31,-15.94,4.69,1135.16,212.0,0.0,0.0,0.0,0.0
1775764185045586867,28009,0.0,1.4,0.0,0.3,-0.06,-0.16,2.44,-9.19,0.06,0.06,-0.57,-2.29,3.13,9.25,-2.44,1099.83,212.0,0.0,0.0,0.0,0.0
1775764185143870609,28108,0.0,1.4,0.004,0.6,-0.08,-0.06,2.13,-10.44,0.44,0.16,-0.11,1.19,7.44,17.56,-7.56,1191.75,2267.0,0.0,0.0,0.0,0.0
1775764185246277862,28209,0.0,1.3,0.024,0.3,0.0,-0.2,1.06,-10.75,1.0,-0.43,0.02,2.7,9.0,-17.56,-10.56,1085.25,2267.0,0.0,0.0,0.0,0.0
1775764185348612843,28310,0.0,1.1,0.04,0.3,0.18,-0.27,0.44,-8.19,1.31,-0.01,1.49,-0.17,7.19,-17.25,-7.88,1086.62,735.0,0.0,0.0,0.0,0.0
1775764185446918824,28409,0.0,1.2,0.024,0.2,0.02,0.02,-0.94,-7.69,1.63,-0.18,-0.32,-2.37,-4.88,-7.31,-14.19,1063.99,483.0,0.0,0.0,0.0,0.0
1775764185545231989,28509,0.0,1.3,0.012,0.2,-0.1,-0.18,-2.19,-7.88,0.88,-0.02,-0.02,-2.56,-4.75,18.69,-12.81,1072.73,483.0,0.0,0.0,0.0,0.0
1775764185647625706,28609,0.0,0.9,0.004,0.5,0.04,-0.06,-3.31,-10.38,0.5,-0.04,-0.53,-0.4,-0.0,25.5,-7.63,1041.35,1384.0,0.0,0.0,0.0,0.0
1775764185745958834,28708,0.0,0.9,0.0,0.1,0.0,-0.2,-3.38,-11.56,0.31,0.31,0.41,3.07,2.25,-6.19,1.12,1032.77,1747.0,0.0,0.0,0.0,0.0
1775764185844221448,28808,0.0,1.0,0.008,0.5,0.08,-0.2,-3.38,-9.56,0.44,0.24,0.51,-1.04,-3.31,-19.62,2.69,1049.75,1747.0,0.0,0.0,0.0,0.0
1775764185946611776,28908,0.0,0.9,0.004,0.2,0.0,-0.18,-2.31,-9.13,0.12,0.58,0.44,-0.37,-1.63,1.0,11.81,1054.04,683.0,0.0,0.0,0.0,0.0
1775764186044896073,29007,0.0,1.0,0.008,0.5,-0.06,-0.18,-1.69,-8.75,-0.19,0.7,-0.11,-2.13,-4.06,-7.31,0.94,1058.16,1083.0,0.0,0.0,0.0,0.0
1775764186143140428,29107,0.0,0.8,0.02,0.5,0.06,-0.16,-1.94,-9.13,-0.44,0.32,-0.41,-1.68,0.69,13.38,-3.13,1032.26,1083.0,0.0,0.0,0.0,0.0
1775764186245582156,29207,0.0,0.9,0.04,0.7,0.0,-0.14,-2.31,-10.5,-0.56,0.19,0.22,2.76,-1.5,5.56,-4.56,1078.05,1307.0,0.0,0.0,0.0,0.0
1775764186343826066,29306,0.0,0.9,0.04,0.5,-0.02,-0.2,-2.56,-10.13,-0.5,-0.7,0.24,-0.41,5.81,-4.44,-6.88,1158.14,1307.0,0.0,0.0,0.0,0.0
1775764186446235481,29407,0.0,1.1,0.0,1.4,0.0,-0.27,-3.94,-9.5,-0.31,-1.14,-0.03,-0.76,-1.81,-14.25,-16.12,1080.11,1297.0,0.0,0.0,0.0,0.0
1775764186544555349,29507,0.032,0.1,0.0,1.3,0.08,-0.1,-4.94,-8.25,-1.12,-0.21,-0.04,-3.21,-6.19,-2.06,-3.94,1077.53,1664.0,0.0,0.0,0.0,0.0
1775764186646947414,29607,0.0,1.2,0.008,0.2,0.0,-0.14,-5.38,-8.94,-1.06,-0.55,-0.52,-1.77,3.56,15.81,-3.56,1111.66,1664.0,0.0,0.0,0.0,0.0
1775764186745291558,29707,0.0,1.1,0.004,0.5,-0.08,-0.04,-5.19,-10.63,-1.25,0.11,0.43,3.1,-6.75,16.31,7.06,1031.4,1148.0,0.0,0.0,0.0,0.0
1775764186843508840,29807,0.0,1.1,0.004,0.5,-0.1,-0.06,-4.88,-11.06,-1.81,0.6,0.46,1.53,-1.5,-0.06,-7.38,1076.33,938.0,0.0,0.0,0.0,0.0
1775764186945926662,29907,0.0,0.6,0.008,0.3,-0.1,0.0,-5.5,-9.69,-1.44,0.37,1.13,-0.9,12.44,-20.5,-5.13,1097.94,938.0,0.0,0.0,0.0,0.0
1775764187044207607,30007,0.0,1.0,0.004,0.4,-0.1,-0.12,-6.19,-8.56,-0.5,0.12,0.11,-3.61,8.69,-4.13,-9.19,1087.31,1575.0,0.0,0.0,0.0,0.0
1775764187142502551,30106,0.0,1.0,0.012,0.0,-0.06,-0.12,-7.44,-9.06,-0.25,0.37,-0.39,-2.22,1.0,11.25,-13.13,1065.02,1575.0,0.0,0.0,0.0,0.0
1775764187244903390,30205,0.0,0.7,0.056,0.2,-0.12,-0.08,-9.13,-10.06,-0.12,0.12,0.03,1.57,8.56,8.06,-23.37,1052.32,1247.0,0.0,0.0,0.0,0.0
1775764187343147449,30305,0.0,0.9,0.028,0.6,-0.06,-0.04,-11.31,-9.94,0.12,-0.01,0.51,2.07,4.69,-15.06,-19.37,1033.29,1652.0,0.0,0.0,0.0,0.0
1775764187441442818,30404,0.0,1.1,0.024,0.3,-0.06,-0.16,-12.56,-8.88,0.37,0.21,0.65,0.44,9.19,-2.56,-13.56,1073.25,1652.0,0.0,0.0,0.0,0.0
1775764187543866637,30504,0.0,1.1,0.016,0.3,0.0,-0.1,-13.69,-8.69,0.63,0.02,0.24,-2.32,-3.69,-1.5,-4.0,1122.3,1436.0,0.0,0.0,0.0,0.0
1775764187642161266,30604,0.0,1.1,0.012,0.2,0.1,-0.14,-13.69,-9.25,0.19,0.51,-0.27,-2.99,-3.38,12.63,2.94,1090.57,1092.0,0.0,0.0,0.0,0.0
1775764187740465209,30704,0.0,0.7,0.0,0.3,0.1,-0.16,-12.69,-10.44,0.12,0.83,0.24,0.16,-5.0,9.56,18.5,1084.05,1092.0,0.0,0.0,0.0,0.0
1775764187842845901,30803,0.0,0.9,0.004,0.2,0.1,-0.1,-10.63,-11.0,0.06,0.18,1.0,3.08,-5.88,0.63,20.37,1118.69,1398.0,0.0,0.0,0.0,0.0
1775764187941135642,30903,0.0,1.0,0.012,0.5,-0.06,-0.2,-8.44,-9.94,-0.63,1.28,0.9,0.7,-12.0,-20.37,25.12,1070.85,897.0,0.0,0.0,0.0,0.0
1775764188039427548,31002,0.0,1.1,0.0,0.1,0.14,-0.08,-5.44,-8.25,-0.56,0.51,-0.01,-2.33,-0.25,-12.5,28.69,1057.64,897.0,0.0,0.0,0.0,0.0
1775764188137690940,31101,0.0,1.0,0.0,1.4,0.0,-0.1,-3.63,-8.13,-0.37,0.51,-0.02,-2.12,4.94,4.81,13.31,1114.75,1396.0,0.0,0.0,0.0,0.0
1775764188240119016,31201,0.0,1.4,0.04,0.1,-0.08,-0.08,-2.75,-8.94,0.06,0.3,0.03,0.07,3.0,10.0,6.56,1025.23,1396.0,0.0,0.0,0.0,0.0
1775764188338353465,31302,0.0,1.2,0.036,0.4,-0.08,-0.16,-2.38,-10.31,0.37,0.36,-0.28,1.49,-0.0,15.5,4.63,1148.54,1607.0,0.0,0.0,0.0,0.0
1775764188440754006,31401,0.0,1.2,0.032,0.5,0.16,-0.1,-1.81,-10.31,0.5,0.28,0.72,0.11,-1.0,-4.44,6.31,1056.1,1747.0,0.0,0.0,0.0,0.0
1775764188539088837,31501,0.0,1.5,0.024,0.3,0.12,-0.12,-1.63,-10.06,0.5,-0.11,1.01,-0.82,-3.88,-1.5,1.69,1070.33,1747.0,0.0,0.0,0.0,0.0
1775764188647412687,31601,0.0,1.2,0.0,0.3,0.06,-0.1,-1.31,-10.25,0.0,0.08,0.31,-2.43,-4.69,6.63,2.81,1073.93,2239.0,0.0,0.0,0.0,0.0
1775764188739765880,31700,0.0,1.3,0.008,0.2,-0.1,-0.2,-0.94,-10.94,-0.19,-0.07,-0.36,-1.63,-2.44,5.19,4.81,1101.37,1856.0,0.0,0.0,0.0,0.0
1775764188842165920,31801,0.0,1.3,0.004,0.6,0.04,-0.2,-0.25,-11.31,-0.5,-0.06,0.02,0.35,-5.88,4.63,8.75,1057.81,1856.0,0.0,0.0,0.0,0.0
1775764188940442330,31902,0.0,1.3,0.0,1.0,0.02,-0.27,0.94,-11.56,-1.44,0.27,0.21,1.62,-17.12,-5.94,16.31,1044.78,1369.0,0.0,0.0,0.0,0.0
1775764189042832667,32003,0.0,0.8,0.004,0.6,-0.02,-0.23,2.13,-10.75,-2.06,0.73,0.61,-0.08,-1.69,-9.06,6.25,1088.68,1731.0,0.0,0.0,0.0,0.0
1775764189141129374,32104,0.0,1.0,0.016,0.3,0.0,0.0,2.5,-9.06,-1.44,0.0,1.05,-1.34,10.19,-15.88,4.81,1087.31,1731.0,0.0,0.0,0.0,0.0
1775764189244005729,32203,0.0,1.2,0.0,1.2,-0.14,-0.02,2.94,-8.25,-0.37,-0.09,0.14,-1.86,6.88,-0.31,4.31,1089.37,945.0,0.0,0.0,0.0,0.0
1775764189341780365,32303,0.0,1.5,0.036,0.3,-0.12,0.0,2.94,-8.31,0.12,0.25,-0.52,-1.4,5.0,1.63,-2.0,1127.44,945.0,0.0,0.0,0.0,0.0
1775764189444175146,32404,0.0,1.3,0.024,0.0,0.04,-0.18,2.5,-8.88,0.88,0.32,-0.19,-0.09,12.63,7.69,-7.0,1104.29,2010.0,0.0,0.0,0.0,0.0
1775764189542498536,32503,0.0,1.5,0.02,0.5,0.08,-0.12,1.44,-9.13,1.81,0.09,0.31,2.5,8.44,-9.63,-10.94,1169.97,2362.0,0.0,0.0,0.0,0.0
1775764189644881188,32604,0.0,1.5,0.02,0.1,-0.14,-0.12,1.0,-7.75,2.19,0.11,1.23,-0.02,4.19,-4.81,-1.25,1087.48,2362.0,0.0,0.0,0.0,0.0
1775764189743169007,32705,0.0,1.4,0.004,0.1,-0.06,-0.04,0.69,-8.0,1.94,0.28,0.74,-0.48,-6.69,-3.25,-4.56,1106.0,813.0,0.0,0.0,0.0,0.0
1775764189845572769,32805,0.0,1.4,0.012,0.3,-0.02,-0.04,-0.06,-8.06,1.25,0.21,-0.23,-1.96,-5.69,4.88,-9.56,1074.96,1428.0,0.0,0.0,0.0,0.0
1775764189953911705,32906,0.0,1.4,0.016,0.2,0.0,-0.16,-0.81,-8.13,0.88,0.15,-0.18,-1.22,-0.0,1.31,-5.0,1071.02,1428.0,0.0,0.0,0.0,0.0
1775764190046247461,33006,0.0,1.1,0.0,0.1,0.02,-0.25,-0.69,-8.38,0.81,0.07,0.27,0.3,-2.5,5.63,7.5,1076.33,1837.0,0.0,0.0,0.0,0.0
1775764190144528617,33105,0.0,1.4,0.012,0.5,0.0,-0.1,0.56,-9.25,0.25,0.6,0.13,1.51,-12.38,3.81,15.75,1083.54,625.0,0.0,0.0,0.0,0.0
1775764190246907863,33205,0.0,1.2,0.056,0.2,0.02,-0.14,1.37,-8.81,-0.06,0.59,0.39,0.02,1.81,-7.38,2.5,1090.23,625.0,0.0,0.0,0.0,0.0
1775764190345175982,33305,0.0,1.5,0.016,0.1,0.08,-0.2,1.75,-7.69,0.37,0.18,1.19,-0.96,5.94,-5.44,5.0,1131.39,2225.0,0.0,0.0,0.0,0.0
1775764190443539428,33405,0.0,1.1,0.008,0.6,0.06,-0.1,2.38,-7.88,0.69,0.27,0.31,-1.56,-0.12,6.63,5.88,1098.8,1796.0,0.0,0.0,0.0,0.0
1775764190545910675,33506,0.0,1.4,0.024,0.2,0.14,-0.23,2.5,-8.63,0.63,0.42,-0.48,-1.11,-1.12,5.44,-2.75,1101.89,1796.0,0.0,0.0,0.0,0.0
1775764190648297772,33607,0.0,1.3,0.012,0.3,0.08,-0.16,2.0,-9.31,0.94,0.19,0.05,0.36,10.06,6.56,-8.69,1057.81,1086.0,0.0,0.0,0.0,0.0
1775764190746558540,33708,0.0,1.2,0.0,0.2,0.08,-0.14,1.31,-10.19,1.31,0.12,0.15,1.49,-0.5,9.06,-5.56,1106.0,1086.0,0.0,0.0,0.0,0.0
1775764190848966025,33809,0.0,1.4,0.004,0.6,-0.12,0.02,0.81,-11.13,1.12,0.39,1.0,0.43,3.31,5.56,-6.44,1092.8,1006.0,0.0,0.0,0.0,0.0
1775764190947261661,33909,0.0,1.4,0.012,0.5,-0.06,-0.14,0.5,-10.69,1.37,0.06,0.85,-1.44,-0.25,-10.63,1.25,1117.67,1270.0,0.0,0.0,0.0,0.0
1775764191049651325,34009,0.0,1.4,0.004,0.2,0.08,-0.08,0.63,-10.0,1.06,0.07,-0.0,-1.98,-6.75,-0.69,0.0,1090.57,1270.0,0.0,0.0,0.0,0.0
1775764191147946447,34109,0.0,1.4,0.008,0.5,0.04,-0.18,0.69,-10.19,0.37,0.13,-0.52,-0.86,-6.88,3.0,0.19,1059.36,1718.0,0.0,0.0,0.0,0.0
1775764191250350822,34209,0.0,1.4,0.04,0.5,-0.14,-0.1,1.31,-10.13,-0.19,0.12,0.04,0.0,-6.56,-1.31,10.63,1075.48,1845.0,0.0,0.0,0.0,0.0
1775764191352697869,34310,0.0,1.5,0.04,0.7,0.12,-0.14,3.06,-10.13,-0.63,0.6,0.51,1.88,-7.69,-6.81,21.31,1062.96,1845.0,0.0,0.0,0.0,0.0
1775764191450975455,34411,0.0,1.2,0.008,0.3,0.06,-0.18,4.88,-9.19,-0.44,0.41,0.22,-0.89,2.38,-5.88,18.5,1106.86,972.0,0.0,0.0,0.0,0.0
1775764191549291927,34511,0.0,1.5,0.02,0.3,0.14,-0.25,6.38,-8.56,0.19,0.52,0.76,-0.54,3.56,1.31,13.0,1120.92,591.0,0.0,0.0,0.0,0.0
1775764191651691192,34611,0.016,0.2,0.0,1.4,0.0,-0.2,7.44,-8.63,0.56,0.46,0.04,-1.52,1.75,-0.06,7.69,1059.18,591.0,0.0,0.0,0.0,0.0
1775764191749988888,34711,0.024,0.3,0.0,1.1,-0.06,-0.16,7.5,-8.5,0.44,0.38,-0.41,-1.18,0.75,-5.06,-1.94,1079.94,851.0,0.0,0.0,0.0,0.0
1775764191852389097,34811,0.02,0.1,0.0,0.9,-0.08,-0.12,7.13,-9.0,0.31,0.06,0.1,0.37,2.56,7.0,-5.63,1041.52,851.0,0.0,0.0,0.0,0.0
1775764191950666350,34911,0.012,0.1,0.0,1.2,0.0,-0.18,6.5,-8.81,0.0,0.17,1.18,0.84,-6.19,-10.56,-4.5,1069.65,1426.0,0.0,0.0,0.0,0.0
1775764192048961422,35010,0.0,0.7,0.02,0.5,-0.14,-0.21,6.13,-8.19,-0.06,-0.27,1.35,-0.09,3.25,-4.81,-7.06,1095.37,1221.0,0.0,0.0,0.0,0.0
1775764192151358893,35110,0.0,0.7,0.008,0.6,-0.04,-0.02,5.5,-7.63,-0.19,-0.45,0.7,-0.67,-5.69,-11.0,-0.94,1049.92,1221.0,0.0,0.0,0.0,0.0
1775764192249673446,35210,0.0,0.6,0.048,0.3,-0.04,0.0,5.94,-7.0,-0.69,0.08,0.2,-1.26,-5.13,0.81,7.25,1047.01,994.0,0.0,0.0,0.0,0.0
1775764192347858675,35309,0.0,1.0,0.032,0.3,0.04,-0.21,6.69,-7.25,-0.88,-0.17,0.27,-0.76,-2.31,8.06,7.94,1052.84,1749.0,0.0,0.0,0.0,0.0
1775764192450294069,35409,0.0,1.1,0.008,0.2,-0.02,0.0,7.69,-7.88,-1.06,-0.14,0.95,1.77,-2.69,-5.31,13.25,1080.28,1749.0,0.0,0.0,0.0,0.0
1775764192558687272,35510,0.0,0.9,0.0,0.3,0.0,-0.2,8.88,-6.88,-1.19,0.45,1.43,-1.07,-4.13,-4.19,11.13,1089.37,1789.0,0.0,0.0,0.0,0.0
1775764192651000963,35610,0.0,0.9,0.0,0.1,0.06,-0.2,10.0,-7.19,-1.19,1.16,1.29,0.47,7.13,3.88,10.25,1046.84,1135.0,0.0,0.0,0.0,0.0
1775764192749275352,35710,0.0,0.7,0.0,0.6,0.06,-0.2,10.75,-6.63,-0.44,0.46,1.02,-0.75,3.31,-11.88,6.63,1047.52,1135.0,0.0,0.0,0.0,0.0
1775764192851710431,35810,0.0,1.0,0.0,0.5,-0.04,-0.02,11.0,-5.63,-0.44,0.44,0.66,-0.72,-0.06,-4.06,-3.06,1037.4,735.0,0.0,0.0,0.0,0.0
1775764192949973117,35909,0.0,0.7,0.0,0.2,0.02,-0.18,9.81,-5.13,-0.75,0.34,0.81,0.27,-1.81,-5.56,-21.19,1108.58,735.0,0.0,0.0,0.0,0.0
1775764193048246271,36009,0.0,0.9,0.0,0.3,-0.14,-0.08,7.31,-3.81,-1.37,-0.08,0.89,0.01,-7.06,-14.38,-26.19,1108.06,1838.0,0.0,0.0,0.0,0.0
1775764193150719537,36109,0.0,0.9,0.012,0.5,0.04,0.02,4.5,-3.88,-1.88,0.0,0.58,-0.68,-3.19,13.06,-30.56,1090.05,1319.0,0.0,0.0,0.0,0.0
1775764193248939196,36208,0.0,0.9,0.052,0.3,-0.04,-0.12,1.94,-4.13,-2.69,0.13,0.66,-0.92,-3.38,1.75,-21.75,1086.62,1319.0,0.0,0.0,0.0,0.0
1775764193347202611,36307,0.0,0.7,0.024,0.1,0.06,-0.14,0.31,-3.63,-3.13,-0.11,0.43,-0.24,-2.81,1.06,-13.75,1059.7,2424.0,0.0,0.0,0.0,0.0
1775764193449598271,36407,0.0,0.9,0.008,0.3,-0.02,-0.21,-0.69,-3.94,-3.25,-0.35,0.19,-0.08,-3.44,6.56,-8.63,1212.33,1035.0,0.0,0.0,0.0,0.0
1775764193547924681,36507,0.0,0.8,0.0,0.3,0.08,-0.06,-1.25,-4.31,-3.31,-0.19,0.21,-0.46,-0.5,9.0,-2.88,1071.7,1035.0,0.0,0.0,0.0,0.0
1775764193650312083,36608,0.0,1.1,0.004,0.3,0.0,-0.16,-1.5,-5.0,-3.06,-0.36,0.09,-0.34,2.5,5.25,-1.63,1067.59,1875.0,0.0,0.0,0.0,0.0
1775764193748601607,36708,0.0,0.7,0.0,0.5,0.02,-0.16,-1.69,-5.31,-2.31,-0.48,0.35,-0.49,2.88,2.5,-1.63,1084.91,1863.0,0.0,0.0,0.0,0.0
1775764193846898241,36807,0.0,0.9,0.0,0.3,-0.06,-0.25,-1.94,-5.5,-1.63,-0.55,-0.56,-0.63,5.94,8.25,-5.06,1082.85,1863.0,0.0,0.0,0.0,0.0
1775764193949282940,36908,0.0,0.9,0.0,0.4,-0.02,-0.14,-2.56,-6.0,-1.19,-0.49,0.12,-0.21,3.44,7.06,-5.19,1078.22,1127.0,0.0,0.0,0.0,0.0
1775764194047598413,37008,0.0,0.9,0.004,1.4,0.0,-0.06,-3.06,-7.13,-0.88,-0.03,-0.98,-1.23,4.44,8.5,-5.5,1104.63,1127.0,0.0,0.0,0.0,0.0
1775764194149970840,37107,0.0,1.4,0.02,0.3,-0.02,-0.02,-3.75,-6.31,-1.0,-0.08,0.11,-0.25,-4.5,-25.31,-2.81,1048.21,1769.0,0.0,0.0,0.0,0.0
1775764194248257094,37207,0.0,1.4,0.024,0.5,-0.18,-0.14,-3.81,-5.06,-0.75,0.66,-0.39,0.1,8.63,-0.12,-6.06,1079.76,1949.0,0.0,0.0,0.0,0.0
1775764194350623706,37308,0.0,1.4,0.016,0.3,-0.1,-0.29,-5.13,-5.5,-0.44,0.48,0.78,-0.11,1.19,5.69,-11.44,1108.4,1949.0,0.0,0.0,0.0,0.0
1775764194448933273,37408,0.0,1.3,0.016,0.4,-0.02,-0.04,-5.81,-6.31,-0.31,1.01,0.25,-0.49,4.25,9.13,-4.75,1061.41,1965.0,0.0,0.0,0.0,0.0
1775764194551334328,37508,0.0,1.5,0.008,0.3,-0.14,-0.12,-6.19,-7.06,-0.56,0.46,0.35,-0.52,4.94,8.25,-1.37,1048.04,2083.0,0.0,0.0,0.0,0.0
1775764194649623748,37608,0.0,1.5,0.0,0.5,-0.08,-0.1,-6.25,-7.5,-0.63,0.2,0.22,-0.53,0.63,2.56,1.44,1110.12,2083.0,0.0,0.0,0.0,0.0
1775764194757959030,37708,0.0,1.2,0.004,0.5,-0.02,-0.02,-6.13,-7.75,-0.81,0.33,-0.35,-0.48,-2.69,2.81,-0.5,1119.9,1691.0,0.0,0.0,0.0,0.0
1775764194850308334,37809,0.0,1.1,0.0,0.6,0.06,-0.06,-6.25,-8.0,-1.25,0.14,-0.12,-0.69,-0.44,-4.31,-1.37,1082.17,1595.0,0.0,0.0,0.0,0.0
1775764194952697278,37910,0.0,1.2,0.008,0.5,0.04,-0.02,-6.38,-7.44,-1.37,-0.09,-0.03,-0.39,-2.94,-4.38,-1.81,1059.87,1595.0,0.0,0.0,0.0,0.0
1775764195050983705,38010,0.0,1.6,0.004,0.3,0.1,-0.18,-6.44,-7.19,-1.88,0.13,-0.08,-0.36,-4.81,-3.94,0.94,1089.88,1115.0,0.0,0.0,0.0,0.0
1775764195153374303,38110,0.0,1.5,0.016,0.2,0.12,-0.2,-6.13,-6.81,-2.06,0.06,0.08,-0.46,-0.88,-3.06,3.19,1069.65,1115.0,0.0,0.0,0.0,0.0
1775764195251669973,38210,0.0,1.2,0.064,0.3,-0.06,-0.04,-5.88,-6.5,-2.06,-0.12,-0.0,-0.25,-0.69,-2.69,2.94,1068.96,1913.0,0.0,0.0,0.0,0.0
1775764195354014427,38310,0.0,1.2,0.04,0.3,0.02,0.02,-5.56,-6.44,-2.19,-0.03,0.08,-0.35,-2.5,-0.31,2.81,1078.56,1680.0,0.0,0.0,0.0,0.0
1775764195452352722,38411,0.0,1.3,0.024,0.3,0.2,-0.06,-5.38,-6.5,-2.38,-0.01,-0.08,-0.48,-2.31,2.44,1.25,1075.3,1680.0,0.0,0.0,0.0,0.0
1775764195554737469,38511,0.0,1.5,0.008,0.3,-0.08,-0.1,-5.31,-6.81,-2.69,0.0,-0.22,-0.57,-3.5,-0.12,0.63,1050.78,2727.0,0.0,0.0,0.0,0.0
1775764195653021806,38611,0.0,1.2,0.0,0.5,0.06,-0.08,-5.38,-6.75,-2.88,0.01,-0.07,-0.38,-0.31,-1.19,-2.06,1076.33,1113.0,0.0,0.0,0.0,0.0
1775764195755415163,38712,0.0,1.2,0.004,0.2,-0.04,-0.06,-5.69,-6.81,-2.94,0.04,-0.13,-0.46,-0.5,1.63,-4.44,1089.37,1113.0,0.0,0.0,0.0,0.0
1775764195853683317,38813,0.0,1.3,0.004,0.5,0.08,-0.02,-6.06,-7.0,-3.06,0.16,-0.1,-0.46,-0.44,0.19,-2.56,1088.51,822.0,0.0,0.0,0.0,0.0
1775764195956091802,38914,0.0,1.1,0.0,0.1,-0.08,-0.04,-6.25,-7.06,-3.13,0.07,-0.0,-0.48,0.19,-0.88,-1.81,1120.07,1315.0,0.0,0.0,0.0,0.0
1775764196054342572,39014,0.0,1.3,0.0,0.5,0.1,-0.12,-6.31,-6.94,-3.25,0.12,-0.01,-0.49,0.44,-2.25,0.31,1171.0,1315.0,0.0,0.0,0.0,0.0
1775764196156782580,39114,0.0,1.4,0.024,0.1,-0.1,-0.02,-6.25,-6.63,-3.19,0.07,0.07,-0.43,1.63,-3.19,1.0,1134.3,2410.0,0.0,0.0,0.0,0.0
1775764196255027134,39214,0.0,1.4,0.04,0.5,0.08,-0.06,-6.06,-6.44,-3.13,0.05,0.07,-0.34,-0.0,-1.94,3.19,1086.45,2410.0,0.0,0.0,0.0,0.0
1775764196357411648,39314,0.0,1.3,0.036,0.2,0.14,-0.1,-5.69,-6.25,-3.0,-0.03,0.09,-0.44,0.69,-1.31,3.69,1069.47,2023.0,0.0,0.0,0.0,0.0
1775764196455716863,39414,0.0,1.4,0.028,1.3,0.04,-0.14,-5.38,-6.13,-3.0,-0.06,0.1,-0.6,-0.69,-2.38,2.5,1090.05,1891.0,0.0,0.0,0.0,0.0
1775764196558139781,39515,0.032,0.3,0.0,1.0,-0.02,-0.1,-5.13,-5.75,-3.0,0.14,-0.18,-0.43,0.94,-6.63,3.13,1092.8,1891.0,0.0,0.0,0.0,0.0
1775764196656431257,39615,0.0,0.9,0.02,0.1,-0.06,-0.14,-4.75,-5.06,-2.88,-0.2,0.18,-0.12,-0.75,-7.19,4.81,1092.11,1659.0,0.0,0.0,0.0,0.0
1775764196758846119,39714,0.0,1.0,0.02,0.7,-0.12,-0.12,-4.38,-4.81,-3.06,-0.19,0.22,-0.31,-4.13,2.13,2.31,1057.13,1357.0,0.0,0.0,0.0,0.0
1775764196857111357,39815,0.0,1.1,0.004,0.5,-0.12,-0.14,-4.31,-5.13,-3.31,-0.11,0.11,-0.35,-4.06,5.69,-2.13,1072.56,1357.0,0.0,0.0,0.0,0.0
1775764196959541126,39916,0.0,0.7,0.008,0.2,-0.02,-0.06,-4.63,-5.63,-3.69,0.0,-0.0,-0.47,-2.06,4.81,-2.75,1108.23,2054.0,0.0,0.0,0.0,0.0
1775764197057783668,40015,0.0,0.7,0.016,0.1,0.0,-0.1,-4.81,-6.13,-3.69,0.05,-0.1,-0.5,2.5,4.25,-1.31,1129.84,1145.0,0.0,0.0,0.0,0.0
1775764197156057509,40115,0.0,0.9,0.02,0.2,0.02,-0.12,-5.06,-6.5,-3.5,0.25,-0.26,-0.59,5.19,1.19,-3.88,1096.4,1145.0,0.0,0.0,0.0,0.0
1775764197258486156,40215,0.0,0.7,0.028,0.0,0.04,-0.14,-5.44,-6.63,-3.13,-0.13,-0.01,-0.34,3.0,1.88,-2.44,1074.79,1226.0,0.0,0.0,0.0,0.0
1775764197356724203,40315,0.0,0.9,0.036,0.5,0.0,-0.18,-5.75,-6.94,-3.0,-0.01,0.17,-0.41,-0.12,5.69,-4.81,1089.71,927.0,0.0,0.0,0.0,0.0
1775764197459133093,40416,0.0,0.7,0.012,0.2,-0.08,-0.16,-6.38,-7.63,-3.13,-0.06,0.19,-0.3,-1.25,9.81,-7.0,1091.43,927.0,0.0,0.0,0.0,0.0
1775764197561555074,40517,0.0,0.9,0.012,0.3,-0.06,-0.1,-6.88,-8.56,-3.44,0.01,0.06,-0.47,-3.44,9.5,-2.75,1225.2,1378.0,0.0,0.0,0.0,0.0
1775764197659833062,40616,0.0,1.1,0.012,0.3,-0.04,-0.21,-7.13,-9.13,-3.69,0.21,0.02,-0.67,0.31,3.63,-3.56,1074.45,1378.0,0.0,0.0,0.0,0.0
1775764197758123808,40716,0.0,0.9,0.004,0.3,-0.02,-0.04,-7.5,-9.25,-3.69,0.02,0.01,-0.54,2.88,-1.06,-2.56,1054.9,1297.0,0.0,0.0,0.0,0.0
1775764197860560937,40816,0.0,0.9,0.0,0.3,0.02,-0.08,-7.69,-9.06,-3.38,-0.13,-0.04,-0.44,1.63,-3.31,-0.81,1048.38,1901.0,0.0,0.0,0.0,0.0
1775764197958791280,40915,0.0,1.0,0.0,0.5,0.08,-0.21,-7.69,-8.69,-3.31,0.13,0.02,-0.36,-0.37,-3.81,-0.06,1081.14,1901.0,0.0,0.0,0.0,0.0
1775764198057096200,41015,0.0,0.9,0.0,0.4,0.08,0.0,-7.63,-8.5,-3.31,-0.07,0.09,0.19,-0.06,0.69,1.37,1042.38,2428.0,0.0,0.0,0.0,0.0
1775764198159543318,41115,0.0,1.0,0.012,0.2,-0.14,-0.04,-7.44,-8.94,-3.31,0.06,-0.17,0.08,0.56,4.75,2.31,1130.36,1149.0,0.0,0.0,0.0,0.0
1775764198257799672,41214,0.0,1.0,0.028,0.3,0.0,-0.08,-7.44,-9.31,-3.19,-0.02,0.11,-0.02,1.37,4.25,-1.31,1118.87,1149.0,0.0,0.0,0.0,0.0
1775764198356034490,41314,0.0,0.7,0.024,0.2,-0.16,-0.04,-7.69,-9.63,-3.25,-0.03,-0.44,-0.14,-1.0,-1.56,-3.56,1050.27,2126.0,0.0,0.0,0.0,0.0
1775764198454332544,41413,0.0,0.9,0.024,0.2,-0.08,-0.08,-8.0,-9.13,-3.38,0.09,0.15,0.21,-0.06,-6.13,-3.56,1037.57,2126.0,0.0,0.0,0.0,0.0
1775764198556740332,41512,0.0,1.0,0.008,0.3,0.18,-0.02,-8.13,-8.81,-3.38,0.11,0.23,0.02,0.75,0.69,1.37,1057.81,1999.0,0.0,0.0,0.0,0.0
1775764198655073420,41612,0.0,1.2,0.004,0.5,0.0,-0.12,-8.0,-8.88,-3.25,0.0,-0.2,0.07,0.5,0.63,1.37,1039.98,1234.0,0.0,0.0,0.0,0.0
1775764198753316441,41712,0.0,1.0,0.0,0.6,0.02,-0.04,-7.94,-8.75,-3.38,0.03,-0.05,-0.11,-2.69,-3.44,0.0,1122.98,1234.0,0.0,0.0,0.0,0.0
1775764198855746949,41811,0.0,0.9,0.0,0.3,-0.02,-0.14,-7.81,-8.25,-3.69,0.12,-0.2,-0.12,-2.75,-9.13,2.75,1062.61,1474.0,0.0,0.0,0.0,0.0
1775764198954007932,41912,0.0,0.9,0.0,0.3,-0.06,-0.14,-7.19,-7.38,-3.94,0.21,-0.19,-0.19,-2.38,-11.38,8.56,1073.76,2000.0,0.0,0.0,0.0,0.0
1775764199056402318,42012,0.0,1.0,0.0,0.5,0.0,-0.2,-6.13,-7.0,-4.25,0.39,-0.66,-0.38,1.12,-10.44,10.0,1039.8,2000.0,0.0,0.0,0.0,0.0
1775764199154702718,42112,0.0,0.9,0.02,0.1,0.02,-0.25,-4.63,-5.69,-4.5,0.48,0.51,-0.79,-3.88,-30.31,20.0,1091.25,2067.0,0.0,0.0,0.0,0.0
1775764199257113497,42213,0.0,0.7,0.032,0.3,0.08,-0.14,-2.13,-2.94,-4.88,0.36,0.62,-0.73,-6.19,-24.69,26.37,1047.01,1442.0,0.0,0.0,0.0,0.0
1775764199355337255,42312,0.0,0.9,0.016,0.3,-0.06,-0.02,0.37,-0.94,-4.94,0.5,0.29,-0.47,4.25,-18.75,22.62,1003.45,1442.0,0.0,0.0,0.0,0.0
1775764199457748812,42412,0.0,0.8,0.008,0.3,-0.14,0.0,2.06,-0.19,-4.44,-0.16,-0.21,-0.87,4.88,0.37,11.88,931.42,967.0,0.0,0.0,0.0,0.0
1775764199556057785,42512,0.0,0.7,0.0,0.5,-0.08,-0.14,2.63,-0.88,-4.06,-0.32,0.04,-1.29,3.94,8.44,1.75,903.46,967.0,0.0,0.0,0.0,0.0
1775764199654305745,42612,0.0,0.8,0.0,0.2,0.02,-0.02,2.13,-1.25,-3.31,-0.91,0.36,-1.6,6.13,-1.12,-8.06,853.21,2297.0,0.0,0.0,0.0,0.0
1775764199756729635,42713,0.0,0.6,0.0,0.8,0.02,-0.2,1.44,-0.75,-3.25,-0.9,0.49,-1.04,-1.81,-9.88,-4.06,809.48,861.0,0.0,0.0,0.0,0.0
1775764199859145247,42814,0.0,0.8,0.0,0.5,-0.06,-0.1,1.31,0.81,-3.25,-0.57,0.52,-0.69,-1.88,-13.0,-0.37,743.11,861.0,0.0,0.0,0.0,0.0
1775764199957416871,42914,0.0,0.7,0.0,0.5,-0.08,0.04,1.75,2.06,-3.06,-0.49,0.25,0.0,-2.88,-7.06,8.63,609.68,743.0,0.0,0.0,0.0,0.0
1775764200059798122,43015,0.0,0.5,0.0,0.2,-0.06,-0.14,2.94,2.63,-3.5,-0.41,-0.22,0.48,-6.63,-3.75,12.5,582.76,769.0,0.0,0.0,0.0,0.0
1775764200162192711,43116,0.0,0.9,0.0,0.3,0.18,-0.18,3.81,2.88,-3.88,0.01,-0.37,1.44,-0.94,-4.69,6.06,11970.7,507.0,0.0,0.0,0.0,0.0
1775764200260494828,43216,0.0,0.9,0.02,0.3,0.0,-0.06,4.19,3.25,-3.63,0.11,-0.12,1.71,8.0,-5.75,0.06,11971.73,507.0,0.0,0.0,0.0,0.0
1775764200362832254,43316,0.0,0.9,0.012,0.6,-0.1,-0.04,3.81,3.19,-2.69,-0.03,0.1,1.61,11.13,7.25,-5.81,292.75,365.0,0.0,0.0,0.0,0.0
1775764200461188126,43417,0.0,0.9,0.0,0.3,0.06,-0.12,3.69,2.0,-1.69,-0.28,0.67,0.96,6.38,14.5,5.25,307.84,365.0,0.0,0.0,0.0,0.0
1775764200559448395,43516,0.0,0.9,0.0,0.7,-0.02,-0.04,4.75,1.75,-1.69,0.02,0.47,1.06,-6.69,-0.06,13.63,230.15,268.0,0.0,0.0,0.0,0.0
1775764200661843798,43616,0.0,1.1,0.0,0.2,-0.02,0.04,5.69,2.69,-2.56,0.49,0.72,1.54,-7.38,-13.88,5.25,228.1,268.0,0.0,0.0,0.0,0.0
1775764200762047533,43716,0.0,1.0,0.0,0.3,-0.02,-0.08,5.69,2.88,-2.75,0.09,0.23,0.87,3.0,11.56,-2.0,11975.67,209.0,0.0,0.0,0.0,0.0
1775764200862521523,43816,0.0,0.9,0.0,0.6,-0.08,-0.06,5.69,1.88,-2.38,-0.28,0.03,0.45,3.44,5.56,2.63,190.02,189.0,0.0,0.0,0.0,0.0
1775764200960822178,43916,0.0,0.9,0.0,0.3,0.02,-0.18,5.81,1.31,-2.38,0.06,0.31,0.21,-3.06,8.5,0.19,161.9,189.0,0.0,0.0,0.0,0.0
1775764201059095274,44016,0.0,0.8,0.0,0.6,-0.18,-0.08,5.81,0.37,-2.63,0.36,0.05,0.28,0.94,13.25,-0.75,153.49,172.0,0.0,0.0,0.0,0.0
1775764201161503429,44116,0.0,1.1,0.0,0.2,0.0,-0.06,5.63,-0.69,-2.31,-0.25,-0.31,0.34,3.56,10.88,-1.37,197.74,165.0,0.0,0.0,0.0,0.0
1775764201263881457,44217,0.0,0.9,0.028,0.2,0.02,-0.18,5.56,-1.31,-2.25,-0.23,0.18,0.0,-1.19,3.56,0.44,158.29,165.0,0.0,0.0,0.0,0.0
1775764201362120094,44317,0.0,0.9,0.008,0.4,0.02,-0.18,5.56,-1.88,-2.38,0.06,0.1,0.02,0.06,5.88,0.25,149.38,164.0,0.0,0.0,0.0,0.0
1775764201464567561,44418,0.0,1.0,0.028,0.1,0.04,-0.04,5.5,-2.44,-2.31,-0.04,-0.16,0.11,1.31,3.88,0.12,169.1,164.0,0.0,0.0,0.0,0.0
1775764201562857323,44519,0.0,0.7,0.012,0.3,0.08,-0.18,5.5,-2.5,-2.31,0.15,0.15,0.1,-0.94,0.06,0.0,173.22,168.0,0.0,0.0,0.0,0.0
1775764201661130439,44618,0.0,0.9,0.0,0.5,-0.08,-0.29,5.5,-2.56,-2.31,0.02,0.09,0.11,0.25,2.44,0.0,193.62,169.0,0.0,0.0,0.0,0.0
1775764201763559073,44718,0.0,1.0,0.012,0.3,0.08,-0.02,5.5,-2.69,-2.25,0.06,0.01,0.11,0.81,0.06,-0.56,213.86,169.0,0.0,0.0,0.0,0.0
1775764201871884709,44819,0.0,0.8,0.004,0.1,0.12,-0.02,5.5,-2.69,-2.25,-0.03,0.06,0.1,-0.31,0.44,0.12,185.22,169.0,0.0,0.0,0.0,0.0
1775764201964278341,44918,0.0,1.0,0.0,0.3,0.06,-0.14,5.5,-2.69,-2.25,-0.01,0.03,0.09,0.19,0.12,-0.06,189.34,172.0,0.0,0.0,0.0,0.0
1775764202072550737,45019,0.0,1.0,0.004,0.4,-0.12,-0.2,5.5,-2.69,-2.25,-0.03,-0.0,0.09,0.06,0.19,-0.06,218.66,172.0,0.0,0.0,0.0,0.0
1775764202164909409,45119,0.0,0.7,0.02,0.5,-0.14,-0.2,5.5,-2.69,-2.25,0.0,-0.0,0.07,0.12,0.06,-0.06,197.74,162.0,0.0,0.0,0.0,0.0
1775764202263183299,45218,0.06,0.4,0.0,1.2,-0.04,-0.14,5.5,-2.69,-2.25,0.0,0.02,0.09,0.06,-0.0,0.12,185.22,164.0,0.0,0.0,0.0,0.0
1775764202365538657,45319,0.0,1.6,0.036,0.6,0.02,-0.25,5.5,-2.69,-2.25,0.0,-0.0,0.09,0.12,0.06,0.06,189.34,164.0,0.0,0.0,0.0,0.0
1775764202463856174,45419,0.0,1.4,0.028,0.1,0.1,-0.2,5.5,-2.69,-2.25,0.01,-0.0,0.08,-0.0,-0.0,0.06,185.22,161.0,0.0,0.0,0.0,0.0
1775764202562168376,45518,0.0,1.1,0.016,0.3,-0.06,-0.1,5.5,-2.69,-2.25,-0.02,-0.0,0.1,-0.06,0.12,-0.06,180.93,161.0,0.0,0.0,0.0,0.0
1775764202664546436,45618,0.02,0.3,0.0,1.1,-0.06,-0.14,5.5,-2.69,-2.25,-0.01,-0.0,0.08,0.12,-0.19,-0.12,185.22,169.0,0.0,0.0,0.0,0.0
1775764202762833769,45719,0.016,0.2,0.0,1.0,0.06,-0.12,5.5,-2.69,-2.25,-0.01,0.01,0.09,0.06,-0.0,-0.12,214.38,166.0,0.0,0.0,0.0,0.0
1775764202871194875,45818,0.008,0.1,0.0,1.0,-0.02,-0.08,5.5,-2.69,-2.25,-0.01,-0.01,0.09,0.12,-0.0,0.06,209.74,166.0,0.0,0.0,0.0,0.0
1775764202963535567,45918,0.0,1.0,0.012,0.0,-0.1,-0.04,5.5,-2.69,-2.25,0.0,0.01,0.08,-0.12,0.12,0.0,230.67,162.0,0.0,0.0,0.0,0.0
1775764203063701391,46018,0.0,0.7,0.0,0.2,0.08,-0.14,5.5,-2.69,-2.25,-0.01,-0.01,0.09,-0.0,-0.06,0.0,11973.79,161.0,0.0,0.0,0.0,0.0
1775764203164202256,46118,0.0,0.9,0.032,0.3,-0.02,-0.06,5.5,-2.69,-2.25,0.0,-0.01,0.11,-0.12,-0.19,-0.06,243.19,161.0,0.0,0.0,0.0,0.0
1775764203262474922,46218,0.0,0.7,0.044,0.3,0.04,-0.12,5.5,-2.69,-2.25,-0.03,-0.0,0.11,-0.0,0.06,-0.06,196.54,166.0,0.0,0.0,0.0,0.0
1775764203364824461,46318,0.0,1.1,0.044,0.3,0.12,-0.18,5.5,-2.69,-2.25,0.0,-0.0,0.08,-0.06,-0.12,-0.06,209.57,165.0,0.0,0.0,0.0,0.0
1775764203463136402,46417,0.0,0.7,0.024,0.4,0.06,-0.16,5.5,-2.69,-2.25,0.0,-0.0,0.08,-0.06,-0.0,-0.06,188.14,165.0,0.0,0.0,0.0,0.0
1775764203565554399,46518,0.0,0.7,0.02,0.3,0.14,0.0,5.5,-2.69,-2.25,0.0,-0.0,0.08,-0.0,-0.0,0.0,192.25,164.0,0.0,0.0,0.0,0.0
1775764203663835064,46618,0.0,0.7,0.008,0.3,-0.12,-0.16,5.5,-2.69,-2.25,0.0,-0.01,0.08,-0.12,0.06,-0.06,196.37,164.0,0.0,0.0,0.0,0.0
1775764203762129340,46717,0.0,1.0,0.016,0.1,0.12,-0.18,5.5,-2.69,-2.25,0.0,-0.0,0.07,-0.0,-0.0,0.0,179.22,168.0,0.0,0.0,0.0,0.0
1775764203860448188,46817,0.012,0.2,0.0,1.4,-0.12,-0.25,5.5,-2.69,-2.25,0.0,-0.0,0.08,0.06,0.06,0.12,170.81,163.0,0.0,0.0,0.0,0.0
1775764203962820484,46916,0.0,1.5,0.004,0.2,0.0,-0.08,5.5,-2.69,-2.25,0.0,-0.0,0.07,-0.06,0.12,-0.06,179.73,163.0,0.0,0.0,0.0,0.0
1775764204061104302,47015,0.0,1.3,0.0,0.3,-0.02,-0.16,5.5,-2.69,-2.25,-0.01,-0.02,0.08,-0.06,-0.06,-0.06,188.14,157.0,0.0,0.0,0.0,0.0
1775764204163542590,47115,0.0,1.1,0.032,0.4,0.1,-0.18,5.5,-2.69,-2.25,0.0,-0.0,0.08,-0.06,-0.06,0.06,200.66,164.0,0.0,0.0,0.0,0.0
1775764204261793035,47215,0.0,1.0,0.04,0.3,0.0,0.0,5.5,-2.69,-2.25,-0.02,-0.0,0.06,-0.0,-0.12,0.0,221.58,164.0,0.0,0.0,0.0,0.0
1775764204360041943,47314,0.0,0.8,0.052,0.5,0.1,-0.04,5.5,-2.69,-2.25,0.0,-0.02,0.09,-0.06,-0.0,0.0,196.37,170.0,0.0,0.0,0.0,0.0
1775764204462469583,47414,0.0,0.2,0.0,1.2,0.06,-0.16,5.5,-2.69,-2.25,-0.02,-0.01,0.08,0.06,-0.19,0.0,173.9,174.0,0.0,0.0,0.0,0.0
1775764204560758710,47515,0.0,1.3,0.028,0.3,0.02,-0.12,5.5,-2.69,-2.25,-0.01,-0.0,0.06,0.06,-0.12,0.06,217.98,174.0,0.0,0.0,0.0,0.0
1775764204663147502,47616,0.0,1.2,0.016,0.3,0.08,-0.02,5.5,-2.69,-2.25,0.0,-0.02,0.07,0.12,-0.0,0.0,217.98,163.0,0.0,0.0,0.0,0.0
1775764204761440462,47716,0.0,1.5,0.012,0.2,-0.1,-0.12,5.5,-2.69,-2.25,-0.03,-0.0,0.09,-0.0,0.06,0.06,226.55,163.0,0.0,0.0,0.0,0.0
1775764204871746422,47816,0.0,0.7,0.004,0.4,0.04,-0.08,5.5,-2.69,-2.25,-0.01,-0.01,0.05,-0.06,0.06,-0.06,11974.3,166.0,0.0,0.0,0.0,0.0
1775764204964040622,47917,0.0,0.9,0.0,0.3,-0.1,-0.06,5.5,-2.69,-2.25,-0.01,-0.01,0.08,-0.12,-0.06,-0.06,11974.47,165.0,0.0,0.0,0.0,0.0
1775764205072345660,48017,0.0,0.9,0.0,0.3,-0.06,-0.14,5.5,-2.69,-2.25,-0.02,-0.01,0.07,-0.06,0.06,-0.06,11974.13,161.0,0.0,0.0,0.0,0.0
1775764205162768619,48117,0.0,0.9,0.032,0.0,-0.1,-0.1,5.5,-2.69,-2.25,-0.01,-0.01,0.09,0.06,-0.0,-0.06,204.94,161.0,0.0,0.0,0.0,0.0
1775764205265151964,48217,0.0,0.9,0.052,0.3,-0.06,-0.06,5.5,-2.69,-2.25,0.0,-0.04,0.08,0.12,-0.06,-0.12,251.25,163.0,0.0,0.0,0.0,0.0
1775764205363436017,48317,0.0,1.1,0.032,0.5,-0.02,-0.04,5.5,-2.69,-2.25,-0.01,-0.01,0.04,-0.0,-0.12,0.0,192.25,163.0,0.0,0.0,0.0,0.0
1775764205465863914,48418,0.0,1.2,0.028,0.2,-0.06,-0.16,5.5,-2.69,-2.25,-0.01,-0.02,0.06,-0.0,-0.0,0.0,239.07,164.0,0.0,0.0,0.0,0.0
1775764205564150726,48518,0.0,0.7,0.012,0.2,-0.02,-0.12,5.5,-2.69,-2.25,-0.03,-0.0,0.06,0.06,-0.06,0.0,239.07,164.0,0.0,0.0,0.0,0.0
1775764205672490721,48618,0.0,0.9,0.016,0.4,0.02,0.02,5.5,-2.69,-2.25,0.0,-0.03,0.07,0.12,-0.12,0.0,238.9,167.0,0.0,0.0,0.0,0.0
1775764205766750531,48717,0.0,1.1,0.012,0.1,-0.04,-0.08,5.5,-2.69,-2.25,-0.01,-0.02,0.05,-0.0,0.19,0.0,11973.27,167.0,0.0,0.0,0.0,0.0
1775764205863111696,48817,0.0,0.8,0.008,0.3,0.0,-0.18,5.5,-2.69,-2.25,0.0,-0.02,0.06,0.12,0.06,0.06,237.87,167.0,0.0,0.0,0.0,0.0
1775764205965521650,48918,0.0,0.9,0.0,0.2,-0.06,0.0,5.5,-2.69,-2.25,-0.02,-0.02,0.07,-0.0,-0.0,0.06,225.35,163.0,0.0,0.0,0.0,0.0
1775764206063743674,49018,0.0,1.1,0.016,0.1,0.1,-0.16,5.5,-2.69,-2.25,-0.02,-0.01,0.07,0.06,-0.12,0.0,225.35,169.0,0.0,0.0,0.0,0.0
1775764206166206493,49119,0.0,1.4,0.02,0.6,0.0,-0.08,5.5,-2.69,-2.25,-0.01,-0.03,0.05,-0.06,0.12,0.06,237.87,169.0,0.0,0.0,0.0,0.0
1775764206264410979,49219,0.0,1.2,0.048,0.5,-0.02,-0.08,5.5,-2.69,-2.25,-0.01,-0.02,0.06,-0.06,-0.19,0.06,220.72,170.0,0.0,0.0,0.0,0.0
1775764206366835838,49319,0.0,1.4,0.028,0.3,-0.04,-0.04,5.5,-2.69,-2.25,0.0,-0.01,0.06,0.06,-0.06,0.06,209.23,171.0,0.0,0.0,0.0,0.0
1775764206465128372,49419,0.0,1.3,0.02,0.3,0.02,0.04,5.5,-2.69,-2.25,-0.02,-0.01,0.06,0.06,0.12,0.0,213.17,171.0,0.0,0.0,0.0,0.0
1775764206567580414,49520,0.0,1.3,0.02,0.3,0.08,-0.2,5.5,-2.69,-2.25,-0.02,-0.02,0.07,0.06,-0.12,0.0,204.26,164.0,0.0,0.0,0.0,0.0
1775764206665848765,49619,0.0,1.2,0.008,0.5,0.0,-0.12,5.5,-2.69,-2.25,-0.01,-0.03,0.1,-0.0,-0.0,-0.06,217.29,164.0,0.0,0.0,0.0,0.0
1775764206768236646,49720,0.0,1.3,0.012,0.3,-0.12,-0.1,5.5,-2.69,-2.25,-0.03,-0.02,0.07,-0.06,-0.0,-0.12,179.05,164.0,0.0,0.0,0.0,0.0
1775764206866564881,49820,0.0,1.2,0.004,0.3,0.02,-0.12,5.5,-2.69,-2.25,0.0,-0.01,0.05,0.12,-0.06,0.0,170.3,166.0,0.0,0.0,0.0,0.0
1775764206968915153,49921,0.0,1.1,0.0,0.3,-0.06,-0.14,5.5,-2.69,-2.25,-0.08,-0.09,0.03,0.5,0.63,-0.12,195.85,166.0,0.0,0.0,0.0,0.0
1775764207067199078,50021,0.0,1.3,0.0,0.5,0.0,-0.08,5.5,-2.69,-2.19,0.17,-0.0,0.1,-0.5,0.75,0.0,178.53,167.0,0.0,0.0,0.0,0.0
1775764207169645249,50121,0.0,1.2,0.024,0.5,0.0,-0.18,5.44,-2.81,-2.19,-0.27,0.05,0.09,0.19,1.94,-0.88,11970.87,163.0,0.0,0.0,0.0,0.0
1775764207271980707,50222,0.0,1.3,0.04,0.2,0.02,-0.1,5.44,-2.81,-2.25,0.0,0.19,0.1,0.12,-1.94,0.25,199.45,163.0,0.0,0.0,0.0,0.0
1775764207370238376,50322,0.0,1.4,0.028,0.3,-0.04,-0.08,5.5,-2.75,-2.25,0.1,0.09,0.15,-0.44,-0.5,0.88,207.86,163.0,0.0,0.0,0.0,0.0
1775764207468565928,50421,0.0,1.0,0.024,0.2,0.0,-0.2,5.5,-2.75,-2.31,-0.16,-0.03,0.04,1.31,0.69,-0.5,190.54,164.0,0.0,0.0,0.0,0.0
1775764207566817005,50521,0.0,1.0,0.028,0.2,0.04,-0.12,5.5,-2.75,-2.25,0.02,-0.05,0.0,-0.19,-0.19,0.06,164.81,164.0,0.0,0.0,0.0,0.0
1775764207669243603,50621,0.0,0.9,0.008,0.3,0.06,-0.12,5.5,-2.75,-2.25,0.06,0.05,0.04,-0.31,0.31,0.44,156.58,165.0,0.0,0.0,0.0,0.0
1775764207767503309,50721,0.0,1.0,0.012,0.5,0.1,0.04,5.5,-2.75,-2.25,-0.01,0.1,0.07,-0.06,-0.19,0.0,168.58,167.0,0.0,0.0,0.0,0.0
1775764207869925537,50822,0.0,0.9,0.012,0.3,0.06,0.02,5.5,-2.75,-2.25,-0.06,-0.01,0.09,0.06,-0.25,-0.12,169.61,167.0,0.0,0.0,0.0,0.0
1775764207968206389,50922,0.0,0.9,0.012,0.5,0.06,-0.21,5.5,-2.75,-2.25,-0.02,-0.07,0.08,-0.06,-0.12,-0.06,207.86,167.0,0.0,0.0,0.0,0.0
1775764208072528467,51021,0.0,0.7,0.0,0.2,-0.08,-0.18,5.5,-2.75,-2.25,0.0,-0.07,0.06,0.19,0.12,0.0,11972.41,165.0,0.0,0.0,0.0,0.0
1775764208168916341,51121,0.0,0.9,0.028,0.5,-0.06,-0.21,5.5,-2.75,-2.25,0.0,-0.03,0.09,-0.06,0.19,0.0,11973.1,165.0,0.0,0.0,0.0,0.0
1775764208267128276,51221,0.0,1.1,0.04,0.3,0.02,0.04,5.5,-2.75,-2.25,0.0,-0.03,0.1,-0.0,-0.06,0.06,203.06,162.0,0.0,0.0,0.0,0.0
1775764208369531821,51320,0.0,1.0,0.04,0.4,0.04,-0.12,5.5,-2.75,-2.25,0.0,-0.01,0.07,-0.0,-0.06,0.0,173.22,162.0,0.0,0.0,0.0,0.0
1775764208471951179,51421,0.0,0.9,0.024,0.1,0.04,-0.12,5.5,-2.75,-2.25,0.0,-0.01,0.08,0.06,-0.0,0.12,206.31,166.0,0.0,0.0,0.0,0.0
1775764208570245125,51522,0.0,0.7,0.012,0.1,-0.04,-0.08,5.5,-2.75,-2.25,-0.01,-0.0,0.05,-0.06,-0.0,0.0,194.82,163.0,0.0,0.0,0.0,0.0
1775764208668541070,51621,0.0,0.9,0.016,0.5,-0.2,-0.21,5.5,-2.75,-2.25,-0.01,-0.01,0.08,0.06,-0.0,-0.06,186.42,163.0,0.0,0.0,0.0,0.0
1775764208770918784,51721,0.0,0.9,0.024,0.0,-0.06,-0.14,5.5,-2.75,-2.25,0.0,-0.02,0.07,0.19,-0.19,0.06,182.3,161.0,0.0,0.0,0.0,0.0
1775764208869227636,51821,0.0,1.0,0.016,0.2,0.04,-0.1,5.5,-2.75,-2.25,0.0,-0.02,0.08,-0.0,-0.06,0.06,178.02,161.0,0.0,0.0,0.0,0.0
1775764208967486122,51921,0.0,1.0,0.012,0.2,-0.1,-0.04,5.5,-2.75,-2.25,0.0,-0.01,0.08,-0.06,-0.06,0.06,173.73,163.0,0.0,0.0,0.0,0.0
1775764209069891501,52021,0.0,1.1,0.012,0.3,-0.08,-0.06,5.5,-2.75,-2.25,-0.02,-0.02,0.08,-0.0,-0.06,-0.06,173.73,169.0,0.0,0.0,0.0,0.0
1775764209176241825,52122,0.0,0.5,0.032,0.2,-0.12,-0.12,5.5,-2.75,-2.25,-0.01,-0.0,0.04,-0.0,0.12,-0.06,203.74,169.0,0.0,0.0,0.0,0.0
1775764209270566053,52221,0.0,1.0,0.036,0.3,-0.14,-0.16,5.5,-2.75,-2.25,-0.02,-0.02,0.08,-0.0,0.06,0.06,11971.39,169.0,0.0,0.0,0.0,0.0
1775764209374801566,52321,0.0,0.9,0.04,0.2,0.08,-0.04,5.5,-2.75,-2.25,-0.02,-0.02,0.06,-0.0,-0.0,0.0,11969.5,166.0,0.0,0.0,0.0,0.0
1775764209471229903,52421,0.0,0.8,0.024,0.5,-0.06,-0.02,5.5,-2.75,-2.25,0.0,-0.01,0.08,-0.12,-0.0,0.0,177.85,166.0,0.0,0.0,0.0,0.0
1775764209569552590,52520,0.0,1.0,0.0,1.6,0.02,-0.08,5.5,-2.75,-2.25,0.02,-0.01,0.06,0.06,0.19,0.0,203.57,164.0,0.0,0.0,0.0,0.0
1775764209677881553,52621,0.012,0.2,0.0,1.5,0.0,-0.25,5.5,-2.75,-2.25,-0.02,-0.03,0.06,0.06,-0.0,0.06,178.02,160.0,0.0,0.0,0.0,0.0
1775764209770235920,52721,0.0,1.3,0.008,0.5,-0.18,-0.1,5.5,-2.75,-2.25,0.0,-0.01,0.08,-0.0,0.06,0.06,208.03,160.0,0.0,0.0,0.0,0.0
1775764209872663872,52822,0.0,1.3,0.004,0.4,-0.06,-0.25,5.5,-2.75,-2.25,-0.01,-0.01,0.11,-0.06,0.19,0.0,178.02,166.0,0.0,0.0,0.0,0.0
1775764209970916454,52922,0.0,1.2,0.0,0.7,-0.1,-0.2,5.5,-2.75,-2.25,0.0,-0.04,0.11,-0.06,0.06,-0.06,182.13,166.0,0.0,0.0,0.0,0.0
1775764210069164039,53022,0.0,1.3,0.004,0.3,0.06,-0.2,5.5,-2.75,-2.25,-0.01,-0.02,0.07,0.06,-0.12,-0.12,164.81,168.0,0.0,0.0,0.0,0.0
1775764210171612991,53123,0.0,1.2,0.036,0.2,0.0,0.0,5.5,-2.75,-2.25,0.0,-0.02,0.08,0.06,-0.0,0.06,169.1,165.0,0.0,0.0,0.0,0.0
1775764210273952804,53223,0.0,1.3,0.044,0.3,-0.06,-0.06,5.5,-2.75,-2.25,-0.02,-0.02,0.09,0.06,-0.12,0.0,160.7,165.0,0.0,0.0,0.0,0.0
1775764210372220481,53323,0.0,1.4,0.032,0.4,-0.04,-0.02,5.5,-2.75,-2.25,0.0,-0.03,0.09,-0.06,-0.0,-0.06,164.81,163.0,0.0,0.0,0.0,0.0
1775764210474650564,53424,0.0,1.3,0.02,0.2,-0.08,-0.08,5.5,-2.75,-2.25,-0.01,-0.03,0.1,0.06,-0.0,0.06,173.73,169.0,0.0,0.0,0.0,0.0
1775764210572939332,53524,0.0,1.3,0.008,0.3,-0.06,-0.1,5.5,-2.75,-2.25,0.0,-0.03,0.09,0.06,-0.0,0.06,173.73,169.0,0.0,0.0,0.0,0.0
1775764210671228101,53623,0.0,0.9,0.012,0.3,0.02,-0.16,5.5,-2.75,-2.25,-0.01,-0.03,0.09,-0.0,-0.06,0.0,173.22,165.0,0.0,0.0,0.0,0.0
1775764210773635389,53724,0.0,1.4,0.004,0.1,0.02,-0.23,5.5,-2.75,-2.25,-0.01,-0.03,0.08,-0.0,0.12,0.12,194.14,164.0,0.0,0.0,0.0,0.0
1775764210881968554,53825,0.0,1.3,0.012,0.5,-0.04,-0.14,5.5,-2.75,-2.25,0.0,-0.01,0.06,-0.06,0.25,0.06,173.22,164.0,0.0,0.0,0.0,0.0
1775764210976208203,53924,0.0,1.3,0.004,0.3,0.1,-0.08,5.5,-2.75,-2.25,0.01,-0.01,0.11,-0.06,0.12,-0.06,11970.01,169.0,0.0,0.0,0.0,0.0
1775764211074510897,54024,0.0,1.2,0.012,0.3,-0.16,-0.12,5.5,-2.75,-2.25,0.0,-0.03,0.07,0.06,0.06,0.12,11968.47,168.0,0.0,0.0,0.0,0.0
1775764211174955457,54124,0.0,1.5,0.024,0.3,0.0,-0.08,5.5,-2.75,-2.25,-0.02,-0.02,0.11,-0.06,-0.0,-0.12,11970.7,167.0,0.0,0.0,0.0,0.0
1775764211273262044,54224,0.0,1.2,0.0,1.1,-0.12,-0.27,5.5,-2.75,-2.25,0.0,-0.04,0.11,0.06,-0.0,0.06,11971.39,167.0,0.0,0.0,0.0,0.0
1775764211377485634,54324,0.032,0.5,0.044,0.4,0.06,-0.14,5.5,-2.75,-2.25,0.0,-0.01,0.09,0.12,-0.0,-0.12,11969.33,166.0,0.0,0.0,0.0,0.0
1775764211481886986,54424,0.0,0.8,0.0,1.4,-0.12,-0.2,5.5,-2.75,-2.25,-0.02,-0.01,0.07,-0.0,-0.0,0.06,11969.84,166.0,0.0,0.0,0.0,0.0
1775764211574156469,54524,0.0,1.5,0.008,0.4,0.06,-0.12,5.5,-2.75,-2.25,0.0,-0.03,0.08,-0.06,0.06,0.06,11967.78,167.0,0.0,0.0,0.0,0.0
1775764211682541406,54624,0.0,1.3,0.016,0.3,-0.08,-0.04,5.5,-2.75,-2.25,-0.02,-0.03,0.07,-0.0,-0.06,-0.06,11969.16,168.0,0.0,0.0,0.0,0.0
1775764211774945673,54724,0.0,1.3,0.016,0.6,0.02,-0.14,5.5,-2.75,-2.25,-0.01,-0.02,0.08,-0.06,-0.0,-0.12,11968.98,168.0,0.0,0.0,0.0,0.0
1775764211873137140,54824,0.0,1.4,0.012,0.5,-0.12,-0.08,5.5,-2.75,-2.25,0.0,-0.02,0.07,0.12,-0.06,0.0,11969.67,167.0,0.0,0.0,0.0,0.0
1775764211975506527,54924,0.0,1.4,0.004,0.3,0.06,-0.23,5.5,-2.75,-2.25,0.0,-0.0,0.1,-0.0,-0.0,0.0,11967.61,167.0,0.0,0.0,0.0,0.0
1775764212083967253,55024,0.0,1.3,0.004,0.5,0.02,-0.21,5.5,-2.75,-2.25,0.0,-0.02,0.11,-0.0,-0.06,0.06,11968.3,167.0,0.0,0.0,0.0,0.0
1775764212174282421,55124,0.0,1.5,0.036,0.5,-0.1,-0.21,5.5,-2.75,-2.25,-0.02,-0.02,0.08,0.06,-0.0,0.06,178.53,167.0,0.0,0.0,0.0,0.0
1775764212276649034,55225,0.0,1.5,0.048,0.5,-0.02,-0.1,5.5,-2.75,-2.25,0.0,-0.01,0.1,0.06,-0.12,-0.12,195.34,171.0,0.0,0.0,0.0,0.0
1775764212374938072,55325,0.0,0.9,0.0,1.7,-0.16,-0.06,5.5,-2.75,-2.25,0.0,-0.02,0.09,-0.06,0.12,-0.12,195.34,165.0,0.0,0.0,0.0,0.0
1775764212475175674,55425,0.036,0.0,0.0,1.4,-0.04,-0.02,5.5,-2.75,-2.25,-0.02,-0.02,0.09,-0.06,-0.06,-0.06,11968.13,165.0,0.0,0.0,0.0,0.0
1775764212583572223,55525,0.0,1.1,0.024,0.6,0.06,-0.2,5.5,-2.75,-2.25,0.0,-0.02,0.08,-0.06,0.06,0.0,11968.98,165.0,0.0,0.0,0.0,0.0
1775764212685976647,55625,0.0,1.6,0.012,0.5,0.02,-0.16,5.5,-2.75,-2.25,-0.01,-0.03,0.09,-0.19,0.12,-0.06,11970.01,165.0,0.0,0.0,0.0,0.0
1775764212784227040,55726,0.0,1.2,0.008,0.3,-0.14,-0.14,5.5,-2.75,-2.25,-0.02,-0.02,0.09,-0.06,-0.12,-0.06,11968.3,161.0,0.0,0.0,0.0,0.0
1775764212876632223,55826,0.0,1.4,0.004,0.2,0.0,-0.1,5.5,-2.75,-2.25,-0.02,-0.01,0.1,0.06,-0.06,0.06,11969.67,161.0,0.0,0.0,0.0,0.0
1775764212984908486,55926,0.0,1.5,0.004,0.2,0.1,-0.12,5.5,-2.75,-2.25,-0.03,-0.01,0.05,-0.0,-0.0,0.0,11967.61,169.0,0.0,0.0,0.0,0.0
1775764213083186985,56026,0.0,1.4,0.0,0.5,0.02,0.0,5.5,-2.75,-2.25,-0.01,-0.03,0.08,-0.06,0.06,-0.06,11967.1,164.0,0.0,0.0,0.0,0.0
1775764213177647767,56125,0.0,1.1,0.032,0.4,-0.04,-0.2,5.5,-2.75,-2.25,0.0,-0.01,0.09,-0.0,-0.12,0.06,11969.16,164.0,0.0,0.0,0.0,0.0
1775764213275929849,56225,0.0,1.4,0.04,0.2,0.02,-0.04,5.5,-2.75,-2.25,0.0,-0.02,0.08,0.12,-0.0,0.12,11968.47,165.0,0.0,0.0,0.0,0.0
1775764213380229402,56325,0.0,1.5,0.04,0.3,0.12,-0.04,5.5,-2.75,-2.25,0.0,-0.01,0.09,0.12,-0.06,0.0,11970.01,163.0,0.0,0.0,0.0,0.0
1775764213484605595,56425,0.0,1.3,0.012,0.2,0.08,-0.02,5.5,-2.75,-2.25,-0.01,-0.02,0.09,-0.0,-0.12,0.0,11970.53,163.0,0.0,0.0,0.0,0.0
1775764213576841284,56525,0.0,1.5,0.016,0.3,-0.02,-0.12,5.5,-2.75,-2.25,-0.03,-0.02,0.05,0.06,-0.12,0.0,11968.47,165.0,0.0,0.0,0.0,0.0
1775764213675217024,56625,0.0,1.2,0.004,0.5,0.0,0.0,5.5,-2.75,-2.25,0.0,-0.04,0.05,-0.06,-0.06,-0.06,11970.87,165.0,0.0,0.0,0.0,0.0
1775764213777527221,56725,0.0,1.3,0.008,0.3,-0.12,-0.16,5.5,-2.75,-2.25,-0.01,-0.03,0.07,0.12,-0.06,0.0,11971.21,163.0,0.0,0.0,0.0,0.0
1775764213875812359,56825,0.0,1.3,0.008,0.5,-0.16,-0.2,5.5,-2.75,-2.25,0.0,-0.02,0.08,-0.0,-0.06,0.0,11970.01,166.0,0.0,0.0,0.0,0.0
1775764213978288392,56925,0.0,1.2,0.008,0.5,0.0,0.02,5.5,-2.75,-2.25,0.01,-0.02,0.07,-0.12,0.19,0.06,11971.73,166.0,0.0,0.0,0.0,0.0
1775764214086594783,57025,0.0,1.3,0.012,0.3,0.0,-0.12,5.5,-2.75,-2.25,0.0,-0.04,0.07,-0.0,-0.0,0.0,11970.53,162.0,0.0,0.0,0.0,0.0
1775764214176993650,57125,0.0,1.4,0.032,0.0,-0.04,-0.06,5.5,-2.75,-2.25,-0.01,-0.03,0.07,-0.0,-0.12,0.0,11969.67,164.0,0.0,0.0,0.0,0.0
1775764214275208505,57225,0.0,1.4,0.052,0.2,-0.04,-0.08,5.5,-2.75,-2.25,0.01,-0.0,0.06,0.06,-0.12,0.12,207.86,164.0,0.0,0.0,0.0,0.0
1775764214373475318,57325,0.0,1.6,0.032,1.0,-0.1,-0.04,5.5,-2.75,-2.25,0.0,-0.02,0.06,-0.19,0.06,-0.06,181.1,159.0,0.0,0.0,0.0,0.0
1775764214477847368,57424,0.0,1.0,0.02,0.3,-0.14,-0.12,5.5,-2.75,-2.25,-0.01,-0.02,0.03,-0.19,0.06,0.0,11971.9,166.0,0.0,0.0,0.0,0.0
1775764214576237151,57524,0.0,1.1,0.02,0.3,0.1,-0.08,5.5,-2.75,-2.25,-0.01,-0.01,0.07,0.06,-0.0,0.0,11972.59,166.0,0.0,0.0,0.0,0.0
1775764214684507085,57624,0.0,0.9,0.012,0.6,0.02,-0.02,5.5,-2.75,-2.25,0.01,-0.03,0.07,-0.0,0.06,0.06,11970.7,163.0,0.0,0.0,0.0,0.0
1775764214774903860,57724,0.0,1.1,0.012,0.3,-0.14,0.0,5.5,-2.75,-2.25,-0.01,-0.03,0.09,-0.0,0.06,0.0,186.25,163.0,0.0,0.0,0.0,0.0
1775764214885215495,57824,0.0,0.9,0.012,0.4,0.0,-0.08,5.5,-2.75,-2.25,0.0,-0.03,0.08,0.12,-0.0,0.0,11971.39,169.0,0.0,0.0,0.0,0.0
1775764214983477938,57924,0.0,0.6,0.0,0.2,0.04,-0.04,5.5,-2.75,-2.25,-0.02,-0.03,0.05,0.12,-0.12,-0.12,11968.64,170.0,0.0,0.0,0.0,0.0
1775764215075879347,58024,0.0,1.1,0.0,0.2,0.0,-0.29,5.5,-2.75,-2.25,-0.01,-0.02,0.08,0.06,-0.06,0.06,11970.36,170.0,0.0,0.0,0.0,0.0
1775764215176244437,58124,0.0,1.0,0.032,0.2,-0.14,-0.1,5.5,-2.75,-2.25,0.0,-0.02,0.08,0.06,-0.06,0.0,11969.5,163.0,0.0,0.0,0.0,0.0
1775764215274520350,58224,0.0,0.9,0.052,0.3,0.0,-0.23,5.5,-2.75,-2.25,-0.02,-0.0,0.07,0.06,-0.0,0.0,11968.13,174.0,0.0,0.0,0.0,0.0
1775764215376901403,58324,0.0,0.8,0.0,1.5,0.08,-0.06,5.5,-2.75,-2.25,0.0,-0.02,0.07,-0.0,-0.06,-0.06,8236.46,174.0,0.0,0.0,0.0,0.0
1775764215477138080,58424,0.024,0.1,0.0,1.3,-0.04,-0.08,5.5,-2.75,-2.25,-0.02,-0.03,0.06,-0.0,-0.06,0.0,11968.98,166.0,0.0,0.0,0.0,0.0
1775764215585536838,58524,0.02,0.3,0.0,1.6,0.06,-0.1,5.5,-2.75,-2.25,0.01,-0.03,0.07,0.06,-0.06,-0.06,11969.33,164.0,0.0,0.0,0.0,0.0
1775764215677906628,58625,0.0,1.1,0.02,0.3,-0.14,-0.14,5.5,-2.75,-2.25,0.0,-0.03,0.07,-0.0,-0.0,0.0,11968.98,164.0,0.0,0.0,0.0,0.0
1775764215786263576,58725,0.0,1.4,0.012,0.3,-0.06,-0.06,5.5,-2.75,-2.25,0.0,-0.02,0.06,0.06,-0.06,0.06,11967.1,171.0,0.0,0.0,0.0,0.0
1775764215878646735,58825,0.0,1.4,0.004,0.6,-0.12,-0.06,5.5,-2.75,-2.25,-0.01,-0.03,0.03,-0.0,0.12,0.06,11967.96,171.0,0.0,0.0,0.0,0.0
1775764215986900469,58926,0.0,1.3,0.008,0.0,-0.02,-0.06,5.5,-2.75,-2.25,-0.02,-0.03,0.07,-0.0,0.06,0.0,11968.47,166.0,0.0,0.0,0.0,0.0
1775764216079179509,59026,0.0,1.5,0.008,0.0,-0.04,-0.14,5.5,-2.75,-2.25,-0.01,-0.03,0.05,-0.0,0.06,0.0,11968.13,164.0,0.0,0.0,0.0,0.0
1775764216179658079,59126,0.0,1.4,0.044,0.6,0.12,-0.18,5.5,-2.75,-2.25,-0.02,-0.04,0.08,-0.06,-0.0,0.0,11970.53,164.0,0.0,0.0,0.0,0.0
1775764216277903873,59226,0.0,1.1,0.04,0.5,0.21,-0.02,5.5,-2.75,-2.25,0.0,-0.02,0.08,0.12,-0.12,0.06,181.62,161.0,0.0,0.0,0.0,0.0
1775764216388261825,59326,0.0,1.6,0.032,0.5,-0.02,-0.1,5.5,-2.75,-2.25,0.0,-0.01,0.05,0.12,-0.12,0.0,11969.84,167.0,0.0,0.0,0.0,0.0
1775764216480638514,59426,0.0,1.5,0.016,0.2,0.02,-0.14,5.5,-2.75,-2.25,-0.01,-0.02,0.04,0.06,-0.0,-0.12,11973.79,167.0,0.0,0.0,0.0,0.0
1775764216588919213,59527,0.0,1.4,0.016,0.3,0.08,-0.18,5.5,-2.75,-2.25,-0.01,-0.03,0.05,0.06,-0.12,0.0,11973.27,162.0,0.0,0.0,0.0,0.0
1775764216681224650,59627,0.0,1.4,0.004,0.3,-0.04,-0.06,5.5,-2.75,-2.25,0.0,-0.03,0.05,-0.06,-0.06,0.12,11972.07,166.0,0.0,0.0,0.0,0.0
1775764216777609969,59727,0.0,1.3,0.008,0.2,-0.02,-0.06,5.5,-2.75,-2.25,0.0,-0.01,0.04,-0.0,0.06,0.0,168.41,166.0,0.0,0.0,0.0,0.0
1775764216881886446,59827,0.0,1.4,0.004,0.5,0.08,0.08,5.5,-2.75,-2.25,0.0,-0.02,0.07,0.12,-0.06,0.06,11972.93,166.0,0.0,0.0,0.0,0.0
1775764216980241823,59927,0.0,1.3,0.0,0.5,0.0,-0.12,5.5,-2.75,-2.25,0.0,-0.03,0.03,0.06,-0.0,-0.06,11972.93,166.0,0.0,0.0,0.0,0.0
1775764217082576466,60027,0.0,0.9,0.012,0.3,0.04,-0.06,5.5,-2.75,-2.25,-0.01,-0.01,0.07,0.12,-0.06,0.0,11968.98,164.0,0.0,0.0,0.0,0.0
1775764217178926335,60127,0.0,1.0,0.04,0.5,-0.12,-0.14,5.5,-2.75,-2.25,0.0,-0.02,0.05,-0.06,-0.0,0.0,190.54,164.0,0.0,0.0,0.0,0.0
1775764217281325401,60227,0.0,1.1,0.048,0.5,-0.06,-0.16,5.5,-2.75,-2.25,0.0,-0.02,0.06,0.06,-0.0,0.0,11968.64,165.0,0.0,0.0,0.0,0.0
1775764217381484582,60327,0.0,1.1,0.036,0.3,-0.06,-0.08,5.5,-2.75,-2.25,-0.01,-0.0,0.04,-0.0,-0.0,0.0,11967.96,165.0,0.0,0.0,0.0,0.0
1775764217477876263,60427,0.0,0.6,0.02,0.3,0.06,-0.16,5.5,-2.75,-2.25,0.0,-0.04,0.03,0.06,-0.0,0.12,182.13,165.0,0.0,0.0,0.0,0.0
1775764217580310288,60527,0.0,0.5,0.016,-0.1,-0.04,-0.1,5.5,-2.75,-2.25,-0.01,-0.02,0.06,0.06,-0.12,0.0,184.71,167.0,0.0,0.0,0.0,0.0
1775764217680506966,60627,0.0,1.0,0.024,0.2,0.0,-0.04,5.5,-2.75,-2.25,-0.02,-0.02,0.05,-0.0,-0.06,-0.06,11966.58,164.0,0.0,0.0,0.0,0.0
1775764217788906492,60727,0.0,1.2,0.012,0.3,-0.1,-0.12,5.5,-2.75,-2.25,-0.01,-0.02,0.05,-0.06,-0.06,0.0,11968.3,163.0,0.0,0.0,0.0,0.0
1775764217881276491,60827,0.0,0.9,0.008,0.3,0.04,-0.16,5.5,-2.75,-2.25,0.0,-0.02,0.08,0.06,-0.12,0.0,11968.13,163.0,0.0,0.0,0.0,0.0
1775764217979434044,60926,0.0,1.1,0.004,0.3,0.04,0.0,5.5,-2.75,-2.25,-0.02,-0.01,0.06,0.19,-0.06,0.0,11968.3,167.0,0.0,0.0,0.0,0.0
1775764218081949048,61026,0.0,1.2,0.008,0.6,0.02,-0.08,5.5,-2.75,-2.25,-0.02,-0.03,0.08,-0.06,0.06,0.0,11969.5,167.0,0.0,0.0,0.0,0.0
1775764218178354738,61126,0.0,1.1,0.036,0.2,0.0,-0.08,5.5,-2.75,-2.25,0.0,-0.01,0.08,0.06,-0.12,-0.06,11969.33,163.0,0.0,0.0,0.0,0.0
1775764218280624250,61227,0.0,0.9,0.04,0.3,-0.08,-0.1,5.5,-2.75,-2.25,0.0,-0.03,0.1,-0.0,-0.06,-0.12,11967.96,166.0,0.0,0.0,0.0,0.0
1775764218380875673,61327,0.0,0.9,0.032,0.3,0.02,-0.2,5.5,-2.75,-2.25,-0.02,-0.01,0.07,-0.0,-0.0,-0.06,11968.98,166.0,0.0,0.0,0.0,0.0
1775764218481314430,61427,0.0,0.9,0.024,0.1,0.08,-0.16,5.5,-2.75,-2.25,0.0,-0.03,0.05,0.06,-0.0,0.0,197.91,166.0,0.0,0.0,0.0,0.0
1775764218581514321,61528,0.0,0.7,0.02,0.0,0.04,-0.18,5.5,-2.75,-2.25,-0.01,-0.01,0.09,0.06,0.06,0.0,11967.78,166.0,0.0,0.0,0.0,0.0
1775764218681980353,61628,0.0,1.0,0.024,0.4,-0.08,-0.12,5.5,-2.75,-2.25,0.0,-0.03,0.09,-0.06,-0.0,-0.06,169.1,166.0,0.0,0.0,0.0,0.0
1775764218782184429,61728,0.0,0.6,0.004,0.4,-0.08,-0.02,5.5,-2.75,-2.25,0.0,-0.0,0.09,-0.0,-0.06,-0.06,11970.87,162.0,0.0,0.0,0.0,0.0
1775764218884582447,61828,0.0,1.0,0.004,0.3,-0.04,-0.16,5.5,-2.75,-2.25,-0.01,-0.02,0.1,-0.0,-0.0,0.12,11970.19,164.0,0.0,0.0,0.0,0.0
1775764218982925845,61928,0.0,0.7,0.0,0.5,-0.04,-0.1,5.5,-2.75,-2.25,0.01,-0.02,0.08,-0.06,-0.0,0.06,11973.44,164.0,0.0,0.0,0.0,0.0
1775764219081126574,62028,0.0,0.9,0.004,0.0,-0.1,-0.06,5.5,-2.75,-2.25,-0.01,-0.05,0.09,-0.06,0.12,0.0,11970.87,171.0,0.0,0.0,0.0,0.0
1775764219181658129,62128,0.0,0.8,0.04,0.5,0.02,-0.08,5.5,-2.75,-2.25,-0.03,-0.04,0.06,0.06,-0.0,0.0,11972.93,171.0,0.0,0.0,0.0,0.0
1775764219283977627,62228,0.0,1.0,0.052,0.3,-0.06,-0.29,5.5,-2.75,-2.25,-0.02,-0.02,0.05,-0.0,-0.0,-0.06,11970.19,165.0,0.0,0.0,0.0,0.0
1775764219388291456,62328,0.0,1.2,0.04,0.4,-0.06,-0.06,5.5,-2.75,-2.25,-0.01,-0.04,0.07,0.06,0.06,-0.06,11968.81,169.0,0.0,0.0,0.0,0.0
1775764219488513632,62428,0.0,0.7,0.02,0.2,0.0,-0.06,5.5,-2.75,-2.25,-0.01,-0.01,0.07,-0.06,0.12,0.0,11971.21,169.0,0.0,0.0,0.0,0.0
1775764219590912938,62527,0.0,0.8,0.024,0.6,-0.1,-0.08,5.5,-2.75,-2.25,-0.01,-0.03,0.08,0.06,0.12,-0.06,11969.67,166.0,0.0,0.0,0.0,0.0
1775764219689192408,62627,0.0,0.6,0.016,0.1,0.08,-0.04,5.5,-2.75,-2.25,-0.01,-0.02,0.08,0.06,0.06,0.0,11969.33,168.0,0.0,0.0,0.0,0.0
1775764219781567784,62727,0.0,1.0,0.008,0.1,-0.04,-0.06,5.5,-2.75,-2.25,-0.01,-0.03,0.04,0.12,-0.06,-0.06,11968.3,168.0,0.0,0.0,0.0,0.0
1775764219889904920,62827,0.0,1.0,0.016,0.4,0.1,-0.1,5.5,-2.75,-2.25,-0.02,-0.04,0.07,0.12,-0.06,0.06,11967.44,164.0,0.0,0.0,0.0,0.0
1775764219982190231,62927,0.0,0.6,0.004,0.5,0.04,-0.14,5.5,-2.75,-2.25,-0.02,-0.02,0.05,0.12,-0.12,-0.06,11967.78,164.0,0.0,0.0,0.0,0.0
1775764220090620803,63027,0.0,0.6,0.008,0.3,-0.02,-0.2,5.5,-2.75,-2.25,0.0,-0.02,0.07,0.12,-0.06,0.0,11970.01,164.0,0.0,0.0,0.0,0.0
1775764220180956849,63127,0.0,1.0,0.044,0.2,-0.02,-0.2,5.5,-2.75,-2.25,-0.01,-0.02,0.08,-0.0,-0.06,-0.06,11967.96,167.0,0.0,0.0,0.0,0.0
1775764220279239034,63227,0.0,1.0,0.056,0.6,0.06,-0.04,5.5,-2.75,-2.25,0.0,-0.03,0.08,-0.12,0.12,0.06,11968.81,167.0,0.0,0.0,0.0,0.0
1775764220383463566,63327,0.0,0.9,0.032,0.5,0.0,-0.08,5.5,-2.75,-2.25,0.0,-0.03,0.09,0.12,-0.0,0.06,11968.98,168.0,0.0,0.0,0.0,0.0
1775764220481810523,63427,0.0,0.6,0.02,0.1,-0.16,-0.16,5.5,-2.75,-2.25,-0.01,-0.01,0.1,-0.0,0.12,-0.06,11968.64,163.0,0.0,0.0,0.0,0.0
1775764220584289089,63527,0.0,0.9,0.016,0.3,-0.08,-0.23,5.5,-2.75,-2.25,0.0,-0.03,0.06,-0.06,-0.0,0.0,11971.73,163.0,0.0,0.0,0.0,0.0
1775764220682483820,63627,0.0,0.9,0.016,0.1,0.0,-0.12,5.5,-2.75,-2.25,0.0,-0.03,0.06,0.06,-0.06,0.0,11971.39,162.0,0.0,0.0,0.0,0.0
1775764220790877791,63727,0.0,1.0,0.008,0.2,0.14,-0.04,5.5,-2.75,-2.25,0.0,-0.04,0.07,-0.0,-0.0,0.0,11970.19,165.0,0.0,0.0,0.0,0.0
1775764220883249052,63827,0.012,0.3,0.008,0.4,0.04,-0.23,5.5,-2.75,-2.25,0.0,-0.03,0.06,-0.06,0.06,-0.06,11969.5,165.0,0.0,0.0,0.0,0.0
1775764220981460040,63927,0.0,1.5,0.004,0.5,0.04,-0.06,5.5,-2.75,-2.25,0.0,-0.03,0.09,-0.06,-0.0,0.0,11968.13,158.0,0.0,0.0,0.0,0.0
1775764221089857626,64027,0.0,1.7,0.004,0.2,-0.08,0.0,5.5,-2.75,-2.25,-0.03,-0.04,0.07,0.06,-0.06,-0.12,11967.78,164.0,0.0,0.0,0.0,0.0
1775764221184359645,64128,0.0,1.3,0.04,0.3,-0.02,-0.04,5.5,-2.75,-2.25,-0.01,-0.02,0.1,-0.0,-0.06,-0.06,11970.87,164.0,0.0,0.0,0.0,0.0
1775764221282577311,64228,0.0,1.4,0.048,0.1,0.02,0.04,5.5,-2.75,-2.25,0.0,-0.01,0.07,-0.06,-0.06,0.0,11967.96,160.0,0.0,0.0,0.0,0.0
1775764221380863823,64328,0.0,1.4,0.04,0.1,-0.04,-0.1,5.5,-2.75,-2.25,0.0,-0.03,0.08,-0.06,0.06,-0.06,11968.81,160.0,0.0,0.0,0.0,0.0
1775764221491192989,64428,0.0,1.2,0.028,0.2,-0.04,-0.14,5.5,-2.75,-2.25,-0.02,-0.03,0.09,0.06,-0.12,-0.12,11970.53,168.0,0.0,0.0,0.0,0.0
1775764221583495494,64528,0.0,1.3,0.024,0.3,0.02,-0.18,5.5,-2.75,-2.25,0.0,-0.04,0.08,0.12,-0.06,0.0,11967.44,161.0,0.0,0.0,0.0,0.0
1775764221691957022,64628,0.0,1.4,0.0,1.1,-0.14,-0.16,5.5,-2.75,-2.25,-0.02,-0.04,0.1,0.19,-0.0,0.0,11973.79,161.0,0.0,0.0,0.0,0.0
1775764221784167480,64729,0.0,0.9,0.004,0.3,-0.08,-0.06,5.5,-2.75,-2.25,-0.01,-0.01,0.07,-0.0,0.12,0.06,11973.27,163.0,0.0,0.0,0.0,0.0
1775764221892638545,64829,0.0,0.9,0.0,0.3,-0.23,-0.04,5.5,-2.75,-2.25,-0.05,-0.02,0.07,0.12,-0.06,0.12,11971.73,165.0,0.0,0.0,0.0,0.0
1775764221984929162,64929,0.0,0.8,0.0,0.3,0.08,0.12,5.5,-2.75,-2.25,0.0,-0.02,0.08,-0.06,0.12,0.06,11971.9,165.0,0.0,0.0,0.0,0.0
1775764222093263885,65029,0.0,1.0,0.008,0.3,-0.08,-0.08,5.5,-2.75,-2.25,-0.01,-0.04,0.08,0.06,-0.0,0.0,11971.39,165.0,0.0,0.0,0.0,0.0
1775764222183694992,65129,0.0,1.3,0.036,0.3,0.04,0.02,5.5,-2.75,-2.25,0.0,-0.03,0.08,-0.06,0.12,0.0,215.75,165.0,0.0,0.0,0.0,0.0
1775764222281871712,65228,0.0,1.2,0.048,0.6,-0.06,-0.14,5.5,-2.75,-2.25,-0.03,-0.03,0.08,0.06,-0.12,0.06,220.89,170.0,0.0,0.0,0.0,0.0
1775764222384276307,65329,0.0,1.2,0.032,0.6,0.04,-0.04,5.5,-2.75,-2.25,0.0,-0.02,0.1,-0.0,-0.12,0.0,194.31,170.0,0.0,0.0,0.0,0.0
1775764222494629090,65430,0.0,1.2,0.024,0.2,-0.06,-0.14,5.5,-2.75,-2.25,-0.01,-0.01,0.08,-0.06,-0.0,0.06,11973.27,159.0,0.0,0.0,0.0,0.0
1775764222586877412,65530,0.0,1.4,0.016,0.3,0.02,-0.1,5.5,-2.75,-2.25,0.0,-0.03,0.07,0.06,-0.06,0.0,11973.27,167.0,0.0,0.0,0.0,0.0
1775764222685191100,65630,0.0,1.4,0.008,0.3,-0.04,-0.27,5.5,-2.75,-2.25,0.01,-0.02,0.07,-0.0,-0.12,0.0,11972.07,169.0,0.0,0.0,0.0,0.0
1775764222787649783,65730,0.0,1.2,0.004,0.0,-0.02,0.06,5.5,-2.75,-2.25,-0.02,-0.05,0.08,0.06,-0.06,-0.06,11972.93,169.0,0.0,0.0,0.0,0.0
1775764222885917291,65830,0.0,1.2,0.0,0.5,-0.02,-0.1,5.5,-2.75,-2.25,0.0,-0.02,0.07,0.06,-0.0,0.06,11973.79,167.0,0.0,0.0,0.0,0.0
1775764222994241896,65930,0.0,1.1,0.016,0.3,-0.12,-0.12,5.5,-2.75,-2.25,0.0,-0.02,0.08,0.06,-0.0,0.0,11968.81,164.0,0.0,0.0,0.0,0.0
1775764223092514737,66030,0.0,1.4,0.008,0.3,-0.08,-0.1,5.5,-2.75,-2.25,-0.02,-0.01,0.07,0.12,-0.0,0.0,11969.33,164.0,0.0,0.0,0.0,0.0
1775764223187013879,66130,0.0,1.3,0.032,0.7,-0.08,-0.14,5.5,-2.75,-2.25,0.0,-0.04,0.08,-0.0,0.06,-0.06,11968.47,166.0,0.0,0.0,0.0,0.0
1775764223285255921,66230,0.0,1.2,0.04,0.4,-0.04,-0.12,5.5,-2.75,-2.25,-0.02,-0.02,0.08,0.06,0.06,0.0,11969.84,166.0,0.0,0.0,0.0,0.0
1775764223389511073,66330,0.0,1.2,0.028,0.3,0.16,-0.04,5.5,-2.75,-2.25,-0.01,-0.04,0.08,-0.06,0.12,0.06,11971.21,169.0,0.0,0.0,0.0,0.0
1775764223493911341,66430,0.0,1.2,0.024,0.1,0.18,-0.2,5.5,-2.75,-2.25,0.0,-0.01,0.08,-0.0,-0.19,0.06,11968.3,170.0,0.0,0.0,0.0,0.0
1775764223586256966,66530,0.0,1.2,0.02,0.2,0.02,-0.16,5.5,-2.75,-2.25,-0.01,-0.02,0.07,-0.12,0.06,0.0,11969.33,170.0,0.0,0.0,0.0,0.0
1775764223694566675,66629,0.0,1.3,0.004,0.1,0.0,-0.14,5.5,-2.75,-2.25,-0.03,-0.02,0.09,0.06,0.06,-0.06,11970.53,172.0,0.0,0.0,0.0,0.0
1775764223784944877,66729,0.0,1.7,0.008,0.3,-0.04,-0.1,5.5,-2.75,-2.25,-0.01,-0.01,0.06,-0.06,0.06,-0.06,194.65,172.0,0.0,0.0,0.0,0.0
1775764223885170211,66829,0.0,1.2,0.016,0.4,-0.04,-0.04,5.5,-2.75,-2.25,-0.02,-0.04,0.07,-0.0,-0.0,0.0,11969.5,169.0,0.0,0.0,0.0,0.0
1775764223993510935,66929,0.0,1.4,0.012,0.6,0.06,-0.08,5.5,-2.75,-2.25,-0.01,-0.04,0.07,-0.0,-0.06,0.06,11968.98,163.0,0.0,0.0,0.0,0.0
1775764224083917231,67030,0.0,1.4,0.004,0.3,0.04,-0.04,5.5,-2.75,-2.25,0.0,-0.04,0.09,-0.06,-0.12,0.12,206.83,163.0,0.0,0.0,0.0,0.0
1775764224186303593,67130,0.0,1.5,0.044,0.2,-0.2,-0.1,5.5,-2.75,-2.25,-0.03,-0.04,0.07,-0.06,0.06,-0.06,11970.01,174.0,0.0,0.0,0.0,0.0
1775764224284652621,67230,0.0,1.5,0.044,0.0,-0.02,-0.08,5.5,-2.75,-2.25,0.0,-0.02,0.05,0.06,-0.12,-0.06,11968.81,163.0,0.0,0.0,0.0,0.0
1775764224386949992,67330,0.0,1.3,0.032,0.6,0.0,0.02,5.5,-2.75,-2.25,-0.01,-0.02,0.07,-0.06,-0.06,0.0,206.83,163.0,0.0,0.0,0.0,0.0
1775764224487176098,67430,0.0,1.6,0.016,0.2,-0.16,-0.06,5.5,-2.75,-2.25,0.0,-0.04,0.07,-0.0,0.06,0.06,11968.98,164.0,0.0,0.0,0.0,0.0
1775764224583540299,67530,0.0,1.4,0.012,0.3,-0.02,-0.12,5.5,-2.75,-2.25,-0.02,-0.03,0.07,0.06,-0.06,-0.06,194.14,164.0,0.0,0.0,0.0,0.0
1775764224687857123,67630,0.0,1.2,0.0,0.2,-0.18,-0.2,5.5,-2.75,-2.25,-0.03,-0.03,0.06,-0.06,0.12,-0.06,11968.64,171.0,0.0,0.0,0.0,0.0
1775764224784237100,67730,0.0,1.1,0.004,0.5,0.0,0.02,5.5,-2.75,-2.25,0.01,-0.03,0.06,-0.06,-0.0,0.06,186.42,175.0,0.0,0.0,0.0,0.0
1775764224882507042,67829,0.0,1.4,0.008,0.3,-0.04,-0.16,5.5,-2.75,-2.25,0.0,-0.02,0.07,0.06,-0.06,0.0,219.35,175.0,0.0,0.0,0.0,0.0
1775764224992788294,67929,0.0,1.5,0.008,0.1,0.1,-0.06,5.5,-2.75,-2.25,0.0,-0.03,0.08,0.06,-0.06,0.06,11968.81,164.0,0.0,0.0,0.0,0.0
1775764225083182535,68029,0.0,1.2,0.0,0.2,-0.14,-0.27,5.5,-2.75,-2.25,0.0,-0.02,0.09,0.06,-0.0,-0.06,178.02,166.0,0.0,0.0,0.0,0.0
1775764225185582113,68129,0.0,1.3,0.056,0.3,-0.04,-0.18,5.5,-2.75,-2.25,0.0,-0.04,0.07,0.06,-0.0,-0.06,195.34,166.0,0.0,0.0,0.0,0.0
1775764225287923344,68230,0.0,1.4,0.048,0.4,-0.08,-0.12,5.5,-2.75,-2.25,0.0,-0.02,0.06,0.06,0.06,-0.06,178.02,162.0,0.0,0.0,0.0,0.0
1775764225386228725,68330,0.0,1.2,0.036,0.5,0.02,-0.12,5.5,-2.75,-2.25,0.0,-0.03,0.06,-0.0,0.06,0.0,165.5,162.0,0.0,0.0,0.0,0.0
1775764225484539160,68429,0.0,1.0,0.024,0.3,-0.04,-0.02,5.5,-2.75,-2.25,-0.02,-0.04,0.09,-0.06,-0.0,0.12,186.94,167.0,0.0,0.0,0.0,0.0
1775764225586943959,68529,0.0,1.4,0.02,0.5,0.08,-0.1,5.5,-2.75,-2.25,0.01,-0.03,0.06,0.06,-0.0,-0.06,166.01,165.0,0.0,0.0,0.0,0.0
1775764225685227194,68629,0.0,1.1,0.016,0.2,-0.04,-0.08,5.5,-2.75,-2.25,-0.02,-0.02,0.07,-0.19,-0.06,0.0,178.53,165.0,0.0,0.0,0.0,0.0
1775764225785435298,68728,0.0,1.3,0.004,0.3,0.06,-0.06,5.5,-2.75,-2.25,-0.01,-0.02,0.09,-0.0,-0.0,0.06,11970.53,176.0,0.0,0.0,0.0,0.0
1775764225893823390,68828,0.0,1.5,0.004,0.3,-0.02,-0.12,5.5,-2.75,-2.25,-0.01,-0.03,0.06,0.06,0.19,-0.12,11967.78,167.0,0.0,0.0,0.0,0.0
1775764225986115462,68928,0.0,1.4,0.0,0.3,-0.08,-0.23,5.5,-2.75,-2.25,0.0,-0.03,0.07,-0.0,-0.0,0.12,11966.07,169.0,0.0,0.0,0.0,0.0
1775764226084410903,69028,0.0,1.3,0.0,0.0,0.02,-0.25,5.5,-2.75,-2.25,-0.01,-0.05,0.07,0.12,0.06,0.0,11966.93,169.0,0.0,0.0,0.0,0.0
1775764226184945601,69128,0.0,1.4,0.048,0.3,-0.1,-0.2,5.5,-2.75,-2.25,-0.01,-0.03,0.05,0.06,-0.06,0.0,11966.93,163.0,0.0,0.0,0.0,0.0
1775764226283217204,69228,0.0,1.3,0.04,0.4,0.0,-0.18,5.5,-2.75,-2.25,-0.02,-0.03,0.06,-0.0,-0.12,0.0,11965.38,161.0,0.0,0.0,0.0,0.0
1775764226387489447,69328,0.0,1.5,0.04,0.2,-0.04,-0.14,5.5,-2.75,-2.25,-0.02,-0.01,0.03,-0.12,0.31,0.0,11969.16,161.0,0.0,0.0,0.0,0.0
1775764226485758161,69427,0.0,1.3,0.024,0.3,0.04,-0.12,5.5,-2.75,-2.25,-0.01,-0.03,0.06,0.06,0.06,0.0,11966.07,161.0,0.0,0.0,0.0,0.0
1775764226584052855,69527,0.0,1.4,0.008,0.3,0.08,0.04,5.5,-2.75,-2.25,-0.01,-0.02,0.06,-0.12,0.12,0.12,11965.21,166.0,0.0,0.0,0.0,0.0
1775764226692432514,69627,0.0,1.6,0.012,0.2,0.08,-0.25,5.5,-2.75,-2.25,0.0,-0.01,0.05,0.06,-0.0,-0.06,11968.98,166.0,0.0,0.0,0.0,0.0
1775764226784726808,69727,0.0,1.4,0.012,0.5,-0.12,-0.08,5.5,-2.75,-2.25,0.0,-0.04,0.05,0.06,-0.0,0.0,11967.27,171.0,0.0,0.0,0.0,0.0
1775764226885211733,69827,0.0,1.5,0.008,0.0,0.12,-0.18,5.5,-2.75,-2.25,-0.02,-0.02,0.06,-0.06,0.19,0.06,11968.98,171.0,0.0,0.0,0.0,0.0
1775764226991362794,69927,0.0,1.3,0.004,0.2,0.06,-0.16,5.5,-2.75,-2.25,0.0,-0.02,0.06,-0.19,0.12,-0.06,11968.64,168.0,0.0,0.0,0.0,0.0
1775764227093825881,70027,0.0,1.4,0.0,0.3,0.04,-0.06,5.5,-2.75,-2.25,0.0,-0.02,0.07,0.06,0.06,-0.06,11968.81,168.0,0.0,0.0,0.0,0.0
1775764227184178604,70127,0.0,1.3,0.04,0.6,-0.06,-0.16,5.5,-2.75,-2.25,0.0,-0.04,0.06,-0.0,0.06,0.0,174.42,168.0,0.0,0.0,0.0,0.0
1775764227282489737,70226,0.0,1.4,0.036,0.3,-0.08,-0.1,5.5,-2.75,-2.25,-0.01,-0.02,0.03,0.06,0.06,0.06,11968.81,168.0,0.0,0.0,0.0,0.0
1775764227380754838,70326,0.0,1.3,0.04,0.5,0.04,-0.27,5.5,-2.75,-2.25,0.0,-0.02,0.06,-0.12,-0.0,0.0,11967.27,168.0,0.0,0.0,0.0,0.0
1775764227485124549,70426,0.0,1.4,0.028,0.3,0.08,0.02,5.5,-2.75,-2.25,0.0,-0.02,0.09,-0.12,-0.06,0.0,11969.84,168.0,0.0,0.0,0.0,0.0
1775764227583306028,70526,0.0,1.2,0.008,0.3,-0.08,-0.04,5.5,-2.75,-2.25,-0.02,-0.04,0.06,-0.06,-0.12,0.0,11967.96,167.0,0.0,0.0,0.0,0.0
1775764227685811254,70626,0.0,1.3,0.02,0.3,0.04,-0.12,5.5,-2.75,-2.25,-0.02,-0.03,0.04,-0.12,-0.19,0.0,11969.16,167.0,0.0,0.0,0.0,0.0
1775764227784020231,70725,0.0,1.2,0.008,0.5,-0.16,-0.16,5.5,-2.75,-2.25,0.0,-0.03,0.06,-0.06,-0.06,0.06,11970.01,158.0,0.0,0.0,0.0,0.0
1775764227886458703,70825,0.0,1.4,0.008,0.3,-0.14,0.02,5.5,-2.75,-2.25,0.0,-0.02,0.07,0.19,-0.06,0.0,11968.47,169.0,0.0,0.0,0.0,0.0
1775764227982775938,70925,0.0,1.4,0.004,0.5,0.08,-0.02,5.5,-2.75,-2.25,-0.02,-0.05,0.09,-0.0,-0.0,-0.06,208.37,169.0,0.0,0.0,0.0,0.0
1775764228081066839,71025,0.0,1.4,0.004,0.2,0.02,-0.1,5.5,-2.75,-2.25,-0.01,-0.03,0.08,0.06,-0.12,0.0,191.05,160.0,0.0,0.0,0.0,0.0
1775764228179452890,71124,0.0,1.5,0.044,0.6,-0.12,-0.04,5.5,-2.75,-2.25,-0.02,-0.02,0.07,0.06,-0.12,0.0,11966.93,172.0,0.0,0.0,0.0,0.0
1775764228281706007,71224,0.0,1.5,0.052,0.3,-0.1,-0.12,5.5,-2.75,-2.25,-0.01,-0.03,0.07,0.12,0.12,-0.06,11969.16,172.0,0.0,0.0,0.0,0.0
1775764228380013398,71324,0.0,1.3,0.036,0.3,0.1,-0.16,5.5,-2.75,-2.25,0.0,-0.03,0.07,0.06,0.19,-0.06,186.76,172.0,0.0,0.0,0.0,0.0
1775764228482436535,71424,0.0,1.2,0.024,0.5,0.02,-0.06,5.5,-2.75,-2.25,0.0,-0.05,0.08,-0.0,0.06,0.0,195.34,172.0,0.0,0.0,0.0,0.0
1775764228582631872,71524,0.0,0.3,0.0,1.3,-0.08,-0.31,5.5,-2.75,-2.25,-0.02,-0.01,0.08,-0.12,-0.06,0.06,11971.9,167.0,0.0,0.0,0.0,0.0
1775764228691028018,71624,0.004,0.1,0.0,0.9,-0.04,-0.12,5.5,-2.75,-2.25,-0.01,-0.02,0.08,-0.06,-0.06,-0.06,11969.67,178.0,0.0,0.0,0.0,0.0
1775764228783317998,71725,0.0,1.1,0.012,0.1,-0.02,-0.21,5.5,-2.75,-2.25,-0.03,-0.02,0.08,-0.0,-0.06,0.0,11969.84,165.0,0.0,0.0,0.0,0.0
1775764228891693646,71825,0.0,1.0,0.004,0.5,-0.02,-0.06,5.5,-2.75,-2.25,-0.01,-0.04,0.09,-0.0,-0.19,0.0,11971.39,165.0,0.0,0.0,0.0,0.0
1775764228983997328,71925,0.0,1.0,0.0,0.3,0.08,-0.2,5.5,-2.75,-2.25,0.0,-0.04,0.07,-0.0,-0.0,0.12,11971.39,163.0,0.0,0.0,0.0,0.0
1775764229092376868,72025,0.0,1.0,0.012,0.3,-0.04,-0.08,5.5,-2.75,-2.25,-0.02,-0.01,0.09,0.12,-0.06,-0.12,11967.78,163.0,0.0,0.0,0.0,0.0
1775764229182745445,72125,0.0,1.1,0.044,0.2,0.0,-0.06,5.5,-2.75,-2.25,-0.02,-0.02,0.09,-0.0,0.06,0.06,169.61,166.0,0.0,0.0,0.0,0.0
1775764229281118495,72224,0.0,0.9,0.052,0.4,-0.02,-0.14,5.5,-2.75,-2.25,0.0,-0.03,0.09,-0.0,0.06,0.0,11967.27,163.0,0.0,0.0,0.0,0.0
1775764229385334195,72324,0.0,1.1,0.036,0.3,0.04,-0.12,5.5,-2.75,-2.25,-0.01,-0.0,0.07,0.06,-0.06,-0.06,11971.56,163.0,0.0,0.0,0.0,0.0
1775764229483640511,72424,0.0,0.9,0.028,0.3,-0.06,-0.18,5.5,-2.75,-2.25,0.0,-0.04,0.1,0.06,0.06,0.0,11970.87,166.0,0.0,0.0,0.0,0.0
1775764229592007655,72524,0.0,1.0,0.032,0.5,-0.06,-0.18,5.5,-2.75,-2.25,0.0,-0.03,0.08,-0.0,-0.06,0.0,11969.5,174.0,0.0,0.0,0.0,0.0
1775764229684419531,72624,0.0,0.8,0.02,0.2,0.02,-0.02,5.5,-2.75,-2.25,0.0,-0.01,0.08,0.19,-0.19,0.12,11971.56,174.0,0.0,0.0,0.0,0.0
1775764229782598434,72724,0.0,0.9,0.016,0.5,-0.06,-0.12,5.5,-2.75,-2.25,-0.01,-0.02,0.09,0.06,-0.12,0.0,11970.01,172.0,0.0,0.0,0.0,0.0
1775764229891075604,72824,0.0,1.0,0.012,0.3,-0.04,-0.08,5.5,-2.75,-2.25,-0.01,-0.02,0.09,0.06,-0.19,0.0,11970.87,172.0,0.0,0.0,0.0,0.0
1775764229983270372,72924,0.0,0.8,0.004,0.3,-0.1,-0.1,5.5,-2.75,-2.25,-0.01,-0.02,0.09,-0.19,0.12,-0.06,11970.36,162.0,0.0,0.0,0.0,0.0
1775764230091622336,73024,0.0,1.0,0.012,0.5,-0.1,-0.21,5.5,-2.75,-2.25,-0.01,-0.03,0.06,0.06,-0.0,-0.12,11966.07,168.0,0.0,0.0,0.0,0.0
1775764230182051649,73124,0.0,0.9,0.04,0.3,0.04,-0.21,5.5,-2.75,-2.25,0.0,-0.01,0.09,-0.25,-0.0,0.06,11968.98,168.0,0.0,0.0,0.0,0.0
1775764230284387254,73225,0.0,0.9,0.048,0.1,0.08,-0.16,5.5,-2.75,-2.25,0.0,-0.05,0.07,-0.06,-0.0,0.0,11967.96,168.0,0.0,0.0,0.0,0.0
1775764230382729603,73325,0.0,0.7,0.036,0.3,0.04,-0.12,5.5,-2.75,-2.25,0.0,-0.02,0.08,-0.06,-0.0,0.06,173.9,168.0,0.0,0.0,0.0,0.0
1775764230482916122,73424,0.0,0.8,0.024,0.2,-0.12,-0.12,5.5,-2.75,-2.25,0.0,-0.04,0.1,-0.12,-0.0,0.12,11968.47,167.0,0.0,0.0,0.0,0.0
1775764230583390909,73524,0.0,1.1,0.02,0.3,-0.02,-0.04,5.5,-2.75,-2.25,-0.01,-0.04,0.1,-0.06,0.12,0.06,182.13,167.0,0.0,0.0,0.0,0.0
1775764230683597797,73624,0.0,1.1,0.012,0.5,-0.06,-0.16,5.5,-2.75,-2.25,-0.02,-0.03,0.07,-0.0,0.06,0.06,11971.9,169.0,0.0,0.0,0.0,0.0
1775764230785981637,73724,0.0,1.4,0.012,0.5,0.04,-0.06,5.5,-2.75,-2.25,-0.01,-0.03,0.07,0.19,-0.06,0.0,11972.41,162.0,0.0,0.0,0.0,0.0
1775764230884280306,73824,0.0,1.3,0.0,0.3,0.16,-0.1,5.5,-2.75,-2.25,-0.02,-0.01,0.09,0.06,-0.06,0.06,11970.36,169.0,0.0,0.0,0.0,0.0
1775764230992664795,73924,0.0,1.4,0.012,0.3,-0.04,-0.16,5.5,-2.75,-2.25,-0.02,-0.02,0.1,-0.0,-0.0,0.0,11970.87,169.0,0.0,0.0,0.0,0.0
1775764231090913566,74024,0.0,1.3,0.0,0.7,-0.06,-0.18,5.5,-2.75,-2.25,0.0,-0.02,0.06,-0.0,-0.06,0.0,11971.73,172.0,0.0,0.0,0.0,0.0
1775764231181312145,74124,0.0,1.3,0.04,0.4,-0.04,-0.16,5.5,-2.75,-2.25,-0.02,-0.02,0.1,0.06,-0.12,0.12,11968.98,167.0,0.0,0.0,0.0,0.0
1775764231283674801,74224,0.0,1.4,0.056,0.6,-0.02,-0.31,5.5,-2.75,-2.25,0.0,-0.03,0.08,-0.0,-0.0,-0.06,11970.7,167.0,0.0,0.0,0.0,0.0
1775764231387999355,74324,0.0,1.5,0.044,0.2,0.02,-0.12,5.5,-2.75,-2.25,0.0,-0.05,0.03,-0.12,-0.12,0.0,11968.81,170.0,0.0,0.0,0.0,0.0
1775764231484397026,74424,0.0,0.8,0.028,0.1,0.1,-0.1,5.5,-2.75,-2.25,-0.01,-0.04,0.08,-0.06,-0.0,-0.12,11969.33,170.0,0.0,0.0,0.0,0.0
1775764231584597858,74524,0.0,0.9,0.028,0.7,-0.1,-0.14,5.5,-2.75,-2.25,-0.03,-0.01,0.09,0.06,-0.06,0.0,11967.61,174.0,0.0,0.0,0.0,0.0
1775764231693044838,74625,0.0,1.1,0.02,0.2,-0.06,-0.06,5.5,-2.75,-2.25,-0.02,-0.03,0.1,-0.06,0.06,-0.06,11967.61,170.0,0.0,0.0,0.0,0.0
1775764231791255718,74725,0.0,1.1,0.004,0.3,0.12,-0.12,5.5,-2.75,-2.25,0.0,-0.02,0.08,-0.0,0.06,0.0,11969.84,170.0,0.0,0.0,0.0,0.0
1775764231893700458,74824,0.0,0.6,0.004,0.2,0.04,-0.06,5.5,-2.75,-2.25,-0.02,-0.05,0.09,-0.0,0.12,0.0,11969.84,172.0,0.0,0.0,0.0,0.0
1775764231991959501,74925,0.0,1.1,0.0,0.5,0.12,-0.14,5.5,-2.75,-2.25,0.0,-0.03,0.09,-0.0,-0.06,0.0,11967.78,161.0,0.0,0.0,0.0,0.0
1775764232084330152,75025,0.0,1.0,0.0,0.1,0.08,-0.04,5.5,-2.75,-2.25,-0.03,-0.03,0.09,0.12,-0.06,-0.06,11967.78,161.0,0.0,0.0,0.0,0.0
