timestamp_ns,time_ms,voltage_left,current_left_ma,voltage_right,current_right_ma,motor_current_left,motor_current_right,euler_x,euler_y,euler_z,acc_lin_x,acc_lin_y,acc_lin_z,gyro_x,gyro_y,gyro_z,sonar_mm,tof_mm,rpm_left,rpm_right,rotations_left,rotations_right
1776370249821528850,56014,0.0,0.4,0.0,1.1,0.04,0.0,0.56,-0.06,7.75,0.25,-0.28,-0.34,-2.56,3.06,1.12,853.21,1545.0,0.0,0.0,0.0,0.0
1776370252637860803,56014,0.0,0.4,0.0,1.1,0.04,0.0,0.56,-0.06,7.75,0.25,-0.28,-0.34,-2.56,3.06,1.12,853.21,1545.0,0.0,0.0,0.0,
1776370252730040401,1904,0.008,0.3,0.0,0.7,0.0,0.08,2.31,2.0,8.25,0.01,-0.01,-0.16,0.12,3.38,9.69,850.81,776.0,0.0,0.0,0.0,0.0
1776370252828332697,2004,0.008,0.4,0.0,0.3,0.04,-0.04,3.19,1.88,8.31,0.0,-0.08,0.0,2.56,1.19,6.88,823.71,1133.0,0.0,0.0,0.0,0.0
1776370252930766415,2104,0.0,0.1,0.0,0.8,0.04,-0.12,3.69,1.88,8.5,-0.03,-0.0,0.01,0.69,0.12,3.81,831.43,1133.0,0.0,0.0,0.0,0.0
1776370253036958401,2204,0.004,0.4,0.0,1.0,-0.08,-0.06,4.06,1.94,8.5,-0.03,-0.09,-0.02,-0.19,1.06,2.56,11933.31,849.0,0.0,0.0,0.0,0.0
1776370253131444057,2305,0.0,0.0,0.0,1.3,-0.02,0.08,4.13,1.81,8.44,-0.03,-0.15,-0.03,-1.06,-0.06,-2.5,836.06,940.0,0.0,0.0,0.0,0.0
1776370253229750555,2405,0.04,0.2,0.0,0.7,0.18,-0.1,3.69,1.75,8.38,-0.07,-0.11,-0.09,-2.31,-1.5,-5.69,835.38,940.0,0.0,0.0,0.0,0.0
1776370253332147661,2506,0.0,0.5,0.04,0.5,0.16,-0.06,2.94,1.75,8.25,-0.03,-0.07,-0.12,-0.94,-0.94,-9.25,839.66,2256.0,0.0,0.0,0.0,0.0
1776370253430394714,2606,0.0,0.6,0.0,0.4,-0.04,-0.04,2.06,1.69,8.19,0.02,-0.06,-0.1,-0.56,-0.69,-9.63,845.67,716.0,0.0,0.0,0.0,0.0
1776370253532798393,2707,0.0,0.3,0.0,0.9,0.02,-0.08,1.0,1.5,8.25,-0.07,-0.16,-0.09,1.31,-0.81,-12.69,819.6,716.0,0.0,0.0,0.0,0.0
1776370253631113503,2806,0.016,0.2,0.0,1.0,-0.16,0.0,-0.31,1.44,8.44,0.04,-0.0,-0.09,1.56,-2.25,-14.06,879.62,1032.0,0.0,0.0,0.0,0.0
1776370253729418576,2906,0.012,0.1,0.0,1.2,-0.04,-0.02,-1.63,1.44,8.63,0.06,0.02,-0.04,2.06,-1.37,-12.19,840.52,811.0,0.0,0.0,0.0,0.0
1776370253831839181,3006,0.0,0.2,0.0,0.2,-0.14,0.06,-2.69,1.5,8.88,0.07,0.07,-0.05,2.0,-1.81,-10.44,832.63,811.0,0.0,0.0,0.0,0.0
1776370253930146328,3105,0.0,0.4,0.0,1.0,-0.14,-0.1,-3.63,1.5,9.0,0.1,0.15,0.05,1.12,-1.94,-8.06,840.18,1418.0,0.0,0.0,0.0,0.0
1776370254032541397,3206,0.0,0.7,0.0,0.6,-0.12,-0.1,-4.19,1.56,9.06,0.05,0.18,-0.05,0.06,-0.69,-4.31,864.36,1418.0,0.0,0.0,0.0,0.0
1776370254130849450,3306,0.004,0.1,0.0,0.6,-0.2,0.02,-4.44,1.63,9.06,0.05,0.07,-0.08,0.56,-0.0,0.0,876.88,1432.0,0.0,0.0,0.0,0.0
1776370254233245980,3406,0.048,-0.1,0.0,0.9,0.0,0.1,-4.38,1.63,9.13,0.03,0.05,-0.02,1.44,-0.0,1.19,863.16,867.0,0.0,0.0,0.0,0.0
1776370254331524977,3506,0.036,0.2,0.0,1.1,-0.06,-0.12,-4.19,1.63,9.31,0.03,0.03,-0.01,1.25,0.25,2.69,870.36,867.0,0.0,0.0,0.0,0.0
1776370254433897637,3606,0.032,0.3,0.0,1.0,0.02,-0.14,-3.94,1.63,9.38,0.03,-0.03,-0.02,0.63,1.19,2.06,844.12,1188.0,0.0,0.0,0.0,0.0
1776370254532209245,3706,0.024,0.1,0.0,1.0,0.0,-0.14,-3.75,1.63,9.38,0.0,-0.04,-0.02,0.06,-0.44,1.63,839.84,1013.0,0.0,0.0,0.0,0.0
1776370254634649665,3807,0.012,0.6,0.0,1.0,-0.08,-0.06,-3.63,1.63,9.38,0.04,0.01,-0.06,0.19,0.75,1.5,856.64,1013.0,0.0,0.0,0.0,0.0
1776370254732962052,3907,0.004,-0.1,0.0,1.2,-0.04,-0.06,-3.38,1.63,9.38,-0.06,-0.08,0.0,-0.44,0.44,2.25,835.72,1508.0,0.0,0.0,0.0,0.0
1776370254831195085,4007,0.0,1.1,0.0,0.5,0.0,0.0,-3.25,1.63,9.25,0.0,-0.07,-0.11,-1.25,0.69,0.88,822.69,995.0,0.0,0.0,0.0,0.0
1776370254933664320,4107,0.0,0.7,0.0,0.2,0.02,-0.02,-3.13,1.69,9.25,0.0,-0.02,-0.07,-0.12,0.31,1.25,849.78,995.0,0.0,0.0,0.0,0.0
1776370255031952317,4207,0.0,0.3,0.0,0.3,0.06,0.04,-3.06,1.69,9.25,-0.02,-0.07,-0.04,-0.37,-0.75,0.25,813.42,1192.0,0.0,0.0,0.0,0.0
1776370255134353236,4307,0.0,0.1,0.0,0.9,0.18,-0.08,-3.06,1.69,9.19,0.02,-0.06,-0.03,-0.88,-0.06,0.25,812.91,1192.0,0.0,0.0,0.0,0.0
1776370255232649658,4407,0.052,0.0,0.0,1.0,-0.1,-0.06,-3.06,1.69,9.13,-0.01,-0.05,-0.11,-0.25,-0.31,0.06,813.42,1078.0,0.0,0.0,0.0,0.0
1776370255330979099,4506,0.0,0.7,0.0,1.0,0.08,-0.02,-3.06,1.69,9.13,0.03,-0.05,-0.06,0.06,-0.63,-0.12,827.14,1543.0,0.0,0.0,0.0,0.0
1776370255433388203,4606,0.0,0.7,0.0,0.9,0.04,-0.12,-3.06,1.75,9.13,0.03,-0.0,0.03,-0.25,-0.0,-0.37,813.6,1543.0,0.0,0.0,0.0,0.0
1776370255531611328,4706,0.0,0.7,0.0,1.1,-0.02,-0.06,-3.06,1.75,9.06,-0.01,-0.03,-0.01,-1.81,1.94,0.25,836.06,1028.0,0.0,0.0,0.0,0.0
1776370255629920009,4805,0.016,0.6,0.008,0.3,0.1,-0.12,-3.06,1.56,8.88,0.02,-0.12,-0.09,-1.56,-0.25,-0.25,829.03,1472.0,0.0,0.0,0.0,0.0
1776370255732360132,4904,0.004,0.2,0.0,0.2,0.0,-0.14,-3.13,1.5,8.69,0.08,-0.12,-0.07,-1.31,0.37,-0.56,852.01,1472.0,0.0,0.0,0.0,0.0
1776370255830667591,5005,0.012,0.4,0.0,0.9,-0.02,-0.18,-3.06,1.5,8.63,0.02,0.07,-0.01,-0.56,0.12,1.63,851.67,1172.0,0.0,0.0,0.0,0.0
1776370255928945865,5104,0.004,0.3,0.0,1.0,0.04,-0.14,-2.94,1.44,8.5,0.13,0.04,-0.16,-1.06,-0.88,0.44,856.81,873.0,0.0,0.0,0.0,0.0
1776370256031352913,5203,0.0,0.3,0.0,0.9,-0.12,-0.06,-2.81,1.5,8.5,0.02,0.01,0.01,0.44,0.94,2.94,920.27,873.0,0.0,0.0,0.0,0.0
1776370256137603248,5303,0.0,0.2,0.0,0.7,-0.06,-0.08,-2.5,1.37,8.5,-0.02,-0.11,-0.12,0.63,1.19,2.06,11934.68,946.0,0.0,0.0,0.0,0.0
1776370256239995258,5403,0.0,0.3,0.0,0.6,-0.08,-0.12,-2.38,1.44,8.56,0.1,-0.03,-0.04,0.81,-0.88,0.88,11934.17,820.0,0.0,0.0,0.0,0.0
1776370256330358247,5504,0.0,0.9,0.0,0.5,-0.04,-0.12,-2.31,1.5,8.63,0.01,-0.01,-0.02,0.31,-0.0,1.5,11934.34,820.0,0.0,0.0,0.0,0.0
1776370256432759683,5604,0.0,1.0,0.0,0.8,0.02,-0.08,-2.13,1.5,8.63,0.0,-0.03,-0.02,-0.5,0.88,0.69,891.11,1052.0,0.0,0.0,0.0,0.0
1776370256531031567,5703,0.02,0.3,0.0,0.5,0.0,-0.06,-2.19,1.37,8.56,0.03,-0.11,-0.12,-0.69,0.69,-0.56,912.55,1052.0,0.0,0.0,0.0,0.0
1776370256629335803,5803,0.02,0.2,0.0,0.7,-0.02,0.0,-2.13,1.37,8.56,0.01,0.01,-0.08,0.81,-0.44,0.37,916.67,1776.0,0.0,0.0,0.0,0.0
1776370256731770740,5903,0.004,0.2,0.004,0.5,0.04,-0.06,-2.13,1.37,8.56,0.01,-0.04,0.0,0.44,-0.31,0.81,906.72,2218.0,0.0,0.0,0.0,0.0
1776370256830058920,6003,0.004,0.1,0.0,1.2,0.06,-0.14,-2.0,1.44,8.63,0.05,0.02,0.0,0.37,0.63,1.69,868.99,2218.0,0.0,0.0,0.0,0.0
1776370256932442633,6103,0.0,0.9,0.008,0.4,0.14,0.06,-1.81,1.31,8.56,0.05,-0.0,-0.02,0.5,1.44,2.81,819.43,652.0,0.0,0.0,0.0,0.0
1776370257030760092,6204,0.0,0.9,0.0,0.6,-0.08,-0.16,-1.5,1.25,8.56,-0.08,-0.06,-0.05,-0.94,0.31,2.56,827.49,652.0,0.0,0.0,0.0,0.0
1776370257133164045,6304,0.0,0.3,0.0,0.3,0.1,-0.02,-1.37,1.25,8.38,-0.03,-0.07,-0.08,-1.5,-0.44,0.63,858.36,1087.0,0.0,0.0,0.0,0.0
1776370257231464503,6404,0.0,1.0,0.0,0.6,0.1,0.02,-1.37,1.25,8.31,0.02,-0.06,-0.13,-0.44,0.06,0.31,846.35,1460.0,0.0,0.0,0.0,0.0
1776370257341791351,6505,0.0,0.4,0.0,0.9,0.14,-0.08,-1.37,1.25,8.31,-0.03,-0.04,-0.04,0.88,-0.31,-0.12,11932.97,911.0,0.0,0.0,0.0,0.0
1776370257432197007,6605,0.0,0.3,0.0,1.0,0.1,0.02,-1.37,1.25,8.38,0.0,-0.08,-0.08,0.88,-0.12,-0.37,11933.14,839.0,0.0,0.0,0.0,0.0
1776370257534533292,6705,0.0,0.2,0.0,0.9,-0.02,-0.14,-1.37,1.25,8.5,-0.02,-0.05,0.0,0.69,-0.19,-0.81,921.98,839.0,0.0,0.0,0.0,0.0
1776370257632864546,6806,0.008,0.0,0.0,1.2,-0.08,0.0,-1.5,1.25,8.5,-0.01,-0.07,-0.06,-0.25,-0.19,-0.88,879.62,839.0,0.0,0.0,0.0,0.0
1776370257735267481,6905,0.008,0.3,0.0,0.8,-0.1,-0.06,-1.5,1.25,8.5,0.0,-0.05,-0.06,-0.06,-0.0,0.0,871.39,1333.0,0.0,0.0,0.0,0.0
1776370257833571050,7006,0.0,0.4,0.0,1.0,0.0,-0.14,-1.5,1.31,8.5,-0.01,-0.04,-0.07,-0.56,-0.81,0.63,846.52,1061.0,0.0,0.0,0.0,0.0
1776370257943924547,7106,0.0,0.3,0.0,0.6,0.0,-0.1,-1.37,1.44,8.5,0.0,0.03,-0.12,0.25,-0.0,1.19,11932.28,1612.0,0.0,0.0,0.0,0.0
1776370258042213059,7206,0.0,0.2,0.0,0.3,0.08,-0.06,-1.25,1.37,8.63,-0.03,-0.07,-0.1,2.19,0.69,1.69,11933.31,1612.0,0.0,0.0,0.0,0.0
1776370258144717569,7306,0.0,0.1,0.0,0.7,0.0,-0.06,-1.12,1.37,8.81,0.17,-0.1,-0.02,1.81,0.06,0.63,11931.77,946.0,0.0,0.0,0.0,0.0
1776370258242919376,7406,0.048,0.2,0.0,1.2,-0.18,-0.1,-1.12,1.44,8.94,0.12,-0.0,0.0,1.31,-1.75,-0.81,11931.08,1049.0,0.0,0.0,0.0,0.0
1776370258333286345,7506,0.04,0.3,0.0,1.2,-0.14,-0.02,-1.44,1.44,8.94,0.01,-0.16,0.06,-0.88,0.12,-4.13,11932.63,1049.0,0.0,0.0,0.0,0.0
1776370258435649778,7606,0.028,0.6,0.0,0.8,0.08,-0.02,-1.75,1.25,8.69,0.13,0.27,0.14,-2.69,2.56,-2.06,886.14,1049.0,0.0,0.0,0.0,0.0
1776370258539923911,7706,0.0,0.9,0.0,1.1,0.1,-0.04,-2.06,1.06,8.25,0.11,-0.12,-0.29,-6.25,-0.5,-4.06,11932.45,1065.0,0.0,0.0,0.0,0.0
1776370258753428779,7806,0.016,0.1,0.0,0.9,-0.18,0.02,-2.44,1.19,8.0,0.08,0.1,-0.11,2.44,-1.75,-4.06,11934.17,1731.0,0.0,0.0,0.0,0.0
1776370258766145570,7906,0.0,0.5,0.0,0.4,-0.06,0.0,-2.88,1.31,8.19,0.05,-0.06,-0.02,-0.0,-2.75,-4.0,11932.45,1115.0,0.0,0.0,0.0,0.0
1776370258832960526,8006,0.0,0.3,0.0,0.2,-0.12,-0.08,-3.25,1.25,8.19,-0.14,-0.11,-0.09,0.81,3.0,-3.81,836.06,1115.0,0.0,0.0,0.0,0.0
1776370258935382887,8105,0.0,0.2,0.0,0.9,0.06,0.0,-3.56,0.88,8.19,0.02,-0.36,-0.07,-0.44,0.25,-3.25,915.12,1068.0,0.0,0.0,0.0,0.0
1776370259035637876,8205,0.0,0.2,0.0,1.2,0.1,0.0,-4.0,0.75,8.31,0.02,-0.14,-0.17,2.38,-1.44,-5.19,11931.6,1292.0,0.0,0.0,0.0,0.0
1776370259138100199,8305,0.0,0.6,0.0,1.1,0.08,-0.1,-4.38,0.75,8.56,-0.12,0.07,0.0,1.88,1.12,0.06,11932.45,1292.0,0.0,0.0,0.0,0.0
1776370259234373954,8406,0.048,0.2,0.0,0.8,-0.02,-0.06,-4.19,0.75,8.75,0.01,0.03,-0.16,1.37,0.12,3.0,802.79,1134.0,0.0,0.0,0.0,0.0
1776370259336813850,8507,0.032,0.2,0.0,0.8,0.02,0.04,-3.94,0.69,8.94,0.16,-0.11,0.0,3.88,3.19,1.37,799.88,1134.0,0.0,0.0,0.0,0.0
1776370259435088213,8606,0.0,0.3,0.0,1.2,-0.02,-0.12,-3.81,0.37,9.19,0.35,-0.06,0.04,1.63,2.13,1.31,840.86,2528.0,0.0,0.0,0.0,0.0
1776370259537430312,8706,0.012,0.3,0.0,1.1,0.0,-0.06,-3.69,0.25,9.13,0.76,-0.11,0.34,-0.94,2.88,-2.06,845.15,2528.0,0.0,0.0,0.0,0.0
1776370259637748135,8806,0.012,0.3,0.0,1.2,-0.08,-0.02,-4.19,0.75,8.75,0.23,0.31,0.66,-6.75,-8.13,-4.5,11937.09,1169.0,0.0,0.0,0.0,0.0
1776370259734043408,8906,0.0,1.0,0.004,0.1,-0.08,-0.23,-4.5,0.06,8.31,0.25,0.31,-0.03,0.31,19.56,-2.38,825.94,1054.0,0.0,0.0,0.0,0.0
1776370259836453064,9007,0.0,0.6,0.0,0.6,0.06,0.04,-4.06,-1.56,9.0,0.18,-0.81,-0.37,12.19,16.0,5.81,840.52,1054.0,0.0,0.0,0.0,0.0
1776370259938891071,9107,0.0,0.2,0.0,1.3,-0.06,-0.06,-3.13,-2.31,9.75,0.18,-0.07,0.09,0.69,13.13,12.38,844.64,1790.0,0.0,0.0,0.0,0.0
1776370260061437866,9207,0.0,0.3,0.0,0.7,0.0,-0.08,-1.88,-3.38,9.31,0.52,-0.4,-0.38,-7.94,9.94,9.44,11934.34,1105.0,0.0,0.0,0.0,0.0
1776370260145547005,9307,0.0,0.7,0.0,0.8,0.0,-0.1,-1.0,-3.69,8.56,1.17,-0.33,-0.65,-3.94,1.12,7.19,841.38,1105.0,0.0,0.0,0.0,0.0
1776370260237883414,9408,0.048,0.2,0.0,0.9,-0.06,0.0,-0.75,-4.06,9.0,0.8,-0.01,-0.42,8.81,4.81,0.94,776.04,841.0,0.0,0.0,0.0,0.0
1776370260336186776,9507,0.036,0.3,0.0,0.2,0.04,-0.02,-0.37,-4.5,9.63,0.15,-0.38,-0.03,3.56,2.56,5.5,849.95,1047.0,0.0,0.0,0.0,0.0
1776370260438623968,9608,0.0,0.5,0.0,1.0,-0.12,0.04,0.56,-4.06,9.5,-0.12,0.31,0.79,-4.81,-3.25,14.13,878.42,1047.0,0.0,0.0,0.0,0.0
1776370260540935324,9709,0.0,0.9,0.0,0.9,-0.08,-0.02,2.13,-3.94,9.13,-0.8,-0.03,0.61,-6.63,5.25,15.19,929.19,1146.0,0.0,0.0,0.0,0.0
1776370260639257002,9809,0.0,0.6,0.02,0.2,-0.1,0.0,3.31,-4.56,8.63,-0.62,-0.1,0.5,-12.0,7.75,6.88,928.33,1146.0,0.0,0.0,0.0,0.0
1776370260747713500,9910,0.0,0.2,0.012,0.2,0.0,-0.18,3.81,-4.94,7.88,-0.05,-0.22,-0.34,-4.44,-3.19,4.44,926.44,1042.0,0.0,0.0,0.0,0.0
1776370260839986352,10009,0.0,0.4,0.0,0.2,-0.06,0.0,4.31,-4.0,7.94,-0.18,-0.3,-0.95,1.12,-17.31,9.0,957.31,1248.0,0.0,0.0,0.0,0.0
1776370260993413747,10108,0.0,0.3,0.0,1.1,-0.2,-0.06,4.88,-2.25,8.19,-0.53,0.45,-0.86,2.88,-14.13,4.25,1049.58,1248.0,0.0,0.0,0.0,0.0
1776370261036605799,10208,0.004,1.1,0.0,0.9,-0.06,0.02,4.81,-2.06,8.13,-0.05,0.16,-0.72,-3.88,7.69,-3.06,951.31,983.0,0.0,0.0,0.0,0.0
1776370261138989934,10307,0.0,0.2,0.0,1.1,0.1,-0.06,4.75,-2.81,7.81,0.41,-0.06,-0.32,-1.5,5.13,-0.19,996.59,1185.0,0.0,0.0,0.0,0.0
1776370261237310221,10407,0.0,0.3,0.0,0.5,-0.16,-0.23,4.63,-2.75,7.63,0.67,-0.0,-0.4,6.06,-7.56,-3.69,872.94,1185.0,0.0,0.0,0.0,0.0
1776370261345649717,10507,0.0,0.8,0.044,0.3,-0.08,-0.04,3.81,-2.0,7.69,-0.03,0.32,0.27,-3.38,-7.81,-14.13,901.4,1057.0,0.0,0.0,0.0,0.0
1776370261438013588,10607,0.0,0.5,0.02,1.2,0.0,-0.12,2.19,-1.88,6.69,-0.6,-0.28,0.94,-8.5,-2.88,-16.31,895.23,1057.0,0.0,0.0,0.0,0.0
1776370261536346450,10707,0.016,0.3,0.0,0.5,0.12,-0.16,1.0,-1.81,6.88,-0.62,-0.09,0.02,5.38,-1.88,-7.31,11936.57,1136.0,0.0,0.0,0.0,0.0
1776370261638669250,10807,0.0,0.7,0.004,0.8,-0.1,0.04,0.44,-2.38,7.44,-0.65,-0.07,-0.33,2.38,14.38,-4.81,929.7,1051.0,0.0,0.0,0.0,0.0
1776370261737023224,10906,0.0,0.9,0.0,0.8,-0.1,0.06,0.19,-4.06,7.63,-0.19,-0.18,-0.66,-2.38,13.13,-0.75,916.67,1051.0,0.0,0.0,0.0,0.0
1776370261857433907,11005,0.012,0.1,0.0,1.1,0.02,-0.06,0.44,-4.94,7.75,0.08,-0.11,-0.4,4.69,3.13,3.81,934.5,1487.0,0.0,0.0,0.0,0.0
1776370261937699146,11106,0.004,0.2,0.0,0.8,0.02,-0.14,0.63,-5.06,8.5,0.26,-0.04,-0.27,9.81,-1.56,2.19,926.79,1276.0,0.0,0.0,0.0,0.0
1776370262036068045,11205,0.012,0.4,0.0,0.8,0.06,0.0,1.12,-5.5,8.81,0.49,0.08,-0.34,-2.75,7.19,6.69,905.35,1276.0,0.0,0.0,0.0,0.0
1776370262134272682,11304,0.0,0.3,0.0,1.4,0.04,-0.08,1.37,-5.63,8.38,1.04,0.03,0.21,0.5,-4.5,-0.69,898.49,1729.0,0.0,0.0,0.0,0.0
1776370262236709168,11405,0.052,0.1,0.056,0.5,-0.04,-0.02,1.25,-4.5,8.44,0.67,-0.39,-0.55,-1.5,-17.44,2.75,894.2,1729.0,0.0,0.0,0.0,0.0
1776370262339120266,11506,0.0,1.1,0.0,0.9,-0.06,-0.12,1.5,-2.75,7.0,-0.01,0.04,0.0,-21.75,-19.5,0.88,912.04,1132.0,0.0,0.0,0.0,0.0
1776370262437434404,11607,0.0,0.9,0.024,0.3,0.08,-0.08,1.63,-2.69,5.31,0.22,0.1,1.39,0.37,23.37,5.13,930.04,1027.0,0.0,0.0,0.0,0.0
1776370262539762000,11707,0.0,0.1,0.0,0.5,-0.06,-0.21,2.19,-4.94,6.88,-0.4,-0.28,-0.18,16.75,9.81,1.19,1028.66,1027.0,0.0,0.0,0.0,0.0
1776370262640030598,11806,0.0,0.9,0.008,0.1,0.02,0.0,1.94,-4.56,7.56,-0.55,-0.11,0.02,-3.69,-11.0,-2.13,11934.17,1738.0,0.0,0.0,0.0,0.0
1776370262736413370,11906,0.0,0.6,0.004,0.2,-0.16,-0.06,1.81,-3.38,6.69,-0.5,0.15,0.41,-8.38,-8.44,-0.63,953.03,1331.0,0.0,0.0,0.0,0.0
1776370262838812079,12006,0.0,0.1,0.004,0.4,-0.04,-0.04,1.81,-2.81,6.19,-0.27,0.52,-0.75,-5.75,-2.19,2.5,1024.2,1331.0,0.0,0.0,0.0,0.0
1776370262937112069,12105,0.0,0.3,0.008,0.2,-0.12,-0.12,2.31,-2.44,5.5,-0.42,0.27,-0.3,-10.81,-1.88,5.81,1084.22,697.0,0.0,0.0,0.0,0.0
1776370263037386130,12205,0.0,0.0,0.0,0.7,0.06,-0.1,2.75,-2.06,4.5,0.48,0.4,-0.3,-10.13,-3.69,2.5,11935.54,867.0,0.0,0.0,0.0,0.0
1776370263137805007,12305,0.0,0.6,0.004,0.2,0.04,-0.18,2.44,-1.94,3.19,0.32,0.22,-0.58,-13.31,4.38,-6.56,962.63,867.0,0.0,0.0,0.0,0.0
1776370263236134830,12405,0.056,0.2,0.0,0.4,0.02,0.0,2.06,-2.5,2.0,0.35,0.12,-0.81,-8.31,9.31,-0.88,1006.19,1532.0,0.0,0.0,0.0,0.0
1776370263338510741,12506,0.0,0.9,0.0,0.9,-0.06,0.12,2.19,-3.31,1.63,0.19,-0.0,-0.56,5.06,4.63,1.63,955.43,1532.0,0.0,0.0,0.0,0.0
1776370263436808693,12606,0.0,0.5,0.02,0.2,-0.06,-0.16,2.0,-2.94,2.63,-0.14,-0.28,0.75,15.19,-11.63,-6.19,998.47,1620.0,0.0,0.0,0.0,0.0
1776370263539187975,12705,0.0,0.6,0.024,0.2,0.0,-0.23,0.81,-1.88,3.94,-0.45,0.31,0.83,11.94,-5.69,-16.12,970.0,1223.0,0.0,0.0,0.0,0.0
1776370263637497705,12805,0.012,0.2,0.0,0.3,-0.02,-0.02,-0.44,-2.38,4.81,-0.37,-0.38,0.18,4.63,13.5,-6.69,982.52,1223.0,0.0,0.0,0.0,0.0
1776370263735796528,12905,0.0,0.1,0.0,0.8,0.02,-0.14,-0.56,-3.5,5.19,-0.34,-0.59,-0.37,2.0,5.69,3.44,942.74,1512.0,0.0,0.0,0.0,0.0
1776370263838189939,13005,0.0,0.1,0.0,0.9,0.04,-0.1,-0.37,-3.69,5.19,-0.43,-0.4,-0.4,-2.63,-2.5,-1.12,983.38,1430.0,0.0,0.0,0.0,0.0
1776370263940635906,13106,0.0,0.5,0.004,0.7,-0.02,-0.12,-0.69,-3.5,5.0,0.0,-0.01,-0.56,-2.13,-0.19,-6.06,1050.95,1430.0,0.0,0.0,0.0,0.0
1776370264038917377,13206,0.0,0.1,0.0,0.5,-0.14,0.0,-1.37,-3.81,4.81,0.2,-0.3,-0.38,-0.25,4.0,-7.88,986.64,1296.0,0.0,0.0,0.0,0.0
1776370264137180587,13305,0.004,0.2,0.0,0.9,-0.12,-0.08,-1.81,-4.06,4.5,0.53,-0.21,-0.68,-3.5,-3.31,1.37,948.39,1173.0,0.0,0.0,0.0,0.0
1776370264239621905,13405,0.056,0.3,0.06,0.2,-0.02,-0.02,-1.37,-3.69,3.56,0.76,-0.07,-0.65,-8.19,-10.5,6.5,1027.46,1173.0,0.0,0.0,0.0,0.0
1776370264337926339,13505,0.0,0.6,0.036,1.3,0.0,-0.02,-0.94,-2.38,2.25,0.6,0.18,-0.41,-11.63,-10.63,0.75,975.32,1502.0,0.0,0.0,0.0,0.0
1776370264436312070,13605,0.0,0.3,0.016,0.3,0.06,0.0,-1.25,-1.81,0.88,-0.09,-0.0,-0.16,-9.0,1.5,-5.06,11933.48,1533.0,0.0,0.0,0.0,0.0
1776370264538569940,13705,0.0,0.1,0.0,1.2,0.0,0.04,-1.06,-2.56,1.06,-1.18,-0.57,0.87,12.31,10.19,9.25,955.94,1533.0,0.0,0.0,0.0,0.0
1776370264640982925,13806,0.016,0.3,0.0,1.1,0.06,-0.16,-0.25,-2.81,2.88,-1.31,-0.14,0.13,18.0,-4.63,5.63,957.83,1071.0,0.0,0.0,0.0,0.0
1776370264739319637,13906,0.0,1.1,0.0,1.1,-0.02,-0.02,0.31,-2.19,4.25,-1.12,0.39,0.39,7.38,-1.25,5.5,963.83,1071.0,0.0,0.0,0.0,0.0
1776370264837610940,14006,0.0,0.4,0.012,0.7,0.0,-0.14,0.37,-2.25,5.06,-0.46,-0.0,0.09,0.69,1.06,-2.31,957.14,1408.0,0.0,0.0,0.0,0.0
1776370264947958782,14106,0.0,1.1,0.0,0.9,-0.02,-0.02,0.12,-2.13,4.69,-0.13,-0.0,-0.36,-8.06,-4.56,-2.5,11936.23,1104.0,0.0,0.0,0.0,0.0
1776370265038324598,14206,0.008,0.1,0.0,1.2,0.14,-0.04,0.12,-1.37,4.31,-0.38,0.19,-0.29,-2.31,-4.63,2.31,998.64,1104.0,0.0,0.0,0.0,0.0
1776370265140691415,14306,0.004,0.3,0.0,0.8,0.04,-0.12,0.19,-1.06,4.13,0.31,-0.13,-0.25,-7.69,-1.25,-3.25,997.79,1877.0,0.0,0.0,0.0,0.0
1776370265239026866,14406,0.0,0.2,0.0,0.9,0.06,-0.12,-0.25,-0.63,3.0,0.21,0.12,-0.68,-13.0,-4.0,-1.25,990.58,951.0,0.0,0.0,0.0,0.0
1776370265339262221,14505,0.04,0.1,0.0,0.9,-0.16,-0.2,0.19,-0.94,1.88,0.33,-0.08,-0.75,-8.13,8.13,8.0,11931.77,743.0,0.0,0.0,0.0,0.0
1776370265439742394,14605,0.028,0.4,0.0,0.5,0.1,0.0,1.0,-1.25,1.63,0.29,0.29,-0.9,3.19,-0.25,7.63,1003.27,743.0,0.0,0.0,0.0,0.0
1776370265537994103,14705,0.0,0.0,0.0,1.1,-0.12,-0.06,1.25,-1.25,2.31,0.71,0.38,0.18,12.81,3.75,-1.69,972.92,743.0,0.0,0.0,0.0,0.0
1776370265636249905,14804,0.012,0.2,0.0,0.4,-0.04,-0.14,0.5,-1.5,4.63,0.98,-0.43,1.05,29.37,-4.25,-13.81,907.23,880.0,0.0,0.0,0.0,0.0
1776370265746667340,14905,0.0,0.0,0.0,1.1,0.08,-0.08,-1.31,-1.0,6.0,-0.66,-0.23,0.64,2.25,-3.81,-20.44,11936.23,846.0,0.0,0.0,0.0,0.0
1776370265837045304,15005,0.012,0.2,0.0,1.1,0.0,0.04,-2.44,-1.31,5.88,-0.98,-0.22,0.24,-2.75,11.25,-1.31,967.43,846.0,0.0,0.0,0.0,0.0
1776370265939440140,15105,0.0,1.2,0.0,0.8,-0.18,0.14,-2.13,-2.75,6.38,-0.91,-0.28,0.39,-8.06,8.38,5.88,951.31,1503.0,0.0,0.0,0.0,0.0
1776370266037730054,15205,0.008,0.2,0.0,0.5,-0.02,-0.1,-1.5,-3.63,5.75,-0.19,-0.35,-0.74,-9.06,11.13,5.38,965.2,2144.0,0.0,0.0,0.0,0.0
1776370266136006522,15304,0.0,0.1,0.0,1.4,0.06,-0.04,-1.25,-4.44,4.94,0.29,-0.37,-1.12,-8.56,3.06,-3.75,1016.82,2144.0,0.0,0.0,0.0,0.0
1776370266238432024,15404,0.052,0.7,0.0,0.9,-0.14,-0.1,-1.81,-4.25,4.13,1.37,-0.01,-0.26,-7.56,-5.69,-4.38,1006.53,1326.0,0.0,0.0,0.0,0.0
1776370266340834044,15505,0.0,0.6,0.0,1.0,0.04,-0.04,-1.75,-3.63,3.25,0.58,-0.06,-0.57,-10.63,-8.81,3.75,987.67,1310.0,0.0,0.0,0.0,0.0
1776370266439147920,15605,0.0,1.1,0.024,0.7,-0.06,-0.1,-1.44,-2.75,2.31,1.0,-0.13,-0.7,-3.81,-10.31,2.06,11932.28,982.0,0.0,0.0,0.0,0.0
1776370266541526107,15705,0.012,0.6,0.0,1.2,0.06,0.06,-1.44,-1.75,1.31,0.59,-0.08,-0.48,-0.37,-14.38,1.69,891.63,982.0,0.0,0.0,0.0,0.0
1776370266639793927,15805,0.0,0.5,0.008,1.0,-0.14,0.0,-0.19,-1.94,2.94,-0.61,-0.03,1.41,31.69,22.06,25.44,924.56,1293.0,0.0,0.0,0.0,0.0
1776370266740133263,15904,0.0,1.0,0.028,0.2,-0.14,-0.06,1.94,-3.38,5.5,-1.42,-0.12,0.3,10.5,0.12,12.63,11934.0,1640.0,0.0,0.0,0.0,0.0
1776370266846496369,16004,0.0,0.9,0.0,0.2,0.18,-0.04,2.63,-2.63,6.31,-0.7,-0.1,0.75,-5.06,-8.44,5.63,1043.75,1640.0,0.0,0.0,0.0,0.0
1776370266938874571,16104,0.004,0.7,0.0,1.1,-0.06,0.08,2.75,-1.81,6.38,0.13,0.19,0.01,1.44,-7.75,-2.69,957.66,1640.0,0.0,0.0,0.0,0.0
1776370267037134798,16203,0.0,1.2,0.0,0.2,0.21,-0.1,1.94,-1.75,6.06,0.03,-0.06,-0.16,-5.69,-0.56,-12.06,1022.65,1469.0,0.0,0.0,0.0,0.0
1776370267139537817,16304,0.0,1.2,0.0,0.3,-0.08,0.0,1.25,-1.56,5.06,0.0,-0.02,-0.28,-13.63,-2.56,-1.75,987.67,1161.0,0.0,0.0,0.0,0.0
1776370267239780911,16404,0.0,1.0,0.044,0.0,-0.04,-0.02,1.25,-1.63,3.5,0.25,-0.04,-0.35,-17.44,2.5,-4.44,11931.94,1537.0,0.0,0.0,0.0,0.0
1776370267340248972,16504,0.0,0.6,0.0,1.4,-0.16,0.0,0.75,-1.81,1.37,0.59,0.11,-1.17,-23.37,4.56,-2.19,1044.95,1537.0,0.0,0.0,0.0,0.0
1776370267438561014,16604,0.0,0.1,0.028,0.3,0.06,-0.12,1.0,-2.31,-0.63,0.94,0.27,-0.75,-18.12,4.94,0.81,1028.66,1506.0,0.0,0.0,0.0,0.0
1776370267540953533,16704,0.0,0.1,0.0,0.8,0.1,-0.1,1.12,-2.38,-3.19,0.81,0.33,-0.51,1.19,13.69,4.31,991.1,1506.0,0.0,0.0,0.0,0.0
1776370267647184358,16804,0.0,0.3,0.0,0.8,-0.08,-0.04,1.06,-3.06,-1.44,-0.86,-0.83,0.97,29.5,-6.38,-11.69,11935.2,1343.0,0.0,0.0,0.0,0.0
1776370267739540170,16904,0.004,0.2,0.0,0.3,-0.06,-0.06,-1.19,-1.06,-0.56,-0.91,-0.13,0.49,-1.19,-19.19,-20.31,11934.0,1640.0,0.0,0.0,0.0,0.0
1776370267840003397,17004,0.0,0.5,0.0,0.9,-0.02,-0.16,-1.44,-0.63,0.06,-0.54,-0.18,0.28,16.12,10.31,10.25,990.93,1640.0,0.0,0.0,0.0,0.0
1776370267938231067,17104,0.0,0.0,0.0,1.3,0.04,-0.1,-0.19,-2.25,2.0,-0.54,-0.3,-0.06,16.06,20.19,12.94,1069.99,1567.0,0.0,0.0,0.0,0.0
1776370268069439873,17205,0.0,0.2,0.0,0.9,-0.04,0.04,0.88,-3.94,3.63,-0.43,-0.5,-0.52,8.81,8.81,7.0,994.36,1567.0,0.0,0.0,0.0,0.0
1776370268150997352,17305,0.004,0.1,0.0,0.3,-0.06,-0.04,1.12,-4.5,4.25,-0.16,-0.2,-0.43,-3.88,-5.13,-1.94,11935.89,1655.0,0.0,0.0,0.0,0.0
1776370268241309591,17405,0.0,0.5,0.0,0.2,-0.04,-0.04,0.63,-4.06,3.81,0.48,-0.07,-0.52,-3.5,-5.75,-7.13,996.41,902.0,0.0,0.0,0.0,0.0
1776370268343743406,17506,0.0,1.0,0.0,0.9,0.04,-0.02,0.19,-3.63,3.31,0.78,0.03,-0.65,3.0,-4.25,0.69,987.84,902.0,0.0,0.0,0.0,0.0
1776370268442028447,17606,0.024,-0.1,0.0,0.3,-0.04,0.02,0.44,-3.44,2.88,0.58,-0.22,-0.27,2.31,-2.81,5.19,977.55,1356.0,0.0,0.0,0.0,0.0
1776370268544393540,17707,0.0,0.2,0.0,0.8,-0.1,-0.1,1.06,-3.0,2.75,-0.16,-0.0,-0.06,-1.19,-9.81,9.38,1016.48,1415.0,0.0,0.0,0.0,0.0
1776370268642743397,17807,0.016,0.1,0.012,0.5,0.02,-0.02,1.94,-2.0,2.56,-0.9,-0.02,0.68,-0.06,-6.0,8.88,947.71,1415.0,0.0,0.0,0.0,0.0
1776370268745164508,17908,0.0,0.3,0.012,0.8,0.0,-0.16,2.69,-1.37,3.31,-0.62,0.07,0.46,10.75,-4.94,4.0,945.99,1621.0,0.0,0.0,0.0,0.0
1776370268847537249,18009,0.0,0.4,0.0,0.3,0.14,0.02,3.25,-0.94,4.56,-0.83,0.12,0.45,8.5,-2.0,9.0,952.0,1176.0,0.0,0.0,0.0,0.0
1776370268945850253,18110,0.0,0.8,0.0,0.1,-0.04,-0.02,4.13,-1.0,5.44,-0.42,-0.0,-0.19,-1.5,7.13,5.31,992.47,1176.0,0.0,0.0,0.0,0.0
1776370269044210333,18209,0.0,0.5,0.0,1.0,-0.12,-0.18,4.56,-1.37,4.94,0.06,-0.02,-0.25,-9.13,0.5,3.69,998.3,1443.0,0.0,0.0,0.0,0.0
1776370269146550627,18310,0.004,0.2,0.0,0.8,-0.06,0.0,4.81,-1.19,4.0,0.39,0.15,-0.45,-11.88,-1.63,1.06,1070.33,1443.0,0.0,0.0,0.0,0.0
1776370269248933330,18411,0.0,0.6,0.0,1.0,0.0,-0.04,4.63,-1.25,2.81,0.52,0.33,-0.84,-7.19,4.0,-5.06,978.92,1620.0,0.0,0.0,0.0,0.0
1776370269347256557,18511,0.04,0.0,0.0,1.0,0.06,0.04,3.94,-1.69,2.06,0.54,0.08,-0.78,2.31,6.06,-7.88,967.09,1339.0,0.0,0.0,0.0,0.0
1776370269449624741,18611,0.024,0.3,0.0,1.3,-0.06,0.02,3.31,-2.0,2.31,0.33,-0.18,-0.06,8.38,-3.0,-4.81,972.92,1339.0,0.0,0.0,0.0,0.0
1776370269547931634,18711,0.02,0.2,0.02,0.5,-0.04,0.04,2.56,-1.5,3.38,-0.55,-0.16,0.54,12.25,-7.13,-6.88,991.96,2117.0,0.0,0.0,0.0,0.0
1776370269646264008,18811,0.008,0.3,0.0,0.9,-0.06,-0.23,1.63,-1.19,4.25,-0.8,-0.03,0.51,6.0,-1.06,-12.06,971.2,969.0,0.0,0.0,0.0,0.0
1776370269748651896,18911,0.012,0.2,0.0,0.8,-0.04,-0.08,0.81,-1.56,5.0,-0.54,-0.25,0.08,2.56,6.13,-3.31,978.24,969.0,0.0,0.0,0.0,0.0
1776370269846954826,19012,0.008,0.2,0.004,0.5,-0.1,-0.12,0.88,-2.5,5.75,-0.47,-0.38,-0.11,0.25,2.94,3.69,978.92,1388.0,0.0,0.0,0.0,0.0
1776370269957286868,19111,0.0,0.2,0.0,0.8,-0.25,-0.1,1.12,-2.69,6.25,-0.39,0.11,-0.27,-7.19,-0.44,-0.44,11934.51,753.0,0.0,0.0,0.0,0.0
1776370270055599205,19211,0.004,0.3,0.0,0.3,0.06,-0.18,0.88,-3.0,5.56,0.0,0.08,-0.87,-9.13,7.56,-6.19,11934.68,1058.0,0.0,0.0,0.0,0.0
1776370270145932573,19311,0.0,0.6,0.0,0.7,-0.04,-0.02,0.44,-3.63,5.06,0.57,-0.24,-0.56,-0.94,2.19,-3.5,983.55,1058.0,0.0,0.0,0.0,0.0
1776370270248409999,19410,0.0,1.0,0.0,0.9,-0.16,-0.06,0.31,-3.69,4.81,0.27,-0.03,-0.67,6.75,-4.5,1.69,990.58,1058.0,0.0,0.0,0.0,0.0
1776370270354651026,19510,0.044,0.3,0.0,0.2,0.1,-0.14,0.75,-3.56,5.31,-0.39,-0.0,-0.44,1.69,-1.06,8.56,11935.03,1386.0,0.0,0.0,0.0,0.0
1776370270449062815,19610,0.032,0.4,0.024,0.5,0.02,-0.18,2.06,-3.13,5.31,-0.57,0.23,1.09,-0.06,0.25,18.81,923.87,801.0,0.0,0.0,0.0,0.0
1776370270547316669,19710,0.0,0.6,0.02,0.0,0.06,-0.06,4.44,-3.25,5.81,-0.6,-0.25,0.47,8.19,2.25,22.81,11936.57,1339.0,0.0,0.0,0.0,0.0
1776370270655686733,19810,0.0,0.6,0.0,1.2,-0.06,-0.04,5.81,-2.88,6.81,-0.85,0.14,-0.43,8.19,-4.5,9.19,949.77,1339.0,0.0,0.0,0.0,0.0
1776370270748053339,19910,0.016,0.9,0.0,0.9,-0.08,-0.04,6.25,-2.31,7.63,-0.56,0.26,-0.13,-1.25,-1.63,1.12,947.88,950.0,0.0,0.0,0.0,0.0
1776370270846373750,20009,0.008,0.5,0.004,0.3,0.0,-0.08,6.31,-2.13,7.5,-0.04,0.09,0.51,-1.12,-0.06,2.56,934.85,950.0,0.0,0.0,0.0,0.0
1776370270944641123,20109,0.0,0.4,0.0,0.8,0.0,-0.06,7.06,-1.88,7.44,0.33,0.19,0.23,0.37,-2.75,10.0,952.17,1690.0,0.0,0.0,0.0,0.0
1776370271047059918,20209,0.0,0.4,0.0,1.2,-0.14,-0.14,7.81,-1.69,7.0,0.54,0.01,0.33,-2.88,2.94,4.38,989.21,1961.0,0.0,0.0,0.0,0.0
1776370271149463305,20310,0.0,0.2,0.004,0.3,-0.14,-0.08,7.63,-1.63,6.5,0.84,-0.03,-0.41,-6.44,-3.75,-5.13,945.99,1961.0,0.0,0.0,0.0,0.0
1776370271247752678,20410,0.0,0.9,0.0,0.8,0.1,-0.04,7.44,-1.31,5.88,0.51,0.15,-1.02,-5.25,-0.19,2.5,974.12,1142.0,0.0,0.0,0.0,0.0
1776370271346058514,20509,0.0,0.5,0.044,0.5,-0.06,-0.08,7.94,-1.31,5.31,0.37,-0.0,-0.71,-2.06,0.5,5.5,964.34,1142.0,0.0,0.0,0.0,0.0
1776370271448452475,20610,0.0,0.5,0.032,1.1,-0.06,-0.04,8.25,-1.25,5.13,0.64,0.06,-0.09,-0.81,0.69,-1.12,11936.23,1036.0,0.0,0.0,0.0,0.0
1776370271546753959,20710,0.024,1.0,0.012,0.9,-0.04,0.1,7.31,-1.75,4.63,0.19,-0.26,0.78,-8.75,4.5,-15.38,956.63,1227.0,0.0,0.0,0.0,0.0
1776370271649100271,20809,0.02,0.2,0.0,0.6,-0.02,-0.02,5.63,-2.13,4.94,-0.11,-0.02,0.29,18.31,2.44,-18.31,935.19,1227.0,0.0,0.0,0.0,0.0
1776370271755415669,20910,0.012,0.2,0.0,1.1,-0.04,-0.1,4.13,-2.69,6.75,-0.62,-0.06,-0.32,15.25,4.0,-14.38,11936.57,1329.0,0.0,0.0,0.0,0.0
1776370271849855643,21010,0.012,0.2,0.0,0.9,0.06,-0.14,2.69,-3.13,7.38,-0.49,-0.13,0.35,-3.44,-2.0,-14.25,950.11,1689.0,0.0,0.0,0.0,0.0
1776370271948166702,21110,0.004,0.2,0.0,1.0,0.0,-0.06,1.69,-3.19,6.81,0.02,-0.08,0.33,-5.69,3.69,-5.38,984.58,1689.0,0.0,0.0,0.0,0.0
1776370272050558977,21211,0.004,0.2,0.0,1.2,-0.1,0.0,1.69,-3.94,6.63,0.06,-0.39,-0.47,2.69,9.69,3.31,1019.05,1472.0,0.0,0.0,0.0,0.0
1776370272148870165,21312,0.0,1.2,0.0,0.2,0.02,0.02,2.13,-4.5,6.94,0.11,-0.19,-0.63,-0.56,-2.31,2.25,984.58,1472.0,0.0,0.0,0.0,0.0
1776370272257238060,21411,0.0,0.9,0.004,0.8,-0.12,0.06,1.75,-4.0,6.31,0.72,-0.0,-0.51,-8.94,-8.19,-8.0,867.79,1107.0,0.0,0.0,0.0,0.0
1776370272349565627,21511,0.0,0.7,0.0,1.0,-0.06,-0.06,1.06,-3.5,5.06,0.86,-0.07,-0.25,-7.31,-2.63,-5.0,952.17,3072.0,0.0,0.0,0.0,0.0
1776370272447876870,21611,0.0,0.8,0.0,0.5,-0.02,0.0,0.81,-3.69,4.13,0.04,-0.49,-0.11,-0.63,-1.81,1.06,956.11,3072.0,0.0,0.0,0.0,0.0
1776370272550228497,21710,0.016,0.3,0.008,0.2,-0.06,-0.02,1.19,-3.13,4.38,-0.72,-0.18,0.76,7.69,-5.25,8.31,931.76,1634.0,0.0,0.0,0.0,0.0
1776370272648508202,21811,0.02,0.1,0.0,0.1,0.0,-0.08,2.06,-2.63,5.25,-1.13,0.09,0.34,7.31,-5.63,7.81,951.83,1671.0,0.0,0.0,0.0,0.0
1776370272751010053,21912,0.0,0.4,0.0,1.3,-0.06,-0.06,2.81,-1.94,6.5,-0.75,0.18,0.04,0.69,-2.88,8.19,950.11,1671.0,0.0,0.0,0.0,0.0
1776370272849268518,22011,0.008,0.2,0.0,1.1,0.0,-0.14,3.25,-1.75,6.69,0.19,-0.03,-0.6,-2.0,-0.94,0.63,988.53,1389.0,0.0,0.0,0.0,0.0
1776370272947506630,22111,0.008,0.4,0.0,0.2,-0.12,-0.08,3.06,-1.44,6.44,0.12,0.15,-0.44,-3.13,-4.81,-3.38,957.14,1386.0,0.0,0.0,0.0,0.0
1776370273049977832,22210,0.0,0.4,0.0,0.3,0.04,-0.08,2.88,-1.19,6.13,0.23,0.1,-0.49,-2.56,2.75,-0.5,974.12,1386.0,0.0,0.0,0.0,0.0
1776370273148268481,22309,0.0,0.1,0.0,0.8,-0.14,0.0,2.88,-1.5,5.81,0.81,-0.1,-0.52,-2.75,2.06,1.12,962.8,1187.0,0.0,0.0,0.0,0.0
1776370273246531649,22410,0.048,0.2,0.0,1.1,0.02,0.02,2.88,-1.81,4.56,0.66,0.1,-0.53,-8.94,6.0,-2.31,959.37,1113.0,0.0,0.0,0.0,0.0
1776370273350895846,22509,0.0,0.1,0.0,0.9,0.02,-0.04,2.56,-2.94,3.13,0.18,-0.35,0.22,-12.75,13.19,-4.31,11936.4,1588.0,0.0,0.0,0.0,0.0
1776370273447289815,22609,0.024,0.2,0.016,0.1,0.02,0.04,1.81,-3.25,2.81,-0.05,-0.25,1.24,12.44,-8.94,-11.44,1016.48,1588.0,0.0,0.0,0.0,0.0
1776370273549653885,22710,0.0,0.2,0.004,0.2,-0.04,-0.04,0.12,-2.44,4.63,-1.15,0.27,-0.43,14.0,0.06,-20.69,972.4,1588.0,0.0,0.0,0.0,0.0
1776370273647925942,22810,0.0,0.2,0.0,0.9,0.06,-0.02,-1.88,-3.31,4.63,-0.76,-0.61,0.04,-4.81,6.25,-18.0,977.72,1373.0,0.0,0.0,0.0,0.0
1776370273750383273,22910,0.0,0.9,0.0,0.5,-0.1,-0.06,-2.81,-3.5,4.56,-0.07,-0.13,0.1,3.25,3.63,-3.0,985.27,1353.0,0.0,0.0,0.0,0.0
1776370273852769048,23011,0.0,1.2,0.0,0.5,0.1,0.08,-2.88,-4.31,4.5,-0.31,-0.34,-0.54,-1.0,7.31,-1.56,970.52,1353.0,0.0,0.0,0.0,0.0
1776370273953014860,23112,0.004,0.1,0.0,1.1,-0.06,0.08,-2.75,-4.5,5.0,-0.14,-0.2,-0.86,5.44,-4.31,3.44,11934.86,1617.0,0.0,0.0,0.0,0.0
1776370274059443110,23212,0.0,0.3,0.0,0.9,-0.1,-0.08,-2.63,-4.06,5.56,-0.04,-0.0,-0.5,3.0,-5.19,-0.06,932.96,1004.0,0.0,0.0,0.0,0.0
1776370274151792010,23312,0.0,0.3,0.0,0.8,0.06,-0.08,-2.81,-3.75,5.25,0.68,-0.18,-0.52,-8.19,-3.13,-0.19,629.4,1004.0,0.0,0.0,0.0,0.0
1776370274254187970,23413,0.052,0.3,0.0,1.0,-0.04,-0.08,-2.06,-3.06,4.44,0.75,-0.32,0.0,-6.31,-10.38,15.0,627.69,868.0,0.0,0.0,0.0,0.0
1776370274352445766,23514,0.004,0.2,0.0,0.2,-0.1,-0.02,-0.12,-1.56,4.06,0.03,0.03,0.2,-3.38,-14.31,23.25,635.41,1585.0,0.0,0.0,0.0,0.0
1776370274454978413,23614,0.0,0.2,0.0,0.3,0.02,0.06,2.25,-0.94,4.56,-1.25,0.05,1.12,10.56,4.06,22.75,11936.06,1228.0,0.0,0.0,0.0,0.0
1776370274553138838,23714,0.0,0.3,0.0,1.0,-0.04,-0.14,4.13,-1.25,5.81,-0.86,-0.14,-0.18,11.0,0.69,18.44,953.03,1228.0,0.0,0.0,0.0,0.0
1776370274655590020,23814,0.012,0.5,0.0,0.2,-0.08,-0.06,5.63,-0.56,6.88,-0.31,0.14,-0.39,1.88,-11.19,9.75,990.24,1228.0,0.0,0.0,0.0,0.0
1776370274793430747,23915,0.008,0.2,0.0,1.0,-0.06,0.0,5.63,0.75,6.63,0.06,0.42,-0.26,-5.75,-13.25,-5.13,975.32,1697.0,0.0,0.0,0.0,0.0
1776370274856288425,24015,0.004,0.2,0.0,0.9,0.02,-0.08,5.06,1.81,6.06,-0.12,0.11,0.03,-5.06,-7.81,-4.31,1020.42,1590.0,0.0,0.0,0.0,0.0
1776370274956482458,24116,0.0,-0.1,0.0,1.1,-0.14,-0.06,5.19,2.31,5.75,0.3,0.36,-0.35,-2.75,-3.44,5.75,11934.51,1487.0,0.0,0.0,0.0,0.0
1776370275056976496,24216,0.004,0.5,0.0,0.2,-0.02,0.04,5.56,2.19,5.13,0.17,0.11,0.08,-8.06,7.81,0.63,1014.42,1487.0,0.0,0.0,0.0,0.0
1776370275155276644,24315,0.004,0.4,0.0,0.9,0.04,0.06,5.25,1.44,4.44,0.58,0.28,-0.28,-2.94,7.25,-5.5,1085.94,646.0,0.0,0.0,0.0,0.0
1776370275257679307,24415,0.052,0.1,0.0,0.9,-0.16,0.0,4.88,0.37,4.13,-0.04,0.59,-0.85,-5.69,14.0,-1.69,1037.57,646.0,0.0,0.0,0.0,0.0
1776370275355982437,24516,0.0,0.4,0.0,1.3,-0.04,0.0,4.94,-0.94,3.19,0.68,-0.13,-0.67,-10.88,15.31,0.5,970.35,1759.0,0.0,0.0,0.0,0.0
1776370275458429897,24616,0.024,0.0,0.0,0.8,-0.06,0.0,4.81,-1.69,1.88,-0.38,-0.31,0.23,-17.5,4.06,-7.06,979.44,663.0,0.0,0.0,0.0,0.0
1776370275556674637,24716,0.016,0.3,0.0,1.0,0.02,-0.08,2.88,-1.75,-0.19,0.18,-0.63,1.46,-11.88,-6.19,-27.19,1043.58,663.0,0.0,0.0,0.0,0.0
1776370275666970619,24816,0.0,0.7,0.016,0.3,0.04,-0.02,0.44,-0.63,0.37,-2.0,-1.13,0.37,11.0,-15.38,-24.81,11938.12,1000.0,0.0,0.0,0.0,0.0
1776370275765341268,24916,0.0,1.1,0.0,0.9,0.0,0.02,-1.69,-0.0,1.56,-0.53,-0.44,-0.71,16.19,8.25,-17.25,11936.23,438.0,0.0,0.0,0.0,0.0
1776370275855645596,25016,0.0,0.2,0.0,1.1,-0.04,-0.21,-2.25,-1.37,3.13,-0.55,-0.41,-1.09,13.69,16.37,4.38,968.63,438.0,0.0,0.0,0.0,0.0
1776370275958078796,25116,0.004,0.2,0.0,1.2,0.04,-0.02,-0.75,-3.13,4.31,-0.62,-0.31,-0.42,3.31,14.94,21.5,1031.4,1028.0,0.0,0.0,0.0,0.0
1776370276377448796,25216,0.004,0.9,0.0,0.7,0.02,-0.04,1.5,-4.0,4.88,-0.39,-0.55,-0.49,7.06,7.19,26.0,11933.31,1036.0,0.0,0.0,0.0,0.0
1776370276384069056,25316,0.0,0.3,0.0,1.0,0.02,-0.08,3.94,-3.44,5.69,-0.56,-0.22,0.2,6.06,-11.44,23.06,955.77,1036.0,0.0,0.0,0.0,0.0
1776370276388167440,25416,0.0,0.3,0.0,0.8,-0.06,0.0,5.63,-2.63,6.44,0.5,-0.27,0.07,6.38,1.0,14.13,962.11,1458.0,0.0,0.0,0.0,0.0
1776370276395599529,25516,0.0,0.6,0.0,0.3,0.04,-0.02,7.13,-2.5,7.44,0.0,-0.35,0.66,12.06,-10.38,20.56,992.13,1458.0,0.0,0.0,0.0,0.0
1776370276457801010,25616,0.028,0.2,0.0,0.9,-0.08,-0.1,9.06,-0.63,8.44,-0.46,-0.3,0.19,4.44,-15.5,17.12,935.36,2405.0,0.0,0.0,0.0,0.0
1776370276556017601,25716,0.016,0.1,0.0,1.0,-0.06,-0.08,10.44,0.12,8.13,-0.5,0.64,0.2,-16.62,8.25,14.31,984.41,1390.0,0.0,0.0,0.0,0.0
1776370276660395907,25817,0.0,0.6,0.0,1.2,0.12,-0.14,12.31,-0.81,6.31,0.02,-0.1,-0.23,-19.19,15.13,24.44,11934.86,1661.0,0.0,0.0,0.0,0.0
1776370276756778745,25917,0.008,0.3,0.0,1.2,0.0,-0.04,15.44,-1.5,5.0,-0.1,-0.06,-0.13,-8.13,3.25,42.56,971.55,1661.0,0.0,0.0,0.0,0.0
1776370276861114273,26016,0.0,0.9,0.0,0.2,-0.14,-0.14,20.87,-1.12,4.63,-0.62,0.65,-0.2,-4.94,4.44,68.81,11934.34,1055.0,0.0,0.0,0.0,0.0
1776370276959406606,26116,0.004,0.1,0.0,0.6,-0.18,-0.18,28.19,-1.81,4.19,-0.78,0.7,-0.22,-8.0,19.0,79.12,11933.83,1709.0,0.0,0.0,0.0,0.0
1776370277055759851,26216,0.0,0.9,0.0,0.9,0.02,-0.02,36.44,-3.25,3.81,-0.61,0.23,-0.5,-9.94,18.75,89.25,1095.03,1709.0,0.0,0.0,0.0,0.0
1776370277158182013,26316,0.004,0.3,0.0,0.2,0.02,0.02,45.75,-3.5,3.63,-0.55,0.2,-0.07,-6.13,2.13,99.12,995.39,1709.0,0.0,0.0,0.0,0.0
1776370277262541300,26417,0.056,0.4,0.0,1.0,-0.14,-0.08,55.19,-2.69,3.88,-0.53,0.48,0.06,-1.88,-0.94,93.81,11934.68,1326.0,0.0,0.0,0.0,0.0
1776370277360821577,26517,0.044,0.1,0.0,0.2,0.04,-0.04,63.81,-2.19,4.13,-0.52,-0.02,0.11,-4.75,2.44,85.81,11933.66,1077.0,0.0,0.0,0.0,0.0
1776370277457179192,26617,0.0,0.9,0.02,0.6,-0.06,-0.02,72.0,-2.19,3.75,-0.86,0.01,-0.04,-15.88,7.44,83.56,996.41,1077.0,0.0,0.0,0.0,0.0
1776370277559580946,26717,0.0,1.0,0.024,0.3,-0.18,-0.2,79.94,-2.63,2.81,-0.77,0.17,-0.45,-18.75,10.88,78.37,1008.59,1629.0,0.0,0.0,0.0,0.0
1776370277661993422,26818,0.0,0.8,0.012,0.5,-0.1,-0.1,86.87,-3.06,3.06,-0.75,0.11,-0.3,0.94,5.69,63.56,1037.75,728.0,0.0,0.0,0.0,0.0
1776370277929433659,26918,0.0,1.2,0.0,0.9,0.14,0.04,92.37,-3.13,4.63,-0.79,0.18,-0.36,6.75,6.69,51.88,11933.31,957.0,0.0,0.0,0.0,0.0
1776370277960994083,27018,0.008,0.3,0.0,0.8,0.04,-0.08,97.31,-3.31,5.94,-0.59,-0.0,-0.05,0.5,8.19,51.75,965.54,957.0,0.0,0.0,0.0,0.0
1776370277973676779,27118,0.0,1.1,0.0,0.3,-0.12,-0.04,102.69,-3.63,6.25,-0.33,0.17,0.01,-4.56,15.25,55.63,994.19,1400.0,0.0,0.0,0.0,0.0
1776370278059267211,27218,0.0,0.2,0.0,0.1,-0.08,-0.16,108.44,-5.06,6.13,-0.14,-0.63,-0.41,-7.44,22.31,60.56,947.02,1400.0,0.0,0.0,0.0,0.0
1776370278161679020,27319,0.0,0.6,0.0,0.4,-0.02,-0.21,114.87,-5.88,6.06,-0.27,-0.66,-0.05,-7.25,11.56,69.0,998.47,2054.0,0.0,0.0,0.0,0.0
1776370278261934497,27418,0.0,0.1,0.052,0.3,0.04,-0.1,122.0,-6.31,6.31,-0.03,-0.38,-0.1,-3.56,8.38,74.37,11933.31,1036.0,0.0,0.0,0.0,0.0
1776370278358299611,27518,0.0,0.7,0.032,0.0,0.08,-0.1,129.13,-6.63,6.94,-0.09,-0.42,-0.13,-2.0,9.19,71.5,11935.03,1036.0,0.0,0.0,0.0,0.0
1776370278460708976,27617,0.0,0.4,0.0,1.2,-0.02,-0.02,135.75,-6.88,7.56,-0.41,-0.69,-0.44,-5.06,8.19,64.62,959.2,1240.0,0.0,0.0,0.0,0.0
1776370278565025855,27717,0.016,0.1,0.024,0.4,-0.04,-0.2,141.81,-6.81,7.88,-0.38,-0.57,-0.68,-8.56,-1.5,61.38,11935.2,826.0,0.0,0.0,0.0,0.0
1776370278661383895,27817,0.02,0.3,0.0,0.8,0.0,-0.14,147.44,-6.06,7.81,-0.44,-0.29,0.14,-8.63,-1.44,52.31,938.96,826.0,0.0,0.0,0.0,0.0
1776370278759695950,27917,0.016,0.1,0.0,0.9,0.02,-0.04,151.5,-5.38,7.56,-0.23,0.08,-0.05,-3.81,-1.0,42.31,993.67,1097.0,0.0,0.0,0.0,0.0
1776370278857996597,28016,0.008,0.2,0.0,1.1,-0.02,-0.04,155.69,-5.31,8.06,-1.16,0.13,-0.32,4.75,13.31,44.31,950.11,1097.0,0.0,0.0,0.0,0.0
1776370278960396628,28116,0.004,0.0,0.0,0.8,-0.06,-0.12,159.88,-5.56,8.69,0.32,-0.29,0.06,-3.0,-0.88,40.69,935.88,1069.0,0.0,0.0,0.0,0.0
1776370279060628622,28216,0.0,0.7,0.0,0.3,0.06,0.0,164.06,-4.38,8.69,0.28,0.04,-0.24,-1.88,-9.88,42.81,11933.14,1170.0,0.0,0.0,0.0,0.0
1776370279156976532,28316,0.004,0.0,0.0,0.8,0.12,-0.16,167.44,-3.06,8.94,-0.42,0.51,-0.42,3.31,-1.5,26.87,952.34,1170.0,0.0,0.0,0.0,0.0
1776370279313431516,28416,0.052,0.3,0.0,0.6,-0.16,0.0,169.69,-2.5,9.56,-0.15,-0.1,0.35,1.06,-4.75,16.69,906.03,1491.0,0.0,0.0,0.0,0.0
1776370279357716155,28516,0.036,0.0,0.0,0.8,0.02,-0.06,170.69,-1.25,9.19,0.3,-0.02,0.16,-4.31,-16.87,5.69,927.3,1491.0,0.0,0.0,0.0,0.0
1776370279460089241,28615,0.0,0.7,0.0,0.8,-0.02,-0.14,170.75,0.63,9.0,-0.34,0.72,-0.41,-1.12,-19.0,0.12,955.77,951.0,0.0,0.0,0.0,0.0
1776370279558377554,28715,0.016,0.2,0.0,0.9,-0.1,-0.1,170.75,1.56,8.5,-0.51,1.09,-0.72,-8.75,4.69,3.88,920.78,963.0,0.0,0.0,0.0,0.0
1776370279662744600,28815,0.0,0.7,0.0,0.8,0.02,-0.08,171.63,-0.25,8.0,0.34,0.56,0.14,-1.69,26.44,9.0,11934.51,1077.0,0.0,0.0,0.0,0.0
1776370279759120917,28915,0.0,0.7,0.0,0.3,0.14,0.0,172.44,-2.31,8.06,0.29,-0.25,0.39,4.06,14.5,3.38,900.55,1077.0,0.0,0.0,0.0,0.0
1776370279859372116,29015,0.008,0.5,0.0,0.9,0.08,-0.1,172.13,-2.94,8.19,-0.56,-0.05,-0.46,-4.56,3.25,-5.81,11934.68,1116.0,0.0,0.0,0.0,0.0
1776370279959815391,29115,0.004,0.4,0.0,0.7,-0.18,-0.06,171.81,-3.5,7.94,0.17,-0.03,-0.26,1.63,5.56,-2.31,944.28,1116.0,0.0,0.0,0.0,0.0
1776370280058123612,29214,0.0,0.3,0.0,0.4,-0.04,-0.06,171.56,-3.94,8.25,-0.18,-0.15,-0.04,3.19,1.88,-3.38,880.31,1052.0,0.0,0.0,0.0,0.0
1776370280160518068,29315,0.0,0.1,0.0,0.5,-0.06,-0.08,171.13,-4.13,8.5,-0.2,0.04,-0.23,1.63,0.31,-4.88,907.23,1052.0,0.0,0.0,0.0,0.0
1776370280258816992,29415,0.052,0.1,0.052,1.1,-0.08,0.04,170.69,-4.25,8.81,-0.1,0.03,-0.1,3.19,0.63,-3.94,900.72,1011.0,0.0,0.0,0.0,0.0
1776370280361199392,29515,0.04,0.3,0.0,1.0,-0.04,-0.02,170.38,-4.25,9.06,-0.19,0.14,-0.12,1.94,-0.81,-3.13,879.11,1258.0,0.0,0.0,0.0,0.0
1776370280459485390,29616,0.0,0.3,0.0,1.0,0.06,-0.04,170.13,-4.25,9.25,-0.09,0.07,-0.13,2.13,-0.88,-1.5,869.16,1258.0,0.0,0.0,0.0,0.0
1776370280557785203,29716,0.0,0.9,0.016,0.2,0.02,0.04,170.0,-4.06,9.5,-0.22,0.05,-0.01,1.19,-3.44,-1.19,872.08,1010.0,0.0,0.0,0.0,0.0
1776370280660219493,29815,0.012,0.4,0.0,1.2,-0.14,-0.12,169.94,-3.63,9.5,-0.18,0.2,0.02,-1.69,-5.88,1.12,865.05,1467.0,0.0,0.0,0.0,0.0
1776370280758522677,29915,0.0,0.2,0.0,0.5,0.08,0.02,170.13,-3.13,9.31,-0.02,0.17,-0.07,-3.38,-0.94,2.13,888.2,1467.0,0.0,0.0,0.0,0.0
1776370281197434961,30015,0.0,0.0,0.0,1.2,-0.04,-0.02,170.38,-2.94,9.0,0.0,0.13,-0.18,-2.44,-0.75,3.13,872.59,1090.0,0.0,0.0,0.0,0.0
1776370281262334096,30115,0.0,1.2,0.0,0.8,0.06,-0.18,170.75,-2.81,8.88,-0.04,0.14,-0.19,-1.37,-1.5,5.75,864.87,852.0,0.0,0.0,0.0,0.0
1776370281274933106,30216,0.008,0.3,0.0,0.3,-0.12,-0.02,171.44,-2.5,8.75,0.02,0.14,-0.06,-2.5,-2.5,8.06,1015.97,852.0,0.0,0.0,0.0,0.0
1776370281287715174,30317,0.004,0.0,0.0,0.6,-0.08,-0.1,172.31,-2.13,8.5,0.04,0.22,0.01,-2.63,-0.5,9.5,899.69,895.0,0.0,0.0,0.0,0.0
1776370281348290459,30416,0.0,0.2,0.044,0.5,0.0,0.0,173.25,-2.06,8.31,-0.05,0.01,-0.1,-2.44,2.06,9.19,905.52,895.0,0.0,0.0,0.0,0.0
1776370281360633742,30516,0.0,-0.1,0.0,0.9,-0.02,0.1,174.06,-2.0,8.13,0.03,0.04,-0.11,-1.44,0.31,6.81,11937.09,1037.0,0.0,0.0,0.0,0.0
1776370281458904554,30616,0.028,0.4,0.0,1.3,0.02,-0.1,174.69,-2.0,8.13,0.16,0.12,-0.2,0.75,2.06,6.81,890.08,1019.0,0.0,0.0,0.0,0.0
1776370281561282065,30715,0.024,1.2,0.012,0.3,0.02,-0.16,175.38,-2.19,8.38,0.23,0.09,-0.33,5.69,3.81,6.0,897.8,1019.0,0.0,0.0,0.0,0.0
1776370281659619100,30815,0.0,1.0,0.0,0.6,-0.06,0.08,175.69,-2.75,9.19,0.04,-0.12,0.34,9.06,6.25,0.31,892.14,1415.0,0.0,0.0,0.0,0.0
1776370281757908283,30915,0.008,0.1,0.0,1.2,0.04,0.1,175.88,-3.13,9.69,0.03,0.15,-0.15,3.13,5.13,1.94,883.91,1599.0,0.0,0.0,0.0,0.0
1776370281860319924,31014,0.0,0.5,0.0,1.1,-0.06,-0.02,176.0,-3.06,10.5,-0.01,0.18,-0.39,10.69,-2.63,4.44,867.79,1599.0,0.0,0.0,0.0,0.0
1776370281958613366,31114,0.004,0.2,0.0,0.9,-0.14,-0.06,176.81,-2.63,11.63,1.7,0.42,0.02,17.5,-5.75,14.63,842.75,864.0,0.0,0.0,0.0,0.0
1776370282068966142,31215,0.0,0.3,0.004,0.5,-0.02,-0.1,178.25,-2.38,13.88,-1.47,-0.3,0.9,16.44,4.13,8.5,11932.28,873.0,0.0,0.0,0.0,0.0
1776370282159337634,31314,0.0,0.5,0.0,0.0,0.1,-0.08,178.69,-2.56,13.88,-1.26,0.03,-0.58,-18.5,2.19,0.19,919.07,873.0,0.0,0.0,0.0,0.0
1776370282269662150,31415,0.0,1.0,0.0,0.9,-0.02,0.06,178.44,-3.06,11.19,0.04,0.03,-0.9,-40.5,7.94,-7.13,11935.2,763.0,0.0,0.0,0.0,0.0
1776370282360002994,31515,0.0,0.6,0.0,0.9,-0.04,-0.12,178.0,-3.75,8.25,-0.29,-0.22,-0.43,-19.19,2.38,-2.0,11933.48,1182.0,0.0,0.0,0.0,0.0
1776370282462423635,31616,0.032,0.0,0.0,1.1,0.06,-0.16,177.94,-3.63,7.88,0.18,0.05,-0.28,8.5,-2.06,-0.63,916.67,1182.0,0.0,0.0,0.0,0.0
1776370282560684983,31716,0.0,1.0,0.0,0.3,0.04,0.02,177.81,-3.38,9.75,0.17,0.03,0.02,24.12,-1.5,0.81,853.56,1090.0,0.0,0.0,0.0,0.0
1776370282669092485,31816,0.016,0.1,0.0,1.1,-0.04,0.0,177.5,-3.13,11.44,0.63,-0.13,0.85,8.06,-5.19,-4.94,931.76,1090.0,0.0,0.0,0.0,0.0
1776370282761436196,31916,0.0,0.5,0.0,0.6,0.02,0.06,177.06,-2.81,11.56,-0.15,0.18,-0.03,1.19,-1.06,-2.44,856.47,919.0,0.0,0.0,0.0,0.0
1776370282863830225,32017,0.012,0.5,0.0,0.5,0.06,-0.18,176.69,-2.94,11.63,0.62,0.14,0.03,1.75,0.63,-5.63,839.84,809.0,0.0,0.0,0.0,0.0
1776370282962131074,32116,0.0,0.2,0.0,1.2,-0.04,-0.06,176.25,-2.81,12.0,0.06,-0.17,0.29,5.06,-5.31,-0.56,861.79,809.0,0.0,0.0,0.0,0.0
1776370283060387756,32216,0.0,0.4,0.0,0.3,0.14,-0.16,176.5,-2.13,12.19,-0.1,0.12,-0.3,-0.75,-5.25,2.56,827.83,1006.0,0.0,0.0,0.0,0.0
1776370283162820971,32317,0.0,0.8,0.0,0.9,-0.04,-0.08,176.44,-1.81,12.31,0.49,0.06,-0.04,5.56,-1.88,-2.44,892.31,1006.0,0.0,0.0,0.0,0.0
1776370283261139449,32416,0.04,0.0,0.0,0.4,0.1,0.04,176.13,-1.81,12.81,-0.37,-0.02,0.22,3.44,0.56,-1.69,882.02,715.0,0.0,0.0,0.0,0.0
1776370283363500774,32516,0.0,0.0,0.0,0.5,-0.16,-0.12,176.25,-1.63,12.75,-0.03,0.17,-0.07,-5.5,-0.81,3.38,889.23,968.0,0.0,0.0,0.0,0.0
1776370283461793215,32616,0.0,0.8,0.008,0.3,0.0,0.0,176.5,-1.69,12.38,0.23,-0.08,-0.15,-0.06,0.19,1.44,918.73,968.0,0.0,0.0,0.0,0.0
1776370283560105453,32715,0.0,0.9,0.0,0.0,-0.02,0.04,176.56,-1.56,12.44,-0.04,-0.02,0.29,-0.56,-1.63,-0.44,881.51,839.0,0.0,0.0,0.0,0.0
1776370283662582335,32815,0.0,1.0,0.0,0.5,0.0,-0.16,176.5,-1.37,12.13,0.16,0.1,-0.5,-6.06,-3.25,0.06,885.63,991.0,0.0,0.0,0.0,0.0
1776370283760837498,32915,0.0,0.0,0.0,0.9,-0.04,-0.04,176.75,-1.44,11.94,0.13,-0.3,0.19,3.56,5.38,3.44,871.91,991.0,0.0,0.0,0.0,0.0
1776370283861068972,33014,0.0,0.6,0.0,0.2,0.04,-0.02,177.13,-1.63,11.81,0.39,0.04,0.0,-5.81,1.37,3.88,11934.86,910.0,0.0,0.0,0.0,0.0
1776370283969473917,33114,0.0,0.4,0.0,0.4,-0.08,-0.08,177.56,-1.75,11.31,0.04,0.05,0.91,-6.0,6.63,4.75,11934.34,1153.0,0.0,0.0,0.0,0.0
1776370284059850354,33214,0.0,0.4,0.0,0.9,-0.04,0.1,177.94,-3.0,10.44,0.9,-0.79,0.73,-9.31,15.88,2.19,896.43,1153.0,0.0,0.0,0.0,0.0
1776370284160094272,33313,0.012,0.2,0.0,0.8,-0.1,0.02,178.56,-3.63,9.19,0.28,-0.36,0.49,-10.94,-2.63,6.63,11934.34,829.0,0.0,0.0,0.0,0.0
1776370284260545694,33413,0.044,0.5,0.0,1.1,-0.1,-0.08,179.0,-2.75,7.38,0.56,0.37,-0.54,-24.19,-5.13,3.81,897.63,829.0,0.0,0.0,0.0,0.0
1776370284362914666,33514,0.04,0.5,0.0,0.2,0.02,0.0,179.75,-2.5,6.13,0.66,0.17,-0.95,0.56,-0.5,10.69,11934.51,1217.0,0.0,0.0,0.0,0.0
1776370284461224403,33614,0.0,0.7,0.028,0.9,0.0,-0.08,-178.88,-1.94,6.81,0.51,0.65,-0.98,11.75,-2.31,14.31,912.55,1209.0,0.0,0.0,0.0,0.0
1776370284561470174,33714,0.012,0.1,0.024,0.1,-0.12,-0.08,-178.0,-2.19,8.0,0.08,0.29,-0.56,6.88,8.0,5.94,11934.17,990.0,0.0,0.0,0.0,0.0
1776370284669985324,33814,0.0,0.1,0.0,1.0,-0.1,-0.27,-177.94,-2.5,7.69,0.4,0.22,-0.28,-5.38,2.0,-3.19,11933.83,990.0,0.0,0.0,0.0,0.0
1776370284762243867,33914,0.004,0.3,0.0,1.2,-0.02,-0.02,-178.63,-2.5,6.94,0.15,0.14,0.25,-6.06,-4.81,-9.88,11936.06,1327.0,0.0,0.0,0.0,0.0
1776370284862641713,34014,0.0,1.0,0.008,0.5,-0.02,-0.12,179.75,-2.13,6.69,0.07,0.01,0.52,3.19,-4.88,-19.37,927.64,1327.0,0.0,0.0,0.0,0.0
1776370284968886381,34114,0.0,0.6,0.0,0.9,0.02,-0.14,177.63,-2.13,7.31,-0.93,-0.14,-0.08,3.25,-0.37,-26.0,11936.57,1521.0,0.0,0.0,0.0,0.0
1776370285061193665,34214,0.004,0.5,0.0,0.5,-0.04,-0.14,175.19,-2.13,6.81,-1.55,-0.28,-0.21,-8.13,-6.81,-22.12,11935.89,948.0,0.0,0.0,0.0,0.0
1776370285161648605,34314,0.0,0.9,0.016,0.3,0.02,0.0,174.13,-1.63,6.44,-0.62,-0.11,-0.95,-0.63,-5.88,-1.56,954.91,948.0,0.0,0.0,0.0,0.0
1776370285593435075,34414,0.0,1.0,0.036,0.2,-0.08,-0.21,174.44,-1.56,7.19,-1.32,-0.15,-1.02,9.88,5.63,4.06,919.24,2186.0,0.0,0.0,0.0,0.0
1776370285661397169,34513,0.036,0.4,0.0,1.1,0.04,-0.12,174.63,-2.19,7.75,-1.02,-0.73,-0.02,4.19,2.94,-2.88,919.07,2186.0,0.0,0.0,0.0,0.0
1776370285665707760,34613,0.024,0.1,0.0,1.3,-0.08,-0.08,173.81,-2.0,8.25,-0.74,-0.35,0.01,3.44,-8.56,-11.81,923.87,848.0,0.0,0.0,0.0,0.0
1776370285678453883,34713,0.0,0.1,0.0,0.9,0.0,-0.1,172.81,-1.94,8.56,-0.91,-0.13,-0.11,-1.5,7.94,-5.25,907.23,1109.0,0.0,0.0,0.0,0.0
1776370285751440729,34812,0.016,0.1,0.0,0.9,0.1,0.0,172.94,-3.25,8.94,-0.2,-0.26,-0.24,-3.81,13.44,7.06,938.28,1109.0,0.0,0.0,0.0,0.0
1776370285764331928,34912,0.012,0.3,0.0,1.0,-0.12,-0.18,173.88,-3.94,8.94,0.16,-0.08,-0.25,2.31,4.81,11.06,11938.46,1034.0,0.0,0.0,0.0,0.0
1776370285868029052,35012,0.0,0.4,0.0,0.1,0.14,-0.06,175.06,-4.13,8.94,-0.48,-0.05,-0.13,-6.0,0.12,12.44,1070.16,1591.0,0.0,0.0,0.0,0.0
1776370285960352355,35112,0.0,0.6,0.0,0.7,0.06,-0.16,176.44,-3.75,8.38,-0.17,0.29,-0.42,-11.0,-2.5,14.88,907.23,1591.0,0.0,0.0,0.0,0.0
1776370286058648943,35212,0.0,0.5,0.0,0.3,-0.14,-0.06,177.44,-3.38,7.69,0.49,0.31,-0.02,-4.31,-4.56,3.56,912.04,1040.0,0.0,0.0,0.0,0.0
1776370286167000942,35311,0.008,0.2,0.0,0.9,0.08,-0.08,176.63,-2.44,7.81,1.09,0.49,0.29,4.94,-12.81,-15.13,923.36,767.0,0.0,0.0,0.0,0.0
1776370286259366263,35411,0.052,0.3,0.0,0.5,0.1,0.02,175.38,-1.75,7.75,0.56,0.45,-0.31,4.44,-0.0,-2.31,910.66,767.0,0.0,0.0,0.0,0.0
1776370286361789810,35512,0.04,-0.1,0.0,0.5,-0.14,-0.16,176.56,-1.88,8.0,0.4,0.1,-0.21,1.5,2.56,17.69,945.14,1194.0,0.0,0.0,0.0,0.0
1776370286460057657,35611,0.032,0.2,0.0,0.1,-0.08,0.0,177.44,-1.63,8.31,0.29,0.27,-0.84,4.06,-2.19,2.88,939.31,1194.0,0.0,0.0,0.0,0.0
1776370286558320171,35710,0.0,0.8,0.012,0.2,-0.02,0.0,177.5,-2.0,8.44,-0.07,0.2,-0.97,-1.81,9.5,-0.44,904.83,712.0,0.0,0.0,0.0,0.0
1776370286901433325,35810,0.0,0.3,0.0,0.9,0.0,-0.14,177.69,-3.19,7.75,0.63,-0.03,-0.42,-10.44,14.81,3.75,899.52,978.0,0.0,0.0,0.0,0.0
1776370286955632186,35909,0.0,0.9,0.0,0.6,0.14,0.08,178.5,-3.75,6.94,-0.08,0.38,-0.3,-5.75,-3.0,11.19,910.66,978.0,0.0,0.0,0.0,0.0
1776370286968245288,36009,0.0,1.1,0.0,1.1,-0.08,-0.12,178.69,-3.31,6.5,-0.63,0.68,-0.1,-4.94,-7.81,-6.44,11935.37,1700.0,0.0,0.0,0.0,0.0
1776370286982269969,36109,0.004,0.0,0.0,0.2,0.02,-0.21,177.75,-2.88,6.06,2.11,-0.09,2.23,1.12,-4.63,-11.19,818.91,903.0,0.0,0.0,0.0,0.0
1776370287058045713,36209,0.004,0.9,0.0,0.5,0.14,0.02,176.31,-2.5,7.13,1.05,-0.46,0.77,19.19,-5.19,-18.0,810.68,903.0,0.0,0.0,0.0,0.0
1776370287158295297,36308,0.0,0.9,0.0,0.3,-0.06,-0.02,175.0,-2.38,8.69,-0.95,-0.02,-0.62,10.13,-1.81,-3.56,11935.54,877.0,0.0,0.0,0.0,0.0
1776370287266697704,36408,0.0,0.4,0.0,1.1,0.04,-0.12,175.0,-2.25,9.0,0.24,-0.05,0.22,-2.19,-2.19,1.0,11934.0,1126.0,0.0,0.0,0.0,0.0
1776370287357167808,36508,0.032,0.2,0.0,0.9,-0.04,-0.06,174.75,-1.94,8.81,0.99,-0.26,0.0,2.19,-5.56,-4.75,11934.0,1008.0,0.0,0.0,0.0,0.0
1776370287459406833,36609,0.0,0.5,0.0,1.0,-0.02,-0.16,174.31,-1.56,9.25,-0.06,0.08,-0.32,4.63,-4.88,-2.44,11936.23,1008.0,0.0,0.0,0.0,0.0
1776370287559685491,36709,0.016,0.2,0.0,0.5,0.04,-0.08,174.31,-1.06,9.56,0.12,0.08,0.24,1.19,-3.06,1.37,11936.57,1309.0,0.0,0.0,0.0,0.0
1776370287657942115,36809,0.012,0.2,0.0,1.0,-0.02,-0.08,174.5,-0.88,9.5,0.27,0.05,-0.19,0.19,1.81,4.44,11935.54,842.0,0.0,0.0,0.0,0.0
1776370287760513553,36909,0.004,0.1,0.0,0.1,0.04,0.08,175.19,-0.88,9.63,-0.03,-0.24,-0.08,2.13,-1.56,8.0,11937.09,842.0,0.0,0.0,0.0,0.0
1776370287856766902,37009,0.0,0.3,0.0,1.2,-0.12,-0.04,175.75,-0.56,9.75,0.03,-0.06,0.0,-0.94,-2.88,4.81,833.83,842.0,0.0,0.0,0.0,0.0
1776370287959165486,37108,0.0,0.5,0.0,0.2,-0.02,0.02,176.19,-0.31,9.63,0.04,-0.14,-0.12,-0.88,-1.56,5.19,852.35,886.0,0.0,0.0,0.0,0.0
1776370288059448903,37209,0.0,1.0,0.0,0.6,0.0,-0.02,176.63,-0.19,9.63,0.0,-0.07,-0.02,-0.44,1.63,3.75,11935.54,774.0,0.0,0.0,0.0,0.0
1776370288167805031,37309,0.0,1.1,0.0,0.7,-0.04,-0.06,176.81,-0.44,9.63,-0.03,-0.26,-0.16,-1.0,0.94,0.44,11936.91,1054.0,0.0,0.0,0.0,0.0
1776370288258160188,37409,0.044,0.3,0.0,0.3,-0.06,-0.08,176.75,-0.5,9.5,0.14,-0.07,-0.18,-0.12,-1.44,-1.81,839.32,1054.0,0.0,0.0,0.0,0.0
1776370288360575549,37509,0.0,0.4,0.0,0.8,0.02,-0.1,176.44,-0.44,9.56,0.05,-0.05,-0.04,1.44,-0.44,-2.56,859.56,1019.0,0.0,0.0,0.0,0.0
1776370288458840154,37610,0.0,0.9,0.004,0.2,-0.04,-0.12,176.25,-0.5,9.69,-0.03,-0.14,-0.1,0.25,-0.75,-2.19,863.67,1019.0,0.0,0.0,0.0,0.0
1776370288561252589,37710,0.0,0.6,0.0,1.2,0.04,-0.1,175.94,-0.44,9.69,0.07,-0.01,-0.1,1.37,-1.44,-4.44,826.12,599.0,0.0,0.0,0.0,0.0
1776370288659571065,37810,0.0,0.9,0.0,0.5,0.08,0.04,175.5,-0.44,9.88,0.08,-0.01,-0.15,2.56,-0.69,-3.06,842.07,599.0,0.0,0.0,0.0,0.0
1776370288761968704,37911,0.0,0.5,0.0,0.3,-0.12,0.06,175.31,-0.44,10.13,0.18,-0.0,0.02,3.25,-0.63,-1.31,855.27,938.0,0.0,0.0,0.0,0.0
1776370288860271865,38010,0.0,0.2,0.0,0.7,-0.16,-0.04,175.25,-0.37,10.38,0.01,-0.01,0.0,1.44,-1.0,-0.19,836.92,776.0,0.0,0.0,0.0,0.0
1776370288958569731,38110,0.0,1.0,0.0,0.3,-0.1,-0.12,175.25,-0.31,10.44,0.11,-0.05,-0.05,-0.0,-0.25,-0.12,849.27,776.0,0.0,0.0,0.0,0.0
1776370289060966906,38210,0.0,0.6,0.0,0.3,0.0,-0.14,175.31,-0.31,10.44,0.07,-0.04,-0.09,1.25,-0.19,0.37,886.31,1144.0,0.0,0.0,0.0,0.0
1776370289159274104,38310,0.0,0.7,0.0,0.5,0.02,-0.18,175.31,-0.25,10.5,0.05,0.03,-0.09,0.37,-0.75,0.94,864.87,889.0,0.0,0.0,0.0,0.0
1776370289261670057,38411,0.0,1.0,0.0,1.0,-0.12,0.02,175.44,-0.25,10.5,0.03,-0.05,-0.07,0.37,0.44,1.44,864.36,889.0,0.0,0.0,0.0,0.0
1776370289359979200,38511,0.012,0.1,0.0,1.2,0.0,-0.06,175.63,-0.25,10.5,0.03,-0.0,-0.04,0.5,0.94,1.63,838.81,697.0,0.0,0.0,0.0,0.0
1776370289462343245,38611,0.004,0.9,0.004,0.5,0.06,-0.04,175.75,-0.25,10.5,-0.03,-0.01,-0.08,-1.25,0.56,1.25,829.72,1469.0,0.0,0.0,0.0,0.0
1776370289560642998,38711,0.0,0.6,0.0,0.7,-0.12,-0.12,175.88,-0.25,10.44,0.09,-0.08,-0.14,0.25,-0.0,1.12,826.8,1469.0,0.0,0.0,0.0,0.0
1776370289663069044,38811,0.0,0.0,0.0,0.3,-0.02,-0.06,176.0,-0.25,10.5,0.0,-0.07,-0.04,1.06,-0.69,0.94,823.2,768.0,0.0,0.0,0.0,0.0
1776370289761321760,38912,0.0,0.7,0.0,0.8,-0.02,0.0,176.06,-0.19,10.5,0.01,-0.04,-0.06,-0.12,0.06,0.63,835.72,768.0,0.0,0.0,0.0,0.0
1776370289863775047,39013,0.0,0.2,0.0,0.5,-0.12,-0.1,176.13,-0.19,10.5,0.04,-0.03,-0.06,0.25,0.12,1.0,830.4,883.0,0.0,0.0,0.0,0.0
1776370289962064671,39112,0.0,0.9,0.0,1.2,-0.02,-0.02,176.13,-0.19,10.5,0.0,-0.01,-0.12,0.44,-0.31,0.19,793.36,1077.0,0.0,0.0,0.0,0.0
1776370290389432429,39213,0.0,0.2,0.0,1.0,-0.06,0.0,176.13,-0.19,10.5,0.04,-0.07,-0.07,-0.0,0.37,-0.19,793.36,1077.0,0.0,0.0,0.0,0.0
1776370290453587421,39314,0.0,0.1,0.0,0.2,-0.02,0.04,176.13,-0.19,10.5,0.04,-0.07,-0.09,0.31,-0.5,0.12,804.85,904.0,0.0,0.0,0.0,0.0
1776370290457665379,39413,0.0,0.7,0.0,0.9,-0.08,0.1,176.13,-0.19,10.56,0.0,-0.07,-0.14,0.5,0.5,0.44,791.82,1479.0,0.0,0.0,0.0,0.0
1776370290465865258,39514,0.024,0.2,0.02,0.3,0.1,0.0,176.19,-0.19,10.56,0.04,-0.1,-0.12,1.25,-0.19,0.12,11934.68,819.0,0.0,0.0,0.0,0.0
1776370290474216436,39614,0.0,0.4,0.0,1.1,-0.02,-0.08,176.19,-0.19,10.69,0.01,-0.09,-0.06,1.56,-0.37,-0.5,11935.89,819.0,0.0,0.0,0.0,0.0
1776370290566048747,39714,0.0,0.4,0.0,1.2,0.02,-0.2,176.19,-0.19,10.81,0.0,-0.1,0.0,0.37,0.37,-0.44,11936.06,596.0,0.0,0.0,0.0,0.0
1776370290674523895,39814,0.0,0.0,0.0,1.2,-0.06,-0.12,176.13,-0.12,10.81,-0.01,-0.04,-0.03,-0.37,-0.81,-0.63,11934.68,817.0,0.0,0.0,0.0,0.0
1776370290766901881,39914,0.0,0.9,0.0,0.3,-0.02,-0.14,176.06,-0.12,10.75,0.01,-0.04,-0.12,-1.0,0.06,-0.63,11935.37,817.0,0.0,0.0,0.0,0.0
1776370291353439976,40014,0.0,1.1,0.0,0.8,0.08,-0.18,176.06,-0.12,10.75,-0.02,-0.02,-0.11,0.37,-0.12,0.12,11933.14,1031.0,0.0,0.0,0.0,0.0
1776370291358851975,40114,0.0,1.1,0.0,0.3,0.02,-0.1,176.06,-0.12,10.75,0.01,-0.05,-0.11,0.37,-0.44,0.37,836.92,1031.0,0.0,0.0,0.0,0.0
1776370291362937062,40214,0.0,0.4,0.0,0.9,-0.02,0.04,176.06,-0.12,10.75,0.02,-0.04,-0.04,0.44,0.5,0.25,789.24,869.0,0.0,0.0,0.0,0.0
1776370291366972982,40313,0.0,0.0,0.0,1.1,-0.02,-0.08,176.06,-0.06,10.75,0.0,-0.04,-0.08,-0.0,-1.0,0.31,828.17,869.0,0.0,0.0,0.0,0.0
1776370291371992511,40413,0.028,0.2,0.0,1.2,0.0,0.0,176.06,-0.0,10.75,0.05,-0.08,-0.11,-0.44,-0.88,0.37,806.91,1082.0,0.0,0.0,0.0,0.0
1776370291375228418,40513,0.0,0.2,0.0,0.6,0.04,-0.06,176.06,-0.0,10.75,0.07,-0.06,-0.07,-0.0,-0.37,0.25,11934.34,760.0,0.0,0.0,0.0,0.0
1776370291465246216,40613,0.0,0.9,0.0,0.5,-0.04,-0.02,176.06,-0.0,10.75,0.02,-0.08,-0.05,0.5,-0.25,-0.12,802.28,760.0,0.0,0.0,0.0,0.0
1776370291565445020,40713,0.0,0.3,0.004,0.2,-0.04,-0.04,176.06,-0.0,10.75,0.01,-0.06,-0.03,0.37,0.31,-0.63,11935.71,814.0,0.0,0.0,0.0,0.0
1776370291667894918,40813,0.0,0.9,0.0,1.1,-0.06,-0.08,176.06,-0.0,10.75,0.0,-0.05,-0.1,0.31,-0.31,-0.31,11934.68,905.0,0.0,0.0,0.0,0.0
1776370291766185041,40913,0.0,0.6,0.0,1.0,-0.02,-0.12,176.06,-0.0,10.81,0.02,-0.02,-0.06,0.69,0.06,0.12,11934.34,1042.0,0.0,0.0,0.0,0.0
1776370291874681096,41013,0.0,0.2,0.0,0.2,-0.06,-0.08,176.06,-0.0,10.81,-0.07,-0.02,0.0,-0.12,-0.44,-0.12,11933.31,1042.0,0.0,0.0,0.0,0.0
1776370292073422342,41113,0.0,0.4,0.0,1.0,-0.06,-0.02,176.06,-0.0,10.75,0.05,-0.08,-0.1,-0.69,0.31,0.19,11933.48,848.0,0.0,0.0,0.0,0.0
1776370292085970536,41213,0.0,0.6,0.0,0.8,0.08,-0.18,176.06,-0.0,10.75,-0.08,-0.08,-0.09,0.25,0.44,-0.5,11932.97,883.0,0.0,0.0,0.0,0.0
1776370292173688684,41313,0.0,0.2,0.0,1.1,-0.1,0.02,176.06,-0.0,10.75,0.03,-0.07,-0.13,-0.12,-0.37,-0.31,11934.51,883.0,0.0,0.0,0.0,0.0
1776370292275992634,41413,0.036,0.1,0.0,1.2,0.04,0.04,176.06,-0.0,10.81,-0.01,-0.08,-0.09,0.94,-0.06,-0.25,11932.8,988.0,0.0,0.0,0.0,0.0
1776370292366367679,41513,0.024,0.2,0.0,1.1,0.0,-0.2,176.06,-0.0,10.94,0.0,-0.07,-0.04,1.19,-0.31,-0.19,11935.2,988.0,0.0,0.0,0.0,0.0
1776370292470665552,41613,0.004,0.1,0.0,1.2,0.02,-0.14,176.06,-0.0,10.94,-0.01,-0.1,-0.02,0.12,-0.19,-0.06,11933.66,928.0,0.0,0.0,0.0,0.0
1776370292574997888,41713,0.0,0.2,0.0,0.2,0.0,-0.1,176.06,-0.0,10.94,-0.03,-0.09,-0.05,-0.31,0.37,-0.06,11933.66,743.0,0.0,0.0,0.0,0.0
1776370292665427286,41814,0.0,0.7,0.0,1.1,0.04,-0.1,176.06,-0.0,10.94,-0.01,-0.09,-0.08,-0.44,-0.56,-0.31,904.49,743.0,0.0,0.0,0.0,0.0
1776370292793436503,41914,0.0,0.4,0.0,1.3,-0.16,0.04,176.06,-0.0,10.94,-0.02,-0.06,-0.11,-0.12,-0.12,-0.06,11938.29,758.0,0.0,0.0,0.0,0.0
1776370292868007800,42014,0.0,0.2,0.0,1.1,0.02,0.02,176.06,-0.0,10.94,0.03,-0.04,-0.08,0.06,-0.12,-0.56,11937.6,842.0,0.0,0.0,0.0,0.0
1776370292968489608,42115,0.0,0.1,0.0,0.5,-0.12,0.0,176.06,-0.0,10.94,0.03,-0.11,-0.11,0.06,-0.81,-0.06,789.24,842.0,0.0,0.0,0.0,0.0
1776370293066783676,42215,0.0,0.3,0.0,1.1,0.02,0.02,176.0,-0.0,10.94,0.02,-0.09,-0.02,0.37,-0.25,-0.94,796.27,781.0,0.0,0.0,0.0,0.0
1776370293169186035,42315,0.0,1.0,0.0,0.6,0.1,-0.14,176.0,-0.0,10.94,0.0,-0.04,-0.04,-0.81,-0.81,-0.31,785.3,781.0,0.0,0.0,0.0,0.0
1776370293267501398,42415,0.0,0.2,0.036,0.3,0.0,-0.1,176.0,0.06,10.94,0.05,-0.06,-0.08,-0.31,-0.25,-0.12,777.07,895.0,0.0,0.0,0.0,0.0
1776370293365772002,42515,0.0,0.1,0.0,0.9,-0.04,0.02,176.0,0.06,10.94,0.03,-0.09,-0.06,0.06,-0.56,0.19,776.04,895.0,0.0,0.0,0.0,0.0
1776370293468139176,42614,0.004,0.2,0.0,0.9,0.1,-0.14,176.0,0.06,10.94,0.04,-0.08,-0.07,-0.12,-0.31,0.06,777.07,1007.0,0.0,0.0,0.0,0.0
1776370293570566368,42715,0.004,0.2,0.0,1.4,0.16,-0.06,175.94,0.06,10.94,0.06,-0.04,-0.04,0.31,0.25,0.12,781.18,835.0,0.0,0.0,0.0,0.0
1776370293668898307,42816,0.0,0.3,0.0,0.4,0.02,-0.1,175.94,0.12,10.94,0.01,-0.04,-0.04,0.31,-0.69,0.44,800.9,835.0,0.0,0.0,0.0,0.0
1776370293767224152,42915,0.0,0.5,0.0,0.6,-0.16,-0.21,175.94,0.12,10.94,0.01,-0.05,-0.1,0.25,0.25,0.5,801.08,1113.0,0.0,0.0,0.0,0.0
1776370293869605807,43015,0.0,0.1,0.0,1.3,-0.04,-0.02,175.94,0.12,10.94,0.04,-0.05,-0.07,1.12,-0.06,0.31,797.3,770.0,0.0,0.0,0.0,0.0
1776370293967902337,43115,0.0,0.5,0.0,0.8,-0.08,-0.02,175.94,0.12,11.06,0.0,-0.02,-0.06,0.81,-0.19,0.19,809.31,770.0,0.0,0.0,0.0,0.0
1776370294070301270,43215,0.0,0.5,0.0,0.2,-0.08,-0.04,175.94,0.12,11.06,0.05,-0.05,-0.03,0.5,0.44,-0.06,799.19,700.0,0.0,0.0,0.0,0.0
1776370294168595541,43315,0.0,0.1,0.0,0.9,-0.06,-0.08,175.94,0.12,11.06,0.03,-0.0,-0.04,-0.19,0.06,0.31,820.63,820.0,0.0,0.0,0.0,0.0
1776370294266865182,43415,0.0,0.5,0.032,0.3,-0.12,0.0,175.94,0.06,11.06,-0.02,-0.04,-0.08,-1.06,0.75,0.5,812.91,820.0,0.0,0.0,0.0,0.0
1776370294369327893,43514,0.02,0.0,0.0,0.2,0.06,0.04,176.0,0.12,11.0,0.0,-0.06,-0.04,-0.25,0.5,0.5,814.8,886.0,0.0,0.0,0.0,0.0
1776370294467574848,43615,0.0,0.3,0.0,0.8,-0.1,-0.16,176.0,0.06,10.88,-0.03,-0.03,-0.05,-1.56,0.19,0.44,11934.0,1062.0,0.0,0.0,0.0,0.0
1776370294577936637,43715,0.0,0.4,0.0,0.7,-0.1,-0.31,176.0,0.06,10.69,-0.07,-0.09,-0.03,-2.63,0.37,0.12,11937.77,1062.0,0.0,0.0,0.0,0.0
1776370294670234288,43815,0.0,0.4,0.0,1.1,-0.08,0.06,176.0,0.12,10.44,0.02,-0.07,-0.13,-2.69,-0.63,-0.19,11936.91,937.0,0.0,0.0,0.0,0.0
1776370294770706689,43915,0.0,0.1,0.0,0.6,-0.06,-0.04,176.0,0.12,10.25,-0.13,-0.1,-0.02,-2.19,-0.0,-0.37,807.77,937.0,0.0,0.0,0.0,0.0
1776370294869008996,44015,0.0,0.3,0.0,0.1,-0.04,0.0,175.94,0.06,9.88,0.0,-0.06,0.0,-6.0,0.31,-1.12,817.37,954.0,0.0,0.0,0.0,0.0
1776370294971418355,44115,0.0,0.9,0.0,0.6,0.0,-0.12,175.81,0.06,9.25,0.36,-0.06,-0.27,-3.94,-0.94,-0.12,806.74,993.0,0.0,0.0,0.0,0.0
1776370295077648667,44216,0.0,1.0,0.0,0.3,-0.02,-0.02,175.88,0.06,9.19,-0.17,-0.13,-0.08,1.81,0.75,0.5,11932.8,874.0,0.0,0.0,0.0,0.0
1776370295167970136,44316,0.004,0.3,0.0,1.1,-0.04,0.02,175.75,-0.0,9.31,-0.02,-0.16,-0.09,-0.5,-1.81,-1.88,831.43,874.0,0.0,0.0,0.0,0.0
1776370295270464885,44416,0.036,0.2,0.0,1.0,0.04,-0.04,175.56,0.06,9.31,0.11,-0.04,-0.12,1.19,-0.75,-1.56,796.96,1079.0,0.0,0.0,0.0,0.0
