timestamp_ns,time_ms,voltage_left,current_left_ma,voltage_right,current_right_ma,motor_current_left,motor_current_right,euler_x,euler_y,euler_z,acc_lin_x,acc_lin_y,acc_lin_z,gyro_x,gyro_y,gyro_z,sonar_mm,tof_mm,rpm_left,rpm_right,rotations_left,rotations_right
1776450014931996206,1904,0.0,0.5,0.064,0.1,0.08,0.0,-0.0,-3.88,4.31,0.0,0.03,-0.38,-0.06,0.12,0.0,166.53,203.0,0.0,0.0,0.0,0.0
1776450015030282617,2004,0.0,0.9,0.064,0.5,-0.04,-0.04,-0.0,-3.88,4.31,0.01,0.03,-0.38,-0.0,-0.06,0.0,162.24,181.0,0.0,0.0,0.0,0.0
1776450015132697854,2105,0.0,1.2,0.0,1.2,0.1,0.06,-0.0,-3.88,4.31,0.0,0.04,-0.34,-0.0,-0.06,0.06,166.36,181.0,0.0,0.0,0.0,0.0
1776450015230964369,2205,0.0,0.7,0.068,0.3,-0.1,0.02,-0.0,-3.88,4.31,0.01,0.02,-0.36,-0.12,0.06,0.12,166.36,207.0,0.0,0.0,0.0,0.0
1776450015333376846,2305,0.0,0.7,0.064,0.4,-0.04,-0.18,-0.0,-3.88,4.31,0.01,0.03,-0.36,0.12,-0.12,0.0,166.53,202.0,0.0,0.0,0.0,0.0
1776450015431674768,2405,0.096,0.3,0.0,1.5,0.02,0.02,-0.0,-3.88,4.31,0.01,0.03,-0.37,0.06,-0.0,0.0,166.53,202.0,0.0,0.0,0.0,0.0
1776450015534077819,2505,0.092,0.1,0.0,1.5,-0.02,-0.14,-0.0,-3.88,4.31,0.02,0.03,-0.35,0.06,0.12,0.0,166.53,192.0,0.0,0.0,0.0,0.0
1776450015632382667,2605,0.0,1.4,0.068,0.5,-0.14,0.08,-0.0,-3.88,4.31,0.0,-0.0,-0.34,0.12,0.06,0.0,166.53,198.0,0.0,0.0,0.0,0.0
1776450015740698651,2705,0.0,1.6,0.072,1.1,0.08,0.04,-0.0,-3.88,4.31,0.01,0.05,-0.36,-0.0,-0.06,0.06,166.36,198.0,0.0,0.0,0.0,0.0
1776450015833060511,2805,0.0,0.7,0.076,0.5,-0.02,-0.23,-0.0,-3.88,4.31,0.03,0.03,-0.37,-0.06,0.06,0.06,166.53,197.0,0.0,0.0,0.0,0.0
1776450015931338970,2905,0.088,0.2,0.0,1.1,0.08,-0.12,-0.0,-3.88,4.31,0.02,0.02,-0.38,-0.06,-0.0,-0.06,165.84,203.0,0.0,0.0,0.0,0.0
1776450016033760608,3005,0.088,0.1,0.0,1.3,-0.1,-0.06,-0.0,-3.88,4.31,0.01,0.05,-0.36,0.06,0.12,0.0,170.99,203.0,0.0,0.0,0.0,0.0
1776450016136176221,3106,0.092,0.1,0.0,1.2,0.06,-0.16,-0.0,-3.88,4.31,0.04,0.04,-0.35,0.06,-0.0,0.0,170.13,204.0,0.0,0.0,0.0,0.0
1776450016234450012,3207,0.088,0.5,0.064,0.6,0.1,-0.14,-0.0,-3.88,4.31,0.03,0.03,-0.36,-0.0,-0.06,0.06,166.01,204.0,0.0,0.0,0.0,0.0
1776450016332704545,3307,0.0,0.9,0.068,0.3,0.04,0.02,-0.0,-3.88,4.31,0.0,0.02,-0.36,0.06,0.06,-0.12,170.64,201.0,0.0,0.0,0.0,0.0
1776450016435095955,3406,0.0,1.0,0.06,0.8,0.04,-0.12,-0.0,-3.88,4.31,0.01,0.04,-0.36,0.12,-0.0,-0.06,166.53,187.0,0.0,0.0,0.0,0.0
1776450016533442263,3506,0.0,1.2,0.0,1.2,0.1,-0.14,-0.0,-3.88,4.31,0.02,0.04,-0.38,0.06,-0.06,0.0,166.36,187.0,0.0,0.0,0.0,0.0
1776450017240219775,3606,0.092,0.9,0.072,0.3,0.04,0.0,-0.0,-3.88,4.31,0.02,0.02,-0.4,-0.0,0.12,0.12,166.36,212.0,0.0,0.0,0.0,0.0
1776450017251959256,3705,0.0,0.5,0.052,0.3,-0.02,-0.21,-0.0,-3.88,4.31,0.03,0.05,-0.36,-0.06,-0.19,0.0,166.36,175.0,0.0,0.0,0.0,0.0
1776450017264486107,3805,0.0,0.3,0.0,1.6,0.02,-0.14,-0.0,-3.88,4.31,0.05,0.02,-0.38,-0.0,0.19,0.06,166.53,175.0,0.0,0.0,0.0,0.0
1776450017332124484,3905,0.0,1.3,0.068,0.2,0.04,-0.14,-0.0,-3.88,4.31,0.02,0.02,-0.37,-0.0,0.19,0.0,166.36,201.0,0.0,0.0,0.0,0.0
1776450017344290011,4004,0.0,1.2,0.0,1.1,-0.04,-0.16,-0.0,-3.88,4.31,0.02,0.03,-0.35,-0.0,0.12,0.06,169.96,201.0,0.0,0.0,0.0,0.0
1776450017356787270,4104,0.092,0.2,0.0,1.2,-0.02,-0.12,-0.0,-3.88,4.31,0.03,0.02,-0.36,0.06,-0.12,0.0,170.64,212.0,0.0,0.0,0.0,0.0
1776450017368907464,4204,0.0,0.8,0.0,1.5,0.0,0.1,-0.0,-3.88,4.31,0.02,0.03,-0.38,-0.0,-0.0,0.06,166.53,201.0,0.0,0.0,0.0,0.0
1776450017434506723,4304,0.088,0.1,0.0,1.4,-0.04,-0.12,-0.0,-3.88,4.31,0.01,0.02,-0.34,0.12,-0.0,-0.06,166.36,201.0,0.0,0.0,0.0,0.0
1776450017443109648,4404,0.092,0.3,0.0,0.1,-0.04,-0.12,-0.0,-3.88,4.31,0.01,0.03,-0.36,-0.12,0.06,0.06,166.36,205.0,0.0,0.0,0.0,0.0
1776450017532775559,4504,0.0,1.1,0.064,0.5,0.04,-0.08,-0.0,-3.88,4.31,0.01,0.02,-0.37,-0.12,-0.0,0.0,166.53,210.0,0.0,0.0,0.0,0.0
1776450017631052802,4603,0.0,0.7,0.068,0.5,-0.06,-0.08,-0.0,-3.88,4.31,0.03,0.03,-0.38,0.06,-0.06,0.12,166.36,210.0,0.0,0.0,0.0,0.0
1776450017733489058,4704,0.0,0.9,0.0,1.1,0.04,-0.2,-0.0,-3.88,4.31,0.02,0.02,-0.38,-0.06,0.06,0.0,166.36,202.0,0.0,0.0,0.0,0.0
1776450017831801893,4804,0.092,0.1,0.0,1.1,-0.06,-0.04,-0.0,-3.88,4.31,0.01,0.04,-0.36,-0.0,-0.0,0.0,171.16,197.0,0.0,0.0,0.0,0.0
1776450017934189150,4904,0.092,0.1,0.0,1.1,0.0,-0.14,-0.0,-3.88,4.31,0.02,0.05,-0.38,0.06,0.19,0.0,166.53,197.0,0.0,0.0,0.0,0.0
1776450018032486175,5004,0.096,0.2,0.0,1.0,-0.06,-0.14,-0.0,-3.88,4.31,0.02,0.02,-0.36,0.06,0.12,0.06,166.53,203.0,0.0,0.0,0.0,0.0
1776450018134876195,5104,0.096,0.1,0.0,1.1,0.02,-0.14,-0.0,-3.88,4.31,0.04,0.02,-0.38,0.06,0.06,0.19,166.36,204.0,0.0,0.0,0.0,0.0
1776450018233181046,5204,0.0,0.9,0.072,0.2,-0.02,-0.16,-0.0,-3.88,4.31,0.01,0.03,-0.38,-0.06,0.06,-0.06,171.16,204.0,0.0,0.0,0.0,0.0
1776450018335576381,5305,0.0,0.4,0.0,0.3,0.1,-0.14,-0.0,-3.88,4.31,0.04,0.03,-0.38,-0.12,0.19,0.06,168.07,210.0,0.0,0.0,0.0,0.0
1776450018433873973,5406,0.0,1.2,0.064,0.4,0.06,-0.08,-0.0,-3.88,4.31,0.01,0.03,-0.37,-0.06,0.12,-0.06,167.04,210.0,0.0,0.0,0.0,0.0
1776450018536266881,5507,0.0,0.7,0.064,0.3,-0.02,-0.1,-0.0,-3.88,4.31,0.02,0.04,-0.38,-0.0,0.06,-0.06,171.16,209.0,0.0,0.0,0.0,0.0
1776450018638640142,5608,0.092,0.2,0.0,1.5,0.1,0.0,-0.0,-3.88,4.31,0.02,0.03,-0.38,-0.0,0.12,0.12,171.16,205.0,0.0,0.0,0.0,0.0
1776450018736974548,5707,0.092,0.3,0.0,1.5,0.06,-0.04,-0.0,-3.88,4.31,0.02,0.01,-0.35,0.06,-0.06,0.06,171.16,205.0,0.0,0.0,0.0,0.0
1776450018868241056,5807,0.092,1.4,0.072,0.4,-0.02,-0.06,-0.0,-3.88,4.31,0.01,0.03,-0.38,-0.06,-0.0,0.0,167.04,191.0,0.0,0.0,0.0,0.0
1776450018937668697,5907,0.0,1.4,0.068,1.1,0.02,-0.04,-0.0,-3.88,4.31,0.03,0.02,-0.35,-0.06,-0.06,0.0,171.16,188.0,0.0,0.0,0.0,0.0
1776450019068210865,6007,0.0,1.0,0.06,0.5,-0.04,0.02,-0.0,-3.88,4.31,0.03,0.02,-0.36,-0.0,-0.06,0.06,170.64,188.0,0.0,0.0,0.0,0.0
1776450019138360440,6107,0.0,0.9,0.068,0.4,-0.16,-0.08,-0.0,-3.88,4.31,0.03,0.01,-0.37,0.06,0.06,0.06,166.36,204.0,0.0,0.0,0.0,0.0
1776450019236642928,6207,0.088,-0.1,0.0,1.1,-0.1,-0.1,-0.0,-3.88,4.31,0.03,0.04,-0.38,0.12,-0.19,0.0,166.53,199.0,0.0,0.0,0.0,0.0
1776450019334948694,6306,0.0,1.4,0.064,0.6,-0.06,-0.02,-0.0,-3.88,4.31,0.01,0.04,-0.38,-0.0,-0.12,0.0,166.36,199.0,0.0,0.0,0.0,0.0
1776450019437335448,6406,0.0,1.2,0.0,1.3,-0.02,-0.23,-0.0,-3.88,4.31,0.03,0.04,-0.38,-0.12,-0.06,-0.06,170.64,189.0,0.0,0.0,0.0,0.0
1776450019535652010,6507,0.084,0.2,0.0,1.2,-0.08,-0.14,-0.0,-3.88,4.31,0.0,0.04,-0.36,0.12,-0.06,0.06,166.53,189.0,0.0,0.0,0.0,0.0
1776450019637988396,6606,0.096,0.2,0.0,1.0,0.02,0.04,-0.0,-3.88,4.31,0.01,0.03,-0.35,-0.06,-0.0,0.06,166.53,201.0,0.0,0.0,0.0,0.0
1776450019800217440,6706,0.092,0.1,0.06,0.3,-0.06,-0.02,-0.0,-3.88,4.31,0.03,0.03,-0.37,0.06,0.06,0.06,166.53,187.0,0.0,0.0,0.0,0.0
1776450019834700092,6806,0.0,0.5,0.0,1.6,0.06,-0.23,-0.0,-3.88,4.31,0.04,0.03,-0.34,-0.0,-0.0,0.0,166.36,187.0,0.0,0.0,0.0,0.0
1776450019937027384,6905,0.092,0.3,0.0,1.2,-0.02,-0.12,-0.0,-3.88,4.31,0.02,0.02,-0.38,0.06,0.06,0.0,166.53,213.0,0.0,0.0,0.0,0.0
1776450020035320908,7006,0.0,1.2,0.064,0.3,0.04,-0.1,-0.0,-3.88,4.31,0.02,0.04,-0.38,0.12,0.12,-0.19,166.36,188.0,0.0,0.0,0.0,0.0
1776450020137731629,7106,0.0,1.2,0.068,0.2,-0.02,-0.02,-0.0,-3.88,4.31,0.01,0.02,-0.35,-0.0,-0.0,0.0,166.36,188.0,0.0,0.0,0.0,0.0
1776450020236009542,7206,0.0,0.3,0.0,1.6,-0.1,0.0,-0.0,-3.88,4.31,0.02,0.02,-0.34,0.25,-0.12,0.0,166.53,206.0,0.0,0.0,0.0,0.0
1776450020338419911,7306,0.092,0.3,0.064,0.3,0.06,-0.04,-0.0,-3.88,4.31,0.02,0.03,-0.37,-0.0,-0.06,0.0,166.36,206.0,0.0,0.0,0.0,0.0
1776450020436781285,7406,0.0,1.2,0.052,0.2,0.04,-0.1,-0.0,-3.88,4.31,0.01,0.04,-0.38,-0.0,-0.06,-0.06,166.53,206.0,0.0,0.0,0.0,0.0
1776450020534962200,7505,0.0,1.1,0.072,0.3,0.02,-0.18,-0.0,-3.88,4.31,0.02,0.03,-0.33,0.19,-0.12,-0.12,166.53,188.0,0.0,0.0,0.0,0.0
1776450020637404272,7605,0.0,1.2,0.068,0.5,-0.1,0.0,-0.0,-3.88,4.31,0.01,0.05,-0.37,0.06,0.06,-0.06,166.36,188.0,0.0,0.0,0.0,0.0
1776450020735701536,7705,0.0,1.2,0.076,0.5,-0.08,-0.12,-0.0,-3.88,4.31,0.03,0.02,-0.36,-0.0,-0.06,-0.06,166.53,189.0,0.0,0.0,0.0,0.0
1776450020876217531,7804,0.0,0.8,0.0,1.3,0.1,-0.12,-0.0,-3.88,4.31,0.02,0.03,-0.35,0.06,-0.06,0.0,166.53,208.0,0.0,0.0,0.0,0.0
1776450020936397632,7904,0.092,0.2,0.0,0.9,0.06,-0.12,-0.0,-3.88,4.31,0.03,0.03,-0.38,-0.0,0.12,0.06,166.36,208.0,0.0,0.0,0.0,0.0
1776450021034697855,8004,0.0,0.2,0.0,1.6,0.04,-0.02,-0.0,-3.88,4.31,0.02,0.03,-0.4,0.06,-0.0,0.06,166.36,195.0,0.0,0.0,0.0,0.0
1776450021133000739,8103,0.092,0.4,0.0,1.4,0.14,-0.06,-0.0,-3.88,4.31,0.0,0.01,-0.38,0.06,-0.12,-0.06,166.53,196.0,0.0,0.0,0.0,0.0
1776450021235391086,8203,0.092,1.2,0.0,1.2,-0.06,-0.18,-0.0,-3.88,4.31,0.03,0.02,-0.38,-0.06,-0.06,-0.06,166.36,196.0,0.0,0.0,0.0,0.0
1776450021333680970,8303,0.0,0.7,0.056,0.5,0.2,-0.1,-0.0,-3.88,4.31,0.0,0.05,-0.37,-0.0,-0.12,0.0,166.36,192.0,0.0,0.0,0.0,0.0
1776450021436076872,8403,0.0,1.3,0.0,1.2,0.06,-0.1,-0.0,-3.88,4.31,0.01,0.04,-0.38,-0.0,-0.0,0.0,166.53,187.0,0.0,0.0,0.0,0.0
1776450021534357923,8504,0.092,0.4,0.0,1.2,0.02,-0.08,-0.0,-3.88,4.31,0.01,0.02,-0.37,-0.06,0.06,-0.06,166.53,187.0,0.0,0.0,0.0,0.0
1776450021636729825,8604,0.0,1.0,0.068,0.4,0.04,-0.1,-0.0,-3.88,4.31,0.0,0.01,-0.4,0.06,0.19,0.06,166.36,214.0,0.0,0.0,0.0,0.0
1776450021735056006,8704,0.0,0.6,0.072,0.2,0.14,-0.08,-0.0,-3.88,4.31,0.02,0.02,-0.36,0.06,-0.06,-0.06,166.53,214.0,0.0,0.0,0.0,0.0
1776450021833369630,8804,0.0,0.6,0.072,0.3,-0.02,0.06,-0.0,-3.88,4.31,0.01,0.02,-0.35,0.06,-0.0,-0.06,166.53,202.0,0.0,0.0,0.0,0.0
1776450021935766551,8903,0.0,1.0,0.064,0.4,0.06,-0.16,-0.0,-3.88,4.31,0.02,0.03,-0.36,-0.0,-0.0,0.0,166.36,183.0,0.0,0.0,0.0,0.0
1776450022034075145,9003,0.0,0.6,0.068,0.2,-0.02,-0.1,-0.0,-3.88,4.31,0.01,0.01,-0.36,-0.0,0.06,-0.06,166.36,183.0,0.0,0.0,0.0,0.0
1776450022132353865,9103,0.0,0.0,0.0,1.1,-0.04,-0.29,-0.0,-3.88,4.31,0.04,0.03,-0.35,0.12,-0.12,-0.06,166.53,202.0,0.0,0.0,0.0,0.0
1776450022234752606,9202,0.096,0.2,0.0,1.1,-0.08,-0.14,-0.0,-3.88,4.31,0.05,0.01,-0.37,0.12,-0.25,-0.12,167.56,208.0,0.0,0.0,0.0,0.0
1776450022337164384,9303,0.08,0.0,0.0,1.2,-0.1,-0.14,-0.0,-3.88,4.31,0.04,0.04,-0.39,-0.19,-0.0,-0.06,166.36,208.0,0.0,0.0,0.0,0.0
1776450022435411400,9403,0.0,1.2,0.0,1.5,0.0,-0.02,-0.0,-3.88,4.31,0.03,0.01,-0.38,0.12,-0.06,-0.06,166.53,208.0,0.0,0.0,0.0,0.0
1776450022533720175,9503,0.0,1.4,0.0,0.1,0.06,-0.18,-0.0,-3.88,4.31,0.02,0.03,-0.4,-0.06,-0.0,0.12,166.36,187.0,0.0,0.0,0.0,0.0
1776450022636174859,9604,0.0,0.2,0.0,1.5,0.04,-0.06,-0.0,-3.88,4.31,0.03,0.04,-0.38,-0.06,0.06,0.0,166.53,187.0,0.0,0.0,0.0,0.0
1776450022734437579,9704,0.0,1.3,0.0,1.0,-0.06,-0.12,-0.0,-3.88,4.31,0.01,0.01,-0.38,-0.0,0.06,-0.06,166.36,196.0,0.0,0.0,0.0,0.0
1776450022836836302,9804,0.088,0.4,0.0,1.1,-0.04,-0.08,-0.0,-3.88,4.31,0.01,0.03,-0.39,-0.06,0.12,0.0,166.36,196.0,0.0,0.0,0.0,0.0
1776450022935138484,9904,0.0,1.2,0.06,0.3,-0.1,0.0,-0.0,-3.88,4.31,0.02,0.03,-0.37,0.06,-0.12,0.06,171.16,194.0,0.0,0.0,0.0,0.0
1776450023037547336,10004,0.0,1.1,0.052,0.6,-0.14,-0.21,-0.0,-3.88,4.31,0.02,0.03,-0.39,-0.06,0.06,-0.06,171.16,207.0,0.0,0.0,0.0,0.0
1776450023135850457,10104,0.0,0.9,0.068,0.7,0.06,-0.12,-0.0,-3.88,4.31,0.02,0.02,-0.41,-0.06,-0.19,-0.06,171.16,207.0,0.0,0.0,0.0,0.0
1776450023238233290,10204,0.092,0.4,0.06,0.2,-0.1,0.0,-0.0,-3.88,4.31,0.02,0.01,-0.38,-0.19,-0.0,0.06,167.04,214.0,0.0,0.0,0.0,0.0
1776450023336537318,10304,0.0,1.6,0.072,0.5,-0.2,-0.1,-0.0,-3.88,4.31,0.01,0.03,-0.36,0.06,0.06,0.06,167.04,205.0,0.0,0.0,0.0,0.0
1776450023434784032,10403,0.0,1.3,0.068,0.4,0.16,-0.12,-0.0,-3.88,4.31,0.02,0.05,-0.37,-0.06,0.06,0.06,171.16,205.0,0.0,0.0,0.0,0.0
1776450023537181624,10504,0.092,0.7,0.06,0.3,-0.04,-0.16,-0.0,-3.88,4.31,0.02,0.01,-0.38,-0.06,-0.0,0.0,171.16,202.0,0.0,0.0,0.0,0.0
1776450023635528041,10605,0.084,0.2,0.072,0.3,-0.1,-0.04,-0.0,-3.88,4.31,0.01,0.01,-0.35,-0.06,-0.0,-0.06,171.33,196.0,0.0,0.0,0.0,0.0
1776450023737916947,10704,0.0,1.4,0.072,0.1,0.06,-0.1,-0.0,-3.88,4.31,0.02,0.02,-0.4,-0.06,0.06,0.0,171.16,196.0,0.0,0.0,0.0,0.0
1776450023836217364,10804,0.0,1.3,0.068,0.3,-0.06,0.02,-0.0,-3.88,4.31,0.02,0.01,-0.39,-0.19,0.19,0.0,171.16,188.0,0.0,0.0,0.0,0.0
1776450023938606345,10904,0.0,1.2,0.0,0.9,-0.12,0.0,-0.0,-3.88,4.31,0.02,0.02,-0.38,-0.0,-0.06,0.06,166.36,188.0,0.0,0.0,0.0,0.0
1776450024036934495,11004,0.0,0.9,0.064,0.0,-0.08,-0.12,-0.0,-3.88,4.31,0.03,0.03,-0.38,-0.0,-0.19,0.06,170.64,206.0,0.0,0.0,0.0,0.0
1776450024135233307,11104,0.0,0.9,0.072,0.5,-0.02,0.2,-0.0,-3.88,4.31,0.01,0.03,-0.38,-0.0,-0.0,0.19,166.36,188.0,0.0,0.0,0.0,0.0
1776450024237609317,11204,0.0,0.8,0.0,1.6,0.02,-0.08,-0.0,-3.88,4.31,0.0,0.04,-0.37,-0.0,0.12,0.0,166.53,188.0,0.0,0.0,0.0,0.0
1776450024335918574,11304,0.088,1.4,0.056,0.4,-0.02,0.02,-0.0,-3.88,4.31,0.02,0.03,-0.39,0.06,-0.0,0.06,170.64,191.0,0.0,0.0,0.0,0.0
1776450024438275196,11404,0.0,1.4,0.06,0.4,0.08,-0.18,-0.0,-3.88,4.31,0.05,0.03,-0.37,0.06,-0.12,0.0,171.16,210.0,0.0,0.0,0.0,0.0
1776450024536566453,11504,0.0,0.1,0.0,1.2,-0.04,0.02,-0.0,-3.88,4.31,0.04,0.03,-0.38,-0.06,-0.12,-0.06,167.04,210.0,0.0,0.0,0.0,0.0
1776450024634908931,11603,0.0,0.6,0.06,0.3,0.0,-0.12,-0.0,-3.88,4.31,0.03,0.02,-0.38,-0.06,-0.06,-0.06,167.04,206.0,0.0,0.0,0.0,0.0
1776450024737317774,11703,0.096,0.6,0.0,1.4,0.0,-0.04,-0.0,-3.88,4.31,0.02,0.03,-0.38,-0.0,-0.12,0.06,167.04,199.0,0.0,0.0,0.0,0.0
1776450024835596698,11803,0.0,1.3,0.0,1.3,0.06,-0.04,-0.0,-3.88,4.31,0.01,0.02,-0.39,0.06,-0.06,-0.06,167.04,199.0,0.0,0.0,0.0,0.0
1776450024933894103,11902,0.092,0.2,0.0,1.0,-0.18,0.0,-0.0,-3.88,4.31,0.02,0.03,-0.38,-0.0,0.06,0.0,167.04,189.0,0.0,0.0,0.0,0.0
1776450025036354893,12002,0.0,0.4,0.0,1.5,-0.14,-0.2,-0.0,-3.88,4.31,0.02,0.02,-0.36,-0.06,-0.12,-0.06,171.33,189.0,0.0,0.0,0.0,0.0
1776450025134579763,12103,0.092,0.2,0.064,0.2,-0.06,-0.14,-0.0,-3.88,4.31,0.02,0.04,-0.36,-0.0,-0.0,0.0,171.16,203.0,0.0,0.0,0.0,0.0
1776450025236989091,12203,0.0,0.5,0.0,1.1,-0.02,-0.06,-0.0,-3.88,4.31,0.02,0.03,-0.37,0.06,-0.06,0.0,171.16,199.0,0.0,0.0,0.0,0.0
1776450025339402568,12304,0.084,0.1,0.0,1.1,-0.02,-0.02,-0.0,-3.88,4.31,0.0,0.02,-0.38,0.06,-0.06,0.0,166.53,199.0,0.0,0.0,0.0,0.0
1776450025437647659,12404,0.088,0.3,0.0,1.1,-0.14,-0.16,-0.0,-3.88,4.31,0.01,0.01,-0.38,0.12,-0.12,-0.12,166.36,211.0,0.0,0.0,0.0,0.0
1776450025540036617,12505,0.092,-0.1,0.0,1.4,-0.02,-0.14,-0.0,-3.88,4.31,0.0,0.05,-0.35,0.06,0.19,0.12,166.36,200.0,0.0,0.0,0.0,0.0
1776450025638441539,12605,0.0,1.1,0.068,0.1,-0.1,0.0,-0.0,-3.88,4.31,0.03,0.01,-0.36,-0.06,0.12,-0.06,166.36,200.0,0.0,0.0,0.0,0.0
1776450025740766128,12705,0.0,0.9,0.064,0.6,0.0,-0.14,-0.0,-3.88,4.31,0.03,0.02,-0.38,-0.06,0.06,0.06,170.64,207.0,0.0,0.0,0.0,0.0
1776450025839070218,12806,0.092,0.4,0.0,1.7,0.02,-0.14,-0.0,-3.88,4.31,0.03,0.02,-0.37,0.06,-0.0,0.06,171.16,200.0,0.0,0.0,0.0,0.0
1776450025941478380,12906,0.096,0.2,0.0,1.5,0.02,-0.02,-0.0,-3.88,4.31,0.02,0.03,-0.38,0.06,-0.0,-0.06,166.53,200.0,0.0,0.0,0.0,0.0
1776450026039760526,13006,0.0,1.4,0.064,0.3,0.0,-0.1,-0.0,-3.88,4.31,0.01,0.01,-0.35,-0.06,-0.0,0.0,166.36,175.0,0.0,0.0,0.0,0.0
1776450026142159020,13106,0.0,0.7,0.06,0.2,0.02,-0.18,-0.0,-3.88,4.31,0.0,0.01,-0.38,-0.0,-0.0,0.0,166.36,175.0,0.0,0.0,0.0,0.0
1776450026240518307,13206,0.096,0.0,0.076,0.5,0.0,-0.08,-0.0,-3.88,4.31,0.03,0.04,-0.36,-0.0,-0.06,0.0,166.36,197.0,0.0,0.0,0.0,0.0
1776450026338736634,13305,0.0,1.2,0.068,0.3,0.1,-0.1,-0.0,-3.88,4.31,0.03,0.04,-0.35,-0.12,-0.0,0.0,166.53,193.0,0.0,0.0,0.0,0.0
1776450026441112979,13406,0.0,1.1,0.072,0.3,0.14,-0.08,-0.0,-3.88,4.31,0.02,0.03,-0.39,-0.0,-0.12,0.0,166.36,193.0,0.0,0.0,0.0,0.0
1776450026539440341,13507,0.0,1.3,0.072,0.2,0.0,0.06,-0.0,-3.88,4.31,0.0,0.04,-0.36,0.06,-0.06,0.0,166.36,211.0,0.0,0.0,0.0,0.0
1776450026641846427,13606,0.0,1.0,0.072,0.2,0.02,-0.04,-0.0,-3.88,4.31,0.01,0.01,-0.36,-0.0,0.06,0.0,166.53,203.0,0.0,0.0,0.0,0.0
1776450026740161956,13706,0.096,0.2,0.0,0.5,0.0,-0.02,-0.0,-3.88,4.31,0.01,0.05,-0.36,-0.12,-0.06,0.0,166.53,203.0,0.0,0.0,0.0,0.0
1776450026842595782,13806,0.0,0.6,0.068,0.3,-0.1,0.0,-0.0,-3.88,4.31,0.01,0.05,-0.38,-0.12,-0.06,0.0,167.38,203.0,0.0,0.0,0.0,0.0
1776450026940840923,13906,0.0,0.7,0.064,0.5,-0.04,0.0,-0.0,-3.88,4.31,0.02,0.03,-0.38,-0.12,-0.12,-0.06,166.53,201.0,0.0,0.0,0.0,0.0
1776450027043248856,14006,0.0,0.9,0.064,0.1,0.02,-0.1,-0.0,-3.88,4.31,0.02,0.01,-0.38,0.06,0.06,0.0,166.36,201.0,0.0,0.0,0.0,0.0
1776450027141539226,14107,0.0,0.9,0.06,0.3,-0.06,-0.1,-0.0,-3.88,4.31,0.03,0.03,-0.36,-0.0,0.25,-0.06,167.56,201.0,0.0,0.0,0.0,0.0
1776450027243936434,14208,0.0,1.1,0.06,0.3,0.08,-0.04,-0.0,-3.88,4.31,0.02,0.03,-0.38,0.12,0.06,0.06,166.36,193.0,0.0,0.0,0.0,0.0
1776450027342229785,14308,0.0,1.0,0.0,1.6,-0.06,-0.23,-0.0,-3.88,4.31,0.03,0.02,-0.38,-0.06,-0.0,0.0,166.53,193.0,0.0,0.0,0.0,0.0
1776450027444661955,14408,0.0,1.3,0.068,0.2,-0.04,-0.08,-0.0,-3.88,4.31,0.03,0.04,-0.37,0.12,0.06,0.06,166.36,180.0,0.0,0.0,0.0,0.0
1776450027542893956,14508,0.0,1.2,0.06,0.2,0.0,-0.14,-0.0,-3.88,4.31,0.03,0.01,-0.38,-0.0,-0.12,-0.06,171.16,180.0,0.0,0.0,0.0,0.0
1776450027645360996,14609,0.0,1.5,0.0,1.1,-0.06,0.04,-0.0,-3.88,4.31,0.04,0.02,-0.38,0.12,-0.06,-0.12,167.04,203.0,0.0,0.0,0.0,0.0
1776450027743611978,14708,0.092,0.3,0.0,1.1,-0.04,-0.12,-0.0,-3.88,4.31,0.02,0.02,-0.36,0.06,0.12,-0.06,167.56,190.0,0.0,0.0,0.0,0.0
1776450027846020185,14809,0.0,0.9,0.068,0.3,-0.06,-0.02,-0.0,-3.88,4.31,0.03,0.04,-0.38,-0.06,0.06,0.06,170.64,190.0,0.0,0.0,0.0,0.0
1776450027944312092,14909,0.0,0.7,0.076,0.3,0.08,-0.08,-0.0,-3.88,4.31,0.01,0.02,-0.39,-0.06,0.06,0.0,166.36,179.0,0.0,0.0,0.0,0.0
1776450028042614690,15008,0.0,0.8,0.068,1.1,0.08,-0.08,-0.0,-3.88,4.31,0.01,0.03,-0.37,-0.0,-0.12,0.0,167.04,197.0,0.0,0.0,0.0,0.0
1776450028145018107,15108,0.0,1.4,0.068,1.2,-0.1,-0.14,-0.0,-3.88,4.31,0.01,0.02,-0.39,0.06,0.12,0.0,166.36,197.0,0.0,0.0,0.0,0.0
1776450028243301683,15208,0.096,0.4,0.0,0.5,-0.06,-0.08,-0.0,-3.88,4.31,0.02,0.03,-0.35,0.06,0.06,0.0,171.16,202.0,0.0,0.0,0.0,0.0
1776450028341612981,15307,0.0,0.8,0.072,1.8,0.04,-0.08,-0.0,-3.88,4.31,0.01,0.01,-0.35,0.06,-0.0,0.0,165.33,192.0,0.0,0.0,0.0,0.0
1776450028443965232,15407,0.096,0.1,0.0,1.3,0.04,-0.06,-0.0,-3.88,4.31,0.02,0.05,-0.35,-0.12,0.19,0.06,166.53,192.0,0.0,0.0,0.0,0.0
1776450028542271548,15507,0.0,1.4,0.064,1.1,0.04,0.02,-0.0,-3.88,4.31,0.01,0.01,-0.36,0.19,-0.25,-0.06,171.16,216.0,0.0,0.0,0.0,0.0
1776450028644717094,15607,0.0,0.7,0.0,1.3,0.04,-0.08,-0.0,-3.88,4.31,0.0,0.04,-0.37,0.06,-0.19,0.12,171.16,216.0,0.0,0.0,0.0,0.0
1776450028742996504,15707,0.0,0.4,0.064,0.6,0.16,0.04,-0.0,-3.88,4.31,0.02,0.03,-0.35,0.12,-0.06,0.0,166.36,193.0,0.0,0.0,0.0,0.0
1776450028841298413,15807,0.092,0.2,0.0,1.3,-0.1,0.0,-0.0,-3.88,4.31,0.02,0.03,-0.36,-0.0,-0.0,0.0,166.36,200.0,0.0,0.0,0.0,0.0
1776450028943682793,15906,0.0,0.9,0.0,1.0,0.08,-0.18,-0.0,-3.88,4.31,0.03,0.04,-0.36,-0.06,-0.06,-0.06,166.7,200.0,0.0,0.0,0.0,0.0
1776450029041961703,16007,0.084,0.1,0.064,0.5,-0.04,0.04,-0.0,-3.88,4.31,0.0,0.03,-0.38,-0.06,-0.12,0.0,166.36,200.0,0.0,0.0,0.0,0.0
1776450029144417101,16108,0.1,0.1,0.0,1.5,-0.02,0.04,-0.0,-3.88,4.31,0.02,0.03,-0.38,0.06,-0.19,0.0,166.53,194.0,0.0,0.0,0.0,0.0
1776450029242690083,16207,0.096,0.3,0.0,1.5,0.08,-0.08,-0.0,-3.88,4.31,0.03,0.02,-0.37,0.12,-0.0,0.0,166.53,194.0,0.0,0.0,0.0,0.0
1776450029345071982,16307,0.088,0.1,0.0,1.5,-0.04,-0.1,-0.0,-3.88,4.31,0.04,0.03,-0.35,0.06,-0.0,0.0,166.53,214.0,0.0,0.0,0.0,0.0
1776450029443332926,16408,0.0,1.3,0.06,0.5,0.08,-0.16,-0.0,-3.88,4.31,0.01,0.04,-0.38,-0.0,0.12,0.06,166.53,185.0,0.0,0.0,0.0,0.0
1776450029545766621,16508,0.0,1.2,0.0,0.3,-0.1,0.0,-0.0,-3.88,4.31,0.02,0.04,-0.35,0.06,0.12,0.06,166.53,185.0,0.0,0.0,0.0,0.0
1776450029644082787,16608,0.0,1.1,0.072,0.5,-0.12,-0.14,-0.0,-3.88,4.31,0.03,0.05,-0.39,-0.0,0.06,0.12,166.53,208.0,0.0,0.0,0.0,0.0
1776450029746485186,16709,0.0,0.9,0.0,1.6,0.0,-0.14,-0.0,-3.88,4.31,0.03,0.04,-0.38,-0.06,-0.06,0.06,166.36,208.0,0.0,0.0,0.0,0.0
1776450029844767741,16808,0.096,0.3,0.0,1.5,0.02,-0.02,-0.0,-3.88,4.31,0.03,0.02,-0.38,-0.0,-0.0,0.0,166.53,206.0,0.0,0.0,0.0,0.0
1776450029943043944,16908,0.092,0.3,0.0,1.3,-0.02,0.0,-0.0,-3.88,4.31,0.01,0.02,-0.35,-0.12,-0.12,0.0,166.53,204.0,0.0,0.0,0.0,0.0
1776450030045469773,17008,0.096,0.3,0.0,1.0,-0.02,-0.12,-0.0,-3.88,4.31,0.02,0.02,-0.37,0.06,-0.0,0.0,166.53,204.0,0.0,0.0,0.0,0.0
1776450030143768896,17107,0.096,0.4,0.0,1.3,-0.02,-0.02,-0.0,-3.88,4.31,0.01,0.02,-0.36,0.06,0.12,0.12,166.36,202.0,0.0,0.0,0.0,0.0
1776450030246157161,17208,0.0,0.0,0.0,1.5,-0.06,0.1,-0.0,-3.88,4.31,0.01,0.03,-0.33,0.06,-0.0,0.06,166.53,196.0,0.0,0.0,0.0,0.0
1776450030344467746,17308,0.092,0.2,0.0,1.6,-0.08,-0.14,-0.0,-3.88,4.31,0.03,0.02,-0.36,0.12,-0.06,0.0,166.36,196.0,0.0,0.0,0.0,0.0
1776450030446815104,17409,0.096,0.3,0.0,1.6,0.16,-0.06,-0.0,-3.88,4.31,0.03,0.04,-0.37,0.06,-0.0,0.0,165.84,187.0,0.0,0.0,0.0,0.0
1776450030545149578,17509,0.092,0.4,0.0,1.7,0.0,-0.14,-0.0,-3.88,4.31,0.0,0.04,-0.38,0.06,-0.0,0.06,167.04,205.0,0.0,0.0,0.0,0.0
1776450030647566399,17609,0.0,1.3,0.068,0.3,0.06,-0.1,-0.0,-3.88,4.31,0.01,0.02,-0.37,-0.0,0.12,0.06,166.01,205.0,0.0,0.0,0.0,0.0
1776450030745855706,17709,0.0,1.5,0.068,0.3,0.0,-0.1,-0.0,-3.88,4.31,0.02,0.03,-0.37,-0.0,-0.0,0.0,165.84,197.0,0.0,0.0,0.0,0.0
1776450030848254601,17809,0.096,0.3,0.0,1.3,-0.04,-0.1,-0.0,-3.88,4.31,0.02,0.03,-0.39,0.19,0.06,0.06,165.84,197.0,0.0,0.0,0.0,0.0
1776450030946563094,17909,0.096,0.6,0.0,1.1,-0.06,-0.02,-0.0,-3.88,4.31,0.03,0.02,-0.36,-0.06,-0.19,-0.06,161.72,194.0,0.0,0.0,0.0,0.0
1776450031044841383,18009,0.088,0.1,0.0,1.1,-0.1,-0.06,-0.0,-3.88,4.31,0.03,0.04,-0.37,-0.06,-0.12,-0.06,165.84,197.0,0.0,0.0,0.0,0.0
1776450031147240288,18109,0.096,-0.1,0.0,1.0,-0.2,0.02,-0.0,-3.88,4.31,0.03,0.02,-0.35,-0.0,0.06,-0.12,161.72,197.0,0.0,0.0,0.0,0.0
1776450031245546213,18209,0.1,0.1,0.0,1.2,-0.08,-0.06,-0.0,-3.88,4.31,0.02,0.02,-0.38,0.06,0.06,-0.06,165.84,204.0,0.0,0.0,0.0,0.0
1776450031347993322,18310,0.0,0.9,0.072,1.2,0.02,-0.02,-0.0,-3.88,4.31,0.03,0.01,-0.37,-0.06,0.06,0.12,165.84,202.0,0.0,0.0,0.0,0.0
1776450031446203471,18410,0.0,0.3,0.0,1.1,-0.04,0.0,-0.0,-3.88,4.31,0.02,0.03,-0.34,-0.06,-0.0,0.06,166.53,202.0,0.0,0.0,0.0,0.0
1776450031544464212,18509,0.092,0.3,0.0,1.2,-0.02,0.02,-0.0,-3.88,4.31,0.02,0.02,-0.38,0.06,-0.12,0.0,166.53,188.0,0.0,0.0,0.0,0.0
1776450031646935653,18609,0.096,0.8,0.056,0.6,-0.08,-0.04,-0.0,-3.88,4.31,0.01,0.02,-0.37,-0.06,-0.12,-0.06,166.36,199.0,0.0,0.0,0.0,0.0
1776450031745254745,18709,0.0,0.5,0.076,0.7,0.04,-0.16,-0.0,-3.88,4.31,0.01,0.03,-0.37,-0.0,0.19,-0.06,166.53,199.0,0.0,0.0,0.0,0.0
1776450031847630113,18808,0.0,1.2,0.06,0.3,0.0,0.0,-0.0,-3.88,4.31,0.01,0.03,-0.36,0.12,-0.12,-0.06,166.53,188.0,0.0,0.0,0.0,0.0
1776450031945927836,18908,0.0,0.7,0.064,0.3,0.14,-0.16,-0.0,-3.88,4.31,0.02,0.03,-0.36,0.12,-0.0,0.0,166.36,188.0,0.0,0.0,0.0,0.0
1776450032048330563,19009,0.0,0.6,0.0,1.6,0.14,-0.08,-0.0,-3.88,4.31,0.02,0.04,-0.36,-0.0,-0.0,-0.06,166.53,191.0,0.0,0.0,0.0,0.0
1776450032146629048,19108,0.0,1.1,0.072,0.3,-0.06,-0.1,-0.0,-3.88,4.31,0.02,0.03,-0.38,-0.06,-0.06,-0.06,166.36,207.0,0.0,0.0,0.0,0.0
1776450032244931255,19208,0.0,1.3,0.068,0.6,-0.06,-0.1,-0.0,-3.88,4.31,0.01,0.01,-0.36,0.12,-0.0,-0.06,166.53,207.0,0.0,0.0,0.0,0.0
1776450032347342444,19308,0.0,1.3,0.068,0.3,0.02,-0.08,-0.0,-3.88,4.31,0.02,0.02,-0.37,-0.0,-0.0,0.0,171.16,197.0,0.0,0.0,0.0,0.0
1776450032445591207,19407,0.0,1.3,0.0,1.0,-0.04,0.0,-0.0,-3.88,4.31,0.02,0.03,-0.38,-0.12,0.12,0.0,171.67,195.0,0.0,0.0,0.0,0.0
1776450032547980988,19508,0.092,0.1,0.0,1.0,-0.08,-0.1,-0.0,-3.88,4.31,0.02,0.04,-0.35,0.06,-0.0,0.06,166.36,195.0,0.0,0.0,0.0,0.0
1776450032646379361,19608,0.0,0.9,0.072,0.3,0.02,0.02,-0.0,-3.88,4.31,0.04,0.01,-0.36,-0.0,-0.06,-0.06,170.64,198.0,0.0,0.0,0.0,0.0
1776450032754664534,19708,0.0,0.1,0.0,1.5,0.06,0.04,-0.0,-3.88,4.31,0.01,0.04,-0.36,-0.06,-0.0,0.0,166.53,199.0,0.0,0.0,0.0,0.0
1776450032847013572,19808,0.092,0.2,0.0,0.2,0.04,-0.1,-0.0,-3.88,4.31,0.01,0.03,-0.38,0.19,0.12,0.0,170.64,199.0,0.0,0.0,0.0,0.0
1776450032945314835,19908,0.0,1.3,0.0,1.2,-0.08,-0.04,-0.0,-3.88,4.31,0.04,0.03,-0.35,-0.0,-0.0,0.0,166.36,188.0,0.0,0.0,0.0,0.0
1776450033043553100,20007,0.092,0.3,0.0,1.1,-0.1,0.06,-0.0,-3.88,4.31,0.01,0.04,-0.36,0.06,0.06,0.06,166.53,188.0,0.0,0.0,0.0,0.0
1776450033146010327,20107,0.092,0.1,0.06,0.4,-0.02,-0.16,-0.0,-3.88,4.31,0.0,0.02,-0.38,-0.0,0.06,-0.06,170.47,201.0,0.0,0.0,0.0,0.0
1776450033244299571,20207,0.0,0.8,0.056,0.5,0.04,-0.1,-0.0,-3.88,4.31,0.02,0.03,-0.38,-0.06,-0.0,0.06,170.64,174.0,0.0,0.0,0.0,0.0
1776450033346719484,20307,0.0,0.8,0.056,0.2,-0.04,-0.02,-0.0,-3.88,4.31,0.04,0.02,-0.39,0.06,-0.06,0.0,171.16,174.0,0.0,0.0,0.0,0.0
1776450033444986302,20407,0.0,1.0,0.072,0.3,-0.1,-0.04,-0.0,-3.88,4.31,0.02,0.04,-0.38,0.06,0.19,0.06,166.53,212.0,0.0,0.0,0.0,0.0
1776450033547397845,20507,0.0,0.2,0.0,1.5,0.02,-0.12,-0.0,-3.88,4.31,0.01,0.02,-0.38,-0.0,-0.0,-0.06,166.53,199.0,0.0,0.0,0.0,0.0
1776450033645709311,20608,0.088,0.0,0.0,1.7,0.0,-0.16,-0.0,-3.88,4.31,0.02,0.02,-0.36,-0.0,0.19,0.06,170.64,199.0,0.0,0.0,0.0,0.0
1776450033748087076,20708,0.092,0.3,0.0,1.6,0.08,-0.04,-0.0,-3.88,4.31,0.02,0.03,-0.38,-0.12,0.12,0.06,171.16,218.0,0.0,0.0,0.0,0.0
1776450033846399875,20807,0.096,-0.1,0.06,0.2,0.0,0.0,-0.0,-3.88,4.31,0.03,0.02,-0.38,-0.06,0.12,0.06,170.64,190.0,0.0,0.0,0.0,0.0
1776450033948790362,20908,0.0,0.9,0.068,0.6,0.08,0.08,-0.0,-3.88,4.31,0.02,0.02,-0.39,0.06,-0.06,-0.06,171.33,190.0,0.0,0.0,0.0,0.0
1776450034047093462,21008,0.0,1.1,0.072,0.9,-0.02,-0.16,-0.0,-3.88,4.31,0.01,0.04,-0.37,0.12,0.06,0.0,166.53,198.0,0.0,0.0,0.0,0.0
1776450034145332203,21108,0.092,0.5,0.0,1.5,0.0,0.0,-0.0,-3.88,4.31,0.03,0.04,-0.36,0.06,-0.0,-0.06,166.53,208.0,0.0,0.0,0.0,0.0
1776450034247794206,21208,0.0,1.3,0.0,1.1,0.04,0.06,-0.0,-3.88,4.31,0.02,0.03,-0.37,-0.12,-0.0,0.0,166.53,208.0,0.0,0.0,0.0,0.0
1776450034350155729,21309,0.092,0.9,0.068,0.3,0.08,-0.14,-0.0,-3.88,4.31,0.01,0.03,-0.36,0.06,-0.06,-0.06,166.53,199.0,0.0,0.0,0.0,0.0
1776450034448441433,21409,0.092,0.4,0.0,1.4,0.0,-0.08,-0.0,-3.88,4.31,0.01,0.02,-0.37,0.06,0.06,-0.12,171.16,199.0,0.0,0.0,0.0,0.0
1776450034546729358,21509,0.008,0.3,0.0,1.2,-0.18,0.0,-0.0,-3.88,4.31,0.03,0.02,-0.34,-0.0,-0.0,-0.06,167.04,195.0,0.0,0.0,0.0,0.0
1776450034649175232,21609,0.0,0.9,0.068,0.1,-0.08,-0.08,-0.0,-3.88,4.31,0.0,0.04,-0.4,-0.0,0.06,-0.06,171.16,202.0,0.0,0.0,0.0,0.0
1776450034747484213,21708,0.0,0.8,0.0,1.4,-0.16,-0.02,-0.0,-3.88,4.31,0.03,0.01,-0.38,0.12,-0.12,0.06,166.53,202.0,0.0,0.0,0.0,0.0
1776450034849879310,21808,0.096,0.1,0.0,1.7,0.0,-0.06,-0.0,-3.88,4.31,0.02,0.02,-0.39,-0.0,0.06,0.0,166.53,209.0,0.0,0.0,0.0,0.0
1776450034948178180,21909,0.0,1.0,0.068,0.4,0.0,-0.18,-0.0,-3.88,4.31,0.01,0.02,-0.36,0.12,0.06,0.12,166.53,192.0,0.0,0.0,0.0,0.0
1776450035046457824,22008,0.0,1.5,0.072,0.1,0.0,-0.08,-0.0,-3.88,4.31,0.03,0.04,-0.36,0.06,-0.12,0.06,166.53,192.0,0.0,0.0,0.0,0.0
1776450035148863934,22108,0.0,1.4,0.068,0.2,0.08,-0.02,-0.0,-3.88,4.31,0.03,0.04,-0.36,0.06,-0.06,0.0,166.53,188.0,0.0,0.0,0.0,0.0
1776450035247166668,22208,0.0,1.4,0.068,0.6,0.0,0.02,-0.0,-3.88,4.31,0.02,0.03,-0.4,-0.06,-0.0,0.0,166.36,188.0,0.0,0.0,0.0,0.0
1776450035345449957,22307,0.0,1.0,0.0,0.3,-0.02,-0.18,-0.0,-3.88,4.31,0.03,0.02,-0.38,-0.06,0.12,0.06,166.53,199.0,0.0,0.0,0.0,0.0
1776450035447829678,22408,0.0,1.3,0.064,0.1,-0.04,-0.02,-0.0,-3.88,4.31,0.02,0.02,-0.39,-0.06,-0.12,-0.12,171.16,203.0,0.0,0.0,0.0,0.0
1776450035550231918,22508,0.088,0.2,0.0,1.2,-0.08,0.04,-0.0,-3.88,4.31,0.0,0.04,-0.37,-0.06,-0.06,-0.06,168.07,203.0,0.0,0.0,0.0,0.0
1776450035648560188,22608,0.0,0.9,0.0,0.2,-0.16,0.02,-0.0,-3.88,4.31,0.02,0.03,-0.36,-0.0,0.06,-0.06,167.04,205.0,0.0,0.0,0.0,0.0
1776450035756926606,22708,0.0,1.3,0.0,1.1,0.06,-0.06,-0.0,-3.88,4.31,0.0,0.01,-0.38,0.06,-0.0,0.06,167.04,209.0,0.0,0.0,0.0,0.0
1776450035849253365,22808,0.0,0.4,0.0,0.5,-0.14,-0.1,-0.0,-3.88,4.31,0.01,0.03,-0.37,-0.0,0.06,0.06,167.04,209.0,0.0,0.0,0.0,0.0
1776450035947559228,22907,0.0,1.2,0.0,1.2,0.1,-0.16,-0.0,-3.88,4.31,0.03,0.04,-0.39,-0.06,-0.0,0.06,171.16,199.0,0.0,0.0,0.0,0.0
1776450036049951814,23007,0.0,0.1,0.0,1.6,-0.06,-0.12,-0.0,-3.88,4.31,0.02,0.03,-0.38,-0.06,0.12,-0.12,167.04,221.0,0.0,0.0,0.0,0.0
1776450036148255685,23107,0.096,0.3,0.0,1.4,-0.02,-0.12,-0.0,-3.88,4.31,0.02,0.04,-0.39,-0.06,0.06,0.0,167.04,221.0,0.0,0.0,0.0,0.0
1776450036246546964,23206,0.096,0.2,0.0,0.5,0.02,-0.12,-0.0,-3.88,4.31,0.02,0.01,-0.38,0.06,-0.12,0.06,167.04,187.0,0.0,0.0,0.0,0.0
1776450036348950955,23306,0.0,1.4,0.064,0.2,0.0,-0.08,-0.0,-3.88,4.31,0.01,0.02,-0.37,-0.0,-0.06,0.0,167.04,208.0,0.0,0.0,0.0,0.0
1776450036447224401,23406,0.0,1.1,0.072,0.3,0.12,-0.06,-0.0,-3.88,4.31,0.01,0.03,-0.38,0.19,-0.06,0.06,167.04,208.0,0.0,0.0,0.0,0.0
1776450036545510439,23505,0.0,1.3,0.0,1.3,0.02,-0.06,-0.0,-3.88,4.31,0.01,0.02,-0.38,-0.0,-0.0,0.0,171.16,192.0,0.0,0.0,0.0,0.0
1776450036647949226,23605,0.0,0.8,0.0,0.3,-0.1,-0.02,-0.0,-3.88,4.31,0.01,0.02,-0.37,-0.0,-0.0,0.0,167.04,192.0,0.0,0.0,0.0,0.0
1776450036746242728,23705,0.0,1.2,0.068,0.4,-0.06,-0.04,-0.0,-3.88,4.31,0.02,0.02,-0.37,0.06,0.19,0.0,167.04,216.0,0.0,0.0,0.0,0.0
1776450036844534821,23804,0.096,0.2,0.0,0.9,-0.04,-0.04,-0.0,-3.88,4.31,0.0,0.03,-0.39,-0.0,0.12,0.06,167.04,186.0,0.0,0.0,0.0,0.0
1776450036946972775,23904,0.084,0.7,0.072,0.3,0.06,-0.08,-0.0,-3.88,4.31,0.04,0.03,-0.38,0.06,0.12,-0.06,167.04,186.0,0.0,0.0,0.0,0.0
1776450037045243923,24004,0.0,0.9,0.072,0.2,0.0,-0.04,-0.0,-3.88,4.31,0.03,0.02,-0.34,0.12,-0.12,-0.12,167.56,198.0,0.0,0.0,0.0,0.0
1776450037147631922,24104,0.0,0.6,0.0,1.5,-0.06,-0.06,-0.0,-3.88,4.31,0.0,0.02,-0.38,-0.0,0.12,0.0,166.53,185.0,0.0,0.0,0.0,0.0
1776450037245922021,24205,0.088,0.2,0.0,1.6,0.06,0.0,-0.0,-3.88,4.31,0.01,0.04,-0.4,-0.12,-0.12,0.0,166.53,185.0,0.0,0.0,0.0,0.0
1776450037348300483,24306,0.0,1.2,0.0,1.1,-0.12,-0.08,-0.0,-3.88,4.31,0.02,0.04,-0.4,-0.06,0.12,-0.06,166.36,195.0,0.0,0.0,0.0,0.0
1776450037446616805,24406,0.096,0.0,0.0,0.9,0.12,-0.02,-0.0,-3.88,4.31,0.02,0.04,-0.38,-0.0,-0.06,-0.06,162.24,195.0,0.0,0.0,0.0,0.0
1776450037544899571,24506,0.0,1.1,0.0,1.0,0.1,-0.16,-0.0,-3.88,4.31,0.02,0.02,-0.35,-0.0,0.06,0.06,162.24,200.0,0.0,0.0,0.0,0.0
1776450037647328403,24605,0.1,0.1,0.0,0.2,-0.02,-0.14,-0.0,-3.88,4.31,0.02,0.02,-0.37,-0.06,0.06,0.06,166.36,182.0,0.0,0.0,0.0,0.0
1776450037745629946,24705,0.0,0.9,0.068,0.3,0.02,-0.14,-0.0,-3.88,4.31,0.03,0.03,-0.38,-0.06,-0.06,0.06,166.36,182.0,0.0,0.0,0.0,0.0
1776450037848098963,24805,0.0,1.3,0.068,0.3,0.1,-0.02,-0.0,-3.88,4.31,0.0,0.03,-0.36,-0.0,-0.0,-0.06,166.36,191.0,0.0,0.0,0.0,0.0
1776450037946325156,24904,0.0,1.1,0.056,0.2,0.06,-0.04,-0.0,-3.88,4.31,0.02,0.04,-0.36,0.19,-0.0,0.0,167.38,203.0,0.0,0.0,0.0,0.0
1776450038054688951,25005,0.0,1.2,0.06,0.3,0.04,-0.04,-0.0,-3.88,4.31,0.02,0.04,-0.35,0.06,0.06,-0.12,166.53,203.0,0.0,0.0,0.0,0.0
1776450038147021498,25105,0.0,1.4,0.072,0.2,-0.06,-0.14,-0.0,-3.88,4.31,0.04,-0.0,-0.37,-0.06,0.06,0.0,166.53,207.0,0.0,0.0,0.0,0.0
1776450038245292786,25205,0.0,1.2,0.072,0.3,-0.02,-0.1,-0.0,-3.88,4.31,0.03,0.01,-0.38,0.06,-0.06,-0.06,166.53,184.0,0.0,0.0,0.0,0.0
1776450038347725400,25306,0.0,1.2,0.072,0.3,0.08,-0.2,-0.0,-3.88,4.31,0.0,0.03,-0.38,0.12,-0.0,0.0,162.24,184.0,0.0,0.0,0.0,0.0
1776450038450139329,25406,0.0,1.4,0.0,1.0,0.02,-0.02,-0.0,-3.88,4.31,0.01,0.02,-0.36,-0.0,-0.0,-0.19,162.24,213.0,0.0,0.0,0.0,0.0
1776450038548424006,25506,0.0,0.6,0.06,0.1,0.02,0.08,-0.0,-3.88,4.31,0.0,0.04,-0.36,0.12,-0.12,-0.06,162.24,205.0,0.0,0.0,0.0,0.0
1776450038646690905,25606,0.0,1.0,0.0,1.4,-0.08,-0.08,-0.0,-3.88,4.31,0.03,0.04,-0.38,-0.0,0.19,0.0,166.53,205.0,0.0,0.0,0.0,0.0
1776450038749110130,25706,0.0,0.4,0.0,1.1,0.0,0.08,-0.0,-3.88,4.31,0.02,0.03,-0.36,-0.0,-0.0,0.0,166.53,183.0,0.0,0.0,0.0,0.0
1776450038847409288,25805,0.1,0.0,0.0,0.2,0.04,-0.04,-0.0,-3.88,4.31,0.02,0.01,-0.36,-0.0,-0.06,0.06,162.24,183.0,0.0,0.0,0.0,0.0
1776450039404203480,25905,0.0,0.5,0.068,1.4,-0.16,-0.06,-0.0,-3.88,4.31,0.01,0.02,-0.4,-0.12,-0.06,0.0,165.84,202.0,0.0,0.0,0.0,0.0
1776450039449498869,26006,0.092,0.4,0.0,0.3,0.02,-0.1,-0.0,-3.88,4.31,0.02,0.03,-0.38,0.06,-0.0,0.0,166.36,202.0,0.0,0.0,0.0,0.0
1776450039453596660,26105,0.0,1.1,0.0,1.2,0.02,-0.04,-0.0,-3.88,4.31,0.02,0.02,-0.35,0.06,0.06,0.0,166.53,202.0,0.0,0.0,0.0,0.0
1776450039465351556,26206,0.0,1.0,0.064,0.3,-0.04,-0.1,-0.0,-3.88,4.31,0.02,0.02,-0.37,-0.12,-0.0,-0.06,162.24,208.0,0.0,0.0,0.0,0.0
1776450039478854237,26306,0.0,0.8,0.076,0.3,-0.04,-0.14,-0.0,-3.88,4.31,0.02,0.03,-0.35,0.12,-0.0,0.06,166.53,206.0,0.0,0.0,0.0,0.0
1776450039547796416,26405,0.0,0.6,0.0,1.6,0.2,0.0,-0.0,-3.88,4.31,0.01,0.02,-0.38,0.06,0.06,0.06,162.24,206.0,0.0,0.0,0.0,0.0
1776450039560008161,26505,0.096,0.4,0.0,1.4,-0.14,-0.14,-0.0,-3.88,4.31,0.03,0.02,-0.34,-0.12,-0.0,0.06,166.36,199.0,0.0,0.0,0.0,0.0
1776450039646099704,26605,0.088,-0.2,0.0,1.5,0.0,-0.02,-0.0,-3.88,4.31,0.0,0.02,-0.36,-0.06,-0.37,-0.06,170.13,197.0,0.0,0.0,0.0,0.0
1776450039748495321,26704,0.0,1.4,0.06,0.1,0.06,0.04,-0.0,-3.88,4.31,0.02,0.03,-0.38,-0.0,-0.06,0.06,166.53,197.0,0.0,0.0,0.0,0.0
1776450039846761054,26805,0.0,0.6,0.06,0.3,0.04,-0.14,-0.0,-3.88,4.31,0.03,0.02,-0.37,-0.06,-0.19,-0.06,166.36,215.0,0.0,0.0,0.0,0.0
1776450040492205602,26905,0.0,0.0,0.0,1.4,0.1,-0.21,-0.0,-3.88,4.31,0.03,0.04,-0.37,0.06,0.06,0.12,166.53,215.0,0.0,0.0,0.0,0.0
1776450040547191510,27004,0.096,0.2,0.0,1.6,-0.08,0.0,-0.0,-3.88,4.31,0.02,0.02,-0.35,-0.12,-0.12,-0.06,166.36,201.0,0.0,0.0,0.0,0.0
1776450040555510502,27104,0.096,0.0,0.0,1.2,0.0,-0.1,-0.0,-3.88,4.31,0.0,0.02,-0.37,-0.0,-0.0,0.12,166.53,205.0,0.0,0.0,0.0,0.0
1776450040568071324,27204,0.0,1.2,0.056,0.3,-0.06,-0.14,-0.0,-3.88,4.31,0.02,0.03,-0.36,-0.0,0.12,0.06,171.16,205.0,0.0,0.0,0.0,0.0
1776450040580953014,27303,0.096,0.9,0.064,0.2,0.0,0.02,-0.0,-3.88,4.31,0.0,-0.0,-0.36,-0.06,-0.0,0.0,171.16,209.0,0.0,0.0,0.0,0.0
1776450040645489778,27404,0.0,1.0,0.064,0.2,0.04,-0.16,-0.0,-3.88,4.31,0.02,0.02,-0.35,0.12,0.12,0.12,167.04,194.0,0.0,0.0,0.0,0.0
1776450040658477819,27504,0.092,0.0,0.0,1.6,0.0,-0.1,-0.0,-3.88,4.31,0.03,0.02,-0.36,-0.0,0.12,0.06,168.07,194.0,0.0,0.0,0.0,0.0
1776450040670027275,27604,0.1,1.0,0.0,1.3,0.04,0.04,-0.0,-3.88,4.31,0.01,0.04,-0.36,-0.06,-0.06,0.0,167.04,189.0,0.0,0.0,0.0,0.0
1776450040747845690,27704,0.0,0.1,0.06,0.2,-0.04,-0.1,-0.0,-3.88,4.31,0.01,0.03,-0.34,-0.06,-0.12,0.0,167.04,204.0,0.0,0.0,0.0,0.0
1776450040846172736,27804,0.0,1.5,0.068,0.5,-0.08,-0.02,-0.0,-3.88,4.31,0.03,0.01,-0.34,-0.0,-0.0,0.12,167.04,204.0,0.0,0.0,0.0,0.0
1776450040948575741,27904,0.0,1.3,0.064,0.5,0.0,-0.12,-0.0,-3.88,4.31,0.04,0.02,-0.38,0.06,-0.06,-0.12,167.04,209.0,0.0,0.0,0.0,0.0
1776450041046883560,28004,0.0,1.3,0.0,1.4,-0.12,-0.14,-0.0,-3.88,4.31,0.01,0.03,-0.34,-0.0,0.06,-0.06,167.04,209.0,0.0,0.0,0.0,0.0
1776450041149270766,28104,0.088,0.2,0.0,1.1,0.06,-0.12,-0.0,-3.88,4.31,0.01,0.05,-0.38,-0.0,0.19,-0.06,166.36,167.0,0.0,0.0,0.0,0.0
1776450041247565864,28205,0.0,0.9,0.072,0.3,0.04,-0.12,-0.0,-3.88,4.31,0.01,0.03,-0.36,-0.19,-0.0,0.0,166.36,182.0,0.0,0.0,0.0,0.0
1776450041349960218,28305,0.0,1.3,0.0,0.3,0.08,-0.08,-0.0,-3.88,4.31,0.01,0.03,-0.36,0.19,-0.19,0.0,166.36,182.0,0.0,0.0,0.0,0.0
1776450041448225038,28405,0.0,1.0,0.056,0.5,0.0,0.0,-0.0,-3.88,4.31,0.01,0.03,-0.37,0.06,0.19,0.12,163.44,183.0,0.0,0.0,0.0,0.0
1776450041550671929,28506,0.0,0.7,0.06,0.3,-0.06,0.02,-0.0,-3.88,4.31,0.02,0.05,-0.38,-0.0,-0.12,0.12,166.53,191.0,0.0,0.0,0.0,0.0
1776450041653065950,28607,0.1,0.2,0.0,1.7,0.02,-0.02,-0.0,-3.88,4.31,0.03,0.04,-0.4,-0.0,-0.0,-0.06,166.53,191.0,0.0,0.0,0.0,0.0
1776450041751373991,28707,0.092,0.2,0.0,1.5,-0.02,-0.14,-0.0,-3.88,4.31,0.05,0.04,-0.38,-0.0,-0.0,-0.06,170.64,184.0,0.0,0.0,0.0,0.0
1776450041849649774,28807,0.1,0.1,0.0,1.2,0.04,-0.04,-0.0,-3.88,4.31,0.04,0.03,-0.38,-0.06,-0.0,-0.06,166.36,192.0,0.0,0.0,0.0,0.0
1776450041952055665,28907,0.088,0.1,0.0,1.2,-0.04,0.04,-0.0,-3.88,4.31,0.02,0.01,-0.37,0.06,-0.19,-0.06,166.36,192.0,0.0,0.0,0.0,0.0
1776450042050348054,29006,0.092,0.1,0.0,1.0,-0.04,-0.04,-0.0,-3.88,4.31,0.01,0.02,-0.39,-0.06,-0.0,0.12,166.53,186.0,0.0,0.0,0.0,0.0
1776450042152754144,29107,0.0,0.6,0.0,0.3,-0.02,-0.14,-0.0,-3.88,4.31,0.02,0.04,-0.36,-0.06,0.19,0.06,166.36,186.0,0.0,0.0,0.0,0.0
1776450042251049661,29207,0.092,0.4,0.064,0.3,0.1,-0.04,-0.0,-3.88,4.31,0.03,0.02,-0.37,-0.0,-0.0,-0.06,166.36,209.0,0.0,0.0,0.0,0.0
1776450042353425103,29307,0.0,0.9,0.0,1.7,0.0,-0.1,-0.0,-3.88,4.31,0.02,0.04,-0.37,-0.0,-0.06,0.0,166.53,218.0,0.0,0.0,0.0,0.0
1776450042451706435,29407,0.0,1.5,0.076,0.3,0.06,-0.02,-0.0,-3.88,4.31,0.02,0.04,-0.32,0.12,0.06,0.0,166.53,218.0,0.0,0.0,0.0,0.0
1776450042550016823,29507,0.096,0.1,0.0,1.3,-0.16,-0.18,-0.0,-3.88,4.31,0.03,0.01,-0.36,-0.0,0.12,0.12,166.36,199.0,0.0,0.0,0.0,0.0
1776450042652451246,29606,0.048,1.4,0.072,0.3,0.0,-0.06,-0.0,-3.88,4.31,0.01,0.04,-0.38,0.12,-0.0,0.06,166.36,203.0,0.0,0.0,0.0,0.0
1776450042750778355,29707,0.092,0.4,0.0,0.2,-0.14,0.02,-0.0,-3.88,4.31,0.03,0.04,-0.34,0.06,0.12,-0.06,166.36,203.0,0.0,0.0,0.0,0.0
1776450042853160798,29807,0.088,0.2,0.068,0.5,0.06,-0.14,-0.0,-3.88,4.31,0.0,0.02,-0.37,0.06,0.19,0.06,166.36,200.0,0.0,0.0,0.0,0.0
1776450042951434537,29906,0.0,1.2,0.072,0.3,-0.06,-0.08,-0.0,-3.88,4.31,0.02,0.03,-0.38,-0.06,-0.0,0.0,166.53,205.0,0.0,0.0,0.0,0.0
1776450043053846177,30007,0.0,1.3,0.0,1.0,-0.08,-0.16,-0.0,-3.88,4.31,0.01,0.04,-0.39,0.19,-0.0,0.0,166.36,205.0,0.0,0.0,0.0,0.0
1776450043152159112,30107,0.092,0.2,0.0,1.3,0.08,-0.02,-0.0,-3.88,4.31,0.03,0.02,-0.36,-0.0,0.06,0.0,166.36,202.0,0.0,0.0,0.0,0.0
1776450043254544084,30208,0.092,0.0,0.0,1.4,0.04,-0.18,-0.0,-3.88,4.31,0.03,0.03,-0.38,0.12,-0.12,-0.06,166.53,202.0,0.0,0.0,0.0,0.0
1776450043352838445,30308,0.092,0.5,0.0,0.6,0.02,-0.08,-0.0,-3.88,4.31,0.01,0.03,-0.35,0.06,-0.0,0.06,166.36,193.0,0.0,0.0,0.0,0.0
1776450043455181325,30408,0.088,0.7,0.076,0.3,-0.16,0.0,-0.0,-3.88,4.31,0.0,0.04,-0.37,-0.06,0.06,0.06,166.53,208.0,0.0,0.0,0.0,0.0
1776450043553517408,30508,0.0,1.2,0.076,0.2,0.04,-0.08,-0.0,-3.88,4.31,0.02,0.02,-0.36,-0.06,-0.12,0.0,166.53,208.0,0.0,0.0,0.0,0.0
1776450043651796509,30608,0.0,1.2,0.072,1.1,0.04,-0.12,-0.0,-3.88,4.31,0.0,0.04,-0.36,0.06,-0.12,-0.06,170.64,195.0,0.0,0.0,0.0,0.0
1776450043754221389,30707,0.092,0.3,0.0,1.5,-0.02,0.02,-0.0,-3.88,4.31,0.01,0.04,-0.39,0.12,-0.06,0.19,170.64,200.0,0.0,0.0,0.0,0.0
1776450043852526417,30807,0.0,1.0,0.06,0.3,-0.12,-0.06,-0.0,-3.88,4.31,0.0,0.01,-0.38,0.06,-0.06,0.0,170.64,200.0,0.0,0.0,0.0,0.0
1776450043950808759,30907,0.0,0.6,0.068,0.2,-0.1,-0.12,-0.0,-3.88,4.31,0.02,0.05,-0.37,-0.06,0.19,0.12,170.64,197.0,0.0,0.0,0.0,0.0
1776450044053217189,31006,0.0,1.2,0.072,0.3,0.04,-0.18,-0.0,-3.88,4.31,0.05,0.01,-0.37,-0.06,-0.06,-0.06,170.64,202.0,0.0,0.0,0.0,0.0
1776450044151528115,31106,0.0,-0.1,0.064,0.2,-0.06,-0.06,-0.0,-3.88,4.31,0.04,0.03,-0.37,-0.06,-0.0,0.0,166.53,202.0,0.0,0.0,0.0,0.0
1776450044253899949,31207,0.088,0.4,0.068,0.2,0.0,-0.02,-0.0,-3.88,4.31,0.01,0.02,-0.37,-0.12,-0.06,-0.06,166.53,195.0,0.0,0.0,0.0,0.0
1776450044352229207,31306,0.0,1.5,0.068,0.2,0.0,-0.14,-0.0,-3.88,4.31,0.03,0.03,-0.36,0.06,-0.06,-0.06,166.53,195.0,0.0,0.0,0.0,0.0
1776450044454603689,31407,0.0,1.5,0.064,0.5,0.0,-0.08,-0.0,-3.88,4.31,0.03,0.04,-0.37,0.12,-0.06,0.0,170.64,199.0,0.0,0.0,0.0,0.0
1776450044552880892,31508,0.0,1.2,0.06,0.5,0.0,0.0,-0.0,-3.88,4.31,0.04,0.05,-0.34,0.12,-0.06,0.12,170.99,187.0,0.0,0.0,0.0,0.0
1776450044651211947,31607,0.0,0.7,0.068,0.5,0.2,-0.04,-0.0,-3.88,4.31,0.03,0.03,-0.37,0.12,-0.0,0.06,166.53,187.0,0.0,0.0,0.0,0.0
1776450045064224914,31707,0.0,0.7,0.0,1.3,-0.08,-0.06,-0.0,-3.88,4.31,0.01,0.03,-0.35,-0.0,-0.19,0.0,166.53,194.0,0.0,0.0,0.0,0.0
1776450045077430122,31807,0.088,0.3,0.06,0.6,0.02,0.12,-0.0,-3.88,4.31,0.02,0.03,-0.34,0.06,-0.19,0.0,167.04,213.0,0.0,0.0,0.0,0.0
1776450045091208087,31907,0.0,0.9,0.068,0.3,-0.08,-0.1,-0.0,-3.88,4.31,0.03,0.02,-0.38,-0.06,0.06,0.06,171.33,213.0,0.0,0.0,0.0,0.0
1776450045154997709,32007,0.0,0.9,0.0,1.7,0.02,-0.02,-0.0,-3.88,4.31,0.03,0.02,-0.36,-0.0,-0.0,0.0,171.33,198.0,0.0,0.0,0.0,0.0
1776450045167903473,32107,0.0,0.2,0.0,1.1,0.16,-0.16,-0.0,-3.88,4.31,0.02,0.03,-0.37,-0.06,-0.06,0.06,171.16,215.0,0.0,0.0,0.0,0.0
1776450045253291233,32206,0.096,0.4,0.0,1.0,-0.08,0.04,-0.0,-3.88,4.31,0.0,0.04,-0.38,0.12,-0.06,0.0,167.04,215.0,0.0,0.0,0.0,0.0
1776450045355713538,32307,0.0,0.9,0.064,1.2,-0.02,-0.04,-0.0,-3.88,4.31,0.02,0.02,-0.38,-0.0,-0.12,0.0,171.16,189.0,0.0,0.0,0.0,0.0
1776450045453957489,32407,0.0,1.3,0.068,0.3,0.06,-0.02,-0.0,-3.88,4.31,0.03,0.01,-0.38,-0.12,0.06,0.0,171.16,193.0,0.0,0.0,0.0,0.0
1776450045552271644,32507,0.0,1.2,0.08,0.3,-0.08,-0.1,-0.0,-3.88,4.31,0.02,0.05,-0.38,0.06,-0.06,0.0,167.04,193.0,0.0,0.0,0.0,0.0
1776450045654715560,32607,0.0,1.1,0.08,0.5,0.02,-0.06,-0.0,-3.88,4.31,0.02,0.03,-0.38,-0.06,0.12,-0.06,171.33,203.0,0.0,0.0,0.0,0.0
1776450045753006918,32707,0.096,0.1,0.0,1.0,0.12,-0.06,-0.0,-3.88,4.31,0.03,0.02,-0.36,-0.06,-0.06,0.0,171.33,203.0,0.0,0.0,0.0,0.0
1776450045855398056,32807,0.092,0.0,0.0,0.4,0.0,-0.08,-0.0,-3.88,4.31,0.02,0.03,-0.37,-0.0,-0.12,0.0,171.16,194.0,0.0,0.0,0.0,0.0
1776450045953702581,32907,0.0,0.9,0.0,1.5,-0.06,-0.08,-0.0,-3.88,4.31,0.01,0.01,-0.37,0.12,-0.06,0.0,167.04,196.0,0.0,0.0,0.0,0.0
1776450046116214160,33008,0.0,1.1,0.0,0.9,0.06,-0.12,-0.0,-3.88,4.31,0.0,0.02,-0.38,0.06,-0.12,0.06,171.16,196.0,0.0,0.0,0.0,0.0
1776450046154394614,33108,0.0,1.0,0.064,0.2,-0.1,-0.06,-0.0,-3.88,4.31,0.02,0.01,-0.38,0.06,-0.12,0.06,171.33,208.0,0.0,0.0,0.0,0.0
1776450046256795629,33208,0.0,0.7,0.068,0.4,-0.06,-0.16,-0.0,-3.88,4.31,0.04,0.02,-0.37,-0.06,0.12,0.06,171.16,197.0,0.0,0.0,0.0,0.0
1776450046355051789,33308,0.0,1.3,0.0,0.3,-0.02,-0.14,-0.0,-3.88,4.31,0.03,0.03,-0.38,-0.12,0.06,0.12,170.64,197.0,0.0,0.0,0.0,0.0
1776450046457486600,33409,0.0,0.9,0.0,0.3,-0.08,-0.04,-0.0,-3.88,4.31,0.03,0.04,-0.39,0.19,-0.0,-0.06,171.33,176.0,0.0,0.0,0.0,0.0
1776450046555759093,33509,0.092,0.3,0.0,1.1,-0.04,-0.04,-0.0,-3.88,4.31,0.04,0.03,-0.36,-0.06,-0.0,-0.06,166.53,176.0,0.0,0.0,0.0,0.0
1776450046708214018,33609,0.0,0.4,0.0,1.6,-0.08,-0.08,-0.0,-3.88,4.31,0.02,0.01,-0.38,-0.0,-0.0,0.0,166.53,195.0,0.0,0.0,0.0,0.0
1776450046756492416,33710,0.0,1.3,0.076,0.3,0.0,-0.04,-0.0,-3.88,4.31,0.05,0.04,-0.39,0.12,0.06,0.12,166.36,190.0,0.0,0.0,0.0,0.0
1776450046858875709,33810,0.0,1.3,0.064,0.1,-0.12,-0.12,-0.0,-3.88,4.31,0.02,0.02,-0.38,-0.06,-0.0,0.0,166.53,190.0,0.0,0.0,0.0,0.0
1776450046957164369,33911,0.0,1.4,0.064,0.2,0.0,-0.16,-0.0,-3.88,4.31,0.02,0.02,-0.34,-0.0,-0.06,0.0,166.36,204.0,0.0,0.0,0.0,0.0
1776450047059579823,34011,0.0,1.3,0.084,0.5,0.18,-0.12,-0.0,-3.88,4.31,-0.01,0.02,-0.37,-0.06,-0.06,-0.06,166.36,207.0,0.0,0.0,0.0,0.0
1776450047161978268,34112,0.0,1.4,0.0,0.3,-0.04,-0.14,-0.0,-3.88,4.31,0.0,0.02,-0.37,-0.0,-0.06,0.12,166.36,207.0,0.0,0.0,0.0,0.0
1776450047260273284,34212,0.0,0.8,0.06,0.2,-0.1,-0.08,-0.0,-3.88,4.31,0.02,0.02,-0.37,-0.06,-0.06,-0.12,166.53,182.0,0.0,0.0,0.0,0.0
1776450047358561744,34312,0.0,0.7,0.064,0.5,0.06,-0.16,-0.0,-3.88,4.31,0.02,-0.0,-0.39,0.06,-0.0,0.06,166.36,206.0,0.0,0.0,0.0,0.0
1776450047460924357,34412,0.092,0.2,0.0,1.5,0.1,-0.06,-0.0,-3.88,4.31,0.02,0.04,-0.36,0.06,0.12,0.0,167.56,206.0,0.0,0.0,0.0,0.0
1776450047559260687,34512,0.096,0.1,0.0,1.5,0.1,-0.25,-0.0,-3.88,4.31,0.0,0.03,-0.35,0.12,-0.06,-0.12,166.53,197.0,0.0,0.0,0.0,0.0
1776450047661660781,34612,0.092,1.5,0.068,0.1,0.02,-0.04,-0.0,-3.88,4.31,0.01,0.03,-0.38,0.12,-0.12,0.0,170.64,184.0,0.0,0.0,0.0,0.0
1776450047759971852,34712,0.0,1.4,0.0,1.0,-0.06,-0.06,-0.0,-3.88,4.31,0.0,0.02,-0.36,-0.06,-0.12,0.12,166.53,184.0,0.0,0.0,0.0,0.0
1776450047858263627,34811,0.088,0.0,0.068,0.1,0.18,-0.04,-0.0,-3.88,4.31,0.01,0.03,-0.39,-0.0,-0.0,0.06,170.64,192.0,0.0,0.0,0.0,0.0
1776450047960662850,34911,0.0,0.9,0.08,0.4,0.08,0.04,-0.0,-3.88,4.31,0.03,0.03,-0.38,0.12,-0.19,-0.06,166.36,192.0,0.0,0.0,0.0,0.0
1776450048058956156,35011,0.0,0.9,0.0,1.7,0.0,-0.16,-0.0,-3.88,4.31,0.02,0.05,-0.38,-0.0,0.06,-0.12,166.53,206.0,0.0,0.0,0.0,0.0
1776450048157236915,35110,0.0,1.4,0.076,0.1,-0.04,-0.06,-0.0,-3.88,4.31,0.03,0.03,-0.38,0.06,-0.12,0.06,166.53,199.0,0.0,0.0,0.0,0.0
1776450048259664012,35211,0.0,0.4,0.0,1.4,-0.02,0.04,-0.0,-3.88,4.31,0.02,0.04,-0.4,0.12,0.06,0.0,166.36,199.0,0.0,0.0,0.0,0.0
1776450048357931086,35311,0.092,0.3,0.0,1.7,0.1,0.02,-0.0,-3.88,4.31,0.0,0.02,-0.37,0.06,0.06,0.06,166.53,202.0,0.0,0.0,0.0,0.0
1776450048460330035,35410,0.088,0.1,0.0,0.2,0.04,-0.08,-0.0,-3.88,4.31,0.01,0.03,-0.38,-0.0,0.06,-0.06,166.36,195.0,0.0,0.0,0.0,0.0
1776450048558622849,35510,0.0,1.3,0.064,0.3,-0.06,-0.16,-0.0,-3.88,4.31,0.02,0.04,-0.38,0.12,-0.0,-0.12,166.36,195.0,0.0,0.0,0.0,0.0
1776450048661055872,35611,0.1,0.2,0.064,0.8,0.02,-0.14,-0.0,-3.88,4.31,0.03,0.02,-0.4,0.06,-0.0,0.06,166.53,190.0,0.0,0.0,0.0,0.0
1776450048759368538,35710,0.092,0.1,0.0,1.5,0.06,-0.2,-0.0,-3.88,4.31,0.03,0.04,-0.41,0.06,0.12,-0.12,170.64,201.0,0.0,0.0,0.0,0.0
1776450048857656464,35810,0.092,0.0,0.0,0.3,0.08,-0.08,-0.0,-3.88,4.31,0.02,0.03,-0.38,-0.0,-0.12,0.12,166.53,201.0,0.0,0.0,0.0,0.0
1776450048960045691,35910,0.0,0.1,0.0,0.2,0.06,-0.08,-0.0,-3.88,4.31,0.03,0.04,-0.38,-0.0,0.19,-0.12,166.36,208.0,0.0,0.0,0.0,0.0
1776450049062445356,36011,0.0,0.1,0.0,1.6,0.0,-0.04,-0.0,-3.88,4.31,0.03,0.01,-0.37,0.06,-0.0,-0.06,166.53,208.0,0.0,0.0,0.0,0.0
1776450049160747986,36112,0.096,0.1,0.0,1.5,-0.14,-0.1,-0.0,-3.88,4.31,0.03,0.04,-0.37,-0.06,0.25,0.0,166.53,191.0,0.0,0.0,0.0,0.0
1776450049259061449,36211,0.0,1.3,0.072,0.5,-0.08,0.0,-0.0,-3.88,4.31,0.01,0.04,-0.38,0.12,-0.12,0.0,166.53,201.0,0.0,0.0,0.0,0.0
1776450049361443234,36311,0.0,1.6,0.0,0.9,-0.12,0.02,-0.0,-3.88,4.31,0.02,0.02,-0.39,-0.06,-0.06,0.06,166.53,201.0,0.0,0.0,0.0,0.0
1776450049459700402,36411,0.0,0.9,0.068,0.1,-0.04,0.0,-0.0,-3.88,4.31,0.0,0.03,-0.38,0.12,0.06,-0.06,166.36,221.0,0.0,0.0,0.0,0.0
1776450049568068687,36511,0.0,1.0,0.0,1.5,0.2,-0.06,-0.0,-3.88,4.31,0.03,0.03,-0.38,0.19,-0.0,0.0,166.36,206.0,0.0,0.0,0.0,0.0
1776450049660453187,36611,0.0,1.1,0.06,0.3,0.1,-0.21,-0.0,-3.88,4.31,0.02,-0.0,-0.38,-0.0,-0.0,0.06,170.64,206.0,0.0,0.0,0.0,0.0
1776450049758774988,36711,0.092,0.2,0.076,0.7,0.0,0.02,-0.0,-3.88,4.31,0.03,0.03,-0.4,-0.06,0.06,0.0,170.64,199.0,0.0,0.0,0.0,0.0
1776450049861147860,36811,0.0,1.3,0.072,0.3,-0.1,0.1,-0.0,-3.88,4.31,0.03,0.03,-0.38,-0.0,-0.0,-0.12,170.64,186.0,0.0,0.0,0.0,0.0
1776450049963530936,36912,0.0,0.6,0.068,0.3,0.0,-0.2,-0.0,-3.88,4.31,0.01,0.02,-0.38,-0.0,-0.06,0.0,171.67,186.0,0.0,0.0,0.0,0.0
1776450050061834535,37013,0.0,0.9,0.0,1.6,0.0,-0.21,-0.0,-3.88,4.31,0.02,0.02,-0.39,-0.06,0.06,0.12,170.64,178.0,0.0,0.0,0.0,0.0
1776450050160122888,37112,0.096,0.0,0.0,1.1,0.14,-0.16,-0.0,-3.88,4.31,-0.01,0.03,-0.39,-0.0,-0.06,0.06,165.84,204.0,0.0,0.0,0.0,0.0
1776450050262537621,37212,0.0,0.5,0.0,1.6,-0.04,0.04,-0.0,-3.88,4.31,0.03,0.02,-0.38,-0.06,0.12,0.0,165.84,204.0,0.0,0.0,0.0,0.0
1776450050360868493,37312,0.096,0.2,0.0,0.5,-0.06,-0.12,-0.0,-3.88,4.31,0.0,0.03,-0.39,-0.06,-0.0,0.19,165.84,211.0,0.0,0.0,0.0,0.0
1776450050463217633,37412,0.0,1.2,0.068,0.4,-0.02,-0.06,-0.0,-3.88,4.31,0.01,0.03,-0.38,-0.0,-0.06,0.0,170.13,211.0,0.0,0.0,0.0,0.0
1776450050561487079,37512,0.0,1.3,0.068,0.3,-0.1,-0.08,-0.0,-3.88,4.31,0.02,0.03,-0.38,0.12,-0.12,-0.06,165.84,185.0,0.0,0.0,0.0,0.0
1776450050663923812,37613,0.0,1.3,0.08,0.4,0.0,-0.14,-0.0,-3.88,4.31,0.02,0.03,-0.36,-0.06,-0.0,-0.12,165.84,201.0,0.0,0.0,0.0,0.0
1776450050762218535,37713,0.0,1.2,0.064,0.5,0.02,-0.1,-0.0,-3.88,4.31,0.03,0.03,-0.36,0.06,0.19,0.06,166.01,201.0,0.0,0.0,0.0,0.0
1776450050864634898,37814,0.0,1.1,0.0,1.1,0.0,-0.06,-0.0,-3.88,4.31,0.01,0.02,-0.39,0.12,-0.06,0.0,165.84,198.0,0.0,0.0,0.0,0.0
1776450050973067786,37915,0.088,0.5,0.064,0.5,0.1,-0.16,-0.0,-3.88,4.31,0.02,0.01,-0.37,0.06,-0.06,0.0,165.84,211.0,0.0,0.0,0.0,0.0
1776450051065321765,38014,0.0,0.9,0.064,0.3,-0.06,-0.12,-0.0,-3.88,4.31,0.03,0.04,-0.38,-0.06,-0.06,0.12,165.84,211.0,0.0,0.0,0.0,0.0
1776450051163579253,38114,0.0,0.9,0.068,0.2,0.0,-0.04,-0.0,-3.88,4.31,0.01,0.04,-0.35,-0.0,0.06,0.0,165.84,211.0,0.0,0.0,0.0,0.0
1776450052004229586,38214,0.0,0.7,0.06,0.3,0.0,-0.04,-0.0,-3.88,4.31,0.04,0.02,-0.39,0.06,-0.06,0.0,165.84,211.0,0.0,0.0,0.0,0.0
1776450052064739005,38315,0.0,0.9,0.068,0.2,0.04,0.04,-0.0,-3.88,4.31,0.02,0.03,-0.35,0.06,0.06,0.12,165.84,205.0,0.0,0.0,0.0,0.0
1776450052073137340,38415,0.092,0.1,0.0,1.6,-0.16,-0.02,-0.0,-3.88,4.31,0.02,0.03,-0.38,-0.06,0.19,0.06,165.84,197.0,0.0,0.0,0.0,0.0
1776450052085164965,38515,0.088,0.2,0.056,0.5,-0.14,-0.1,-0.0,-3.88,4.31,0.02,0.02,-0.37,-0.0,0.25,-0.06,165.84,197.0,0.0,0.0,0.0,0.0
1776450052097816681,38615,0.0,1.3,0.064,0.2,0.06,-0.08,-0.0,-3.88,4.31,0.0,0.05,-0.39,-0.0,-0.0,0.06,165.84,211.0,0.0,0.0,0.0,0.0
1776450052162967313,38715,0.0,1.2,0.064,0.0,-0.02,0.0,-0.0,-3.88,4.31,0.02,0.02,-0.37,0.06,-0.0,0.0,165.84,186.0,0.0,0.0,0.0,0.0
1776450052176973323,38814,0.0,1.2,0.068,0.5,-0.02,-0.08,-0.0,-3.88,4.31,0.02,0.02,-0.37,-0.0,0.06,0.12,169.96,186.0,0.0,0.0,0.0,0.0
1776450052188581615,38914,0.0,1.3,0.068,0.5,0.08,-0.18,-0.0,-3.88,4.31,0.05,0.02,-0.38,0.06,-0.0,-0.06,165.84,196.0,0.0,0.0,0.0,0.0
1776450052201559886,39014,0.0,1.4,0.068,0.2,-0.08,-0.04,-0.0,-3.88,4.31,0.03,0.03,-0.34,-0.06,-0.0,0.06,165.84,201.0,0.0,0.0,0.0,0.0
1776450052265401743,39114,0.0,1.3,0.0,1.1,-0.18,-0.08,-0.0,-3.88,4.31,0.02,0.03,-0.37,-0.06,0.06,0.0,169.96,201.0,0.0,0.0,0.0,0.0
1776450052277443664,39214,0.088,0.3,0.0,0.4,-0.04,-0.06,-0.0,-3.88,4.31,0.02,0.01,-0.36,-0.12,0.12,-0.12,165.84,199.0,0.0,0.0,0.0,0.0
1776450052363673089,39314,0.0,0.7,0.0,1.6,-0.02,-0.1,-0.0,-3.88,4.31,0.02,-0.0,-0.37,-0.12,0.19,-0.19,165.84,203.0,0.0,0.0,0.0,0.0
1776450052466134037,39413,0.096,0.0,0.0,1.6,0.0,-0.12,-0.0,-3.88,4.31,0.02,0.01,-0.37,-0.06,0.19,0.0,165.84,203.0,0.0,0.0,0.0,0.0
1776450052564379086,39514,0.0,1.2,0.068,0.7,0.0,-0.12,-0.0,-3.88,4.31,0.01,0.02,-0.38,-0.06,-0.06,-0.19,166.01,203.0,0.0,0.0,0.0,0.0
1776450052666801646,39614,0.0,1.5,0.064,0.1,-0.04,-0.14,-0.0,-3.88,4.31,-0.01,0.02,-0.38,0.12,-0.0,-0.06,165.84,203.0,0.0,0.0,0.0,0.0
1776450052765110991,39715,0.0,1.2,0.0,1.0,-0.06,-0.18,-0.0,-3.88,4.31,0.0,0.06,-0.37,-0.12,-0.12,0.06,161.55,212.0,0.0,0.0,0.0,0.0
1776450052867493014,39815,0.0,0.4,0.064,0.5,-0.04,-0.04,-0.0,-3.88,4.31,0.03,0.04,-0.34,-0.12,-0.0,0.12,161.72,197.0,0.0,0.0,0.0,0.0
1776450052965796619,39916,0.0,0.4,0.076,0.5,-0.02,-0.12,-0.0,-3.88,4.31,0.02,0.02,-0.37,0.06,0.12,0.0,161.72,197.0,0.0,0.0,0.0,0.0
1776450053068250626,40015,0.0,0.9,0.064,0.6,-0.1,-0.23,-0.0,-3.88,4.31,0.0,0.02,-0.4,-0.06,0.06,-0.12,161.72,214.0,0.0,0.0,0.0,0.0
1776450053166427273,40116,0.0,0.8,0.06,1.0,-0.06,-0.14,-0.0,-3.88,4.31,0.02,0.05,-0.39,-0.0,0.12,0.06,161.55,204.0,0.0,0.0,0.0,0.0
1776450053268887801,40216,0.0,1.3,0.072,0.4,0.02,-0.18,-0.0,-3.88,4.31,0.05,-0.01,-0.37,-0.12,0.25,0.0,161.72,204.0,0.0,0.0,0.0,0.0
1776450053367158411,40315,0.0,1.4,0.064,0.5,0.04,0.04,-0.0,-3.88,4.31,0.03,0.04,-0.38,-0.06,-0.06,0.0,161.72,208.0,0.0,0.0,0.0,0.0
1776450053465457373,40415,0.096,0.2,0.0,0.5,0.08,0.02,-0.0,-3.88,4.31,0.02,0.03,-0.34,0.06,0.06,0.06,166.01,206.0,0.0,0.0,0.0,0.0
1776450053984222426,40515,0.0,0.9,0.068,0.2,-0.02,-0.18,-0.0,-3.88,4.31,0.03,0.03,-0.4,-0.0,0.06,0.19,166.01,206.0,0.0,0.0,0.0,0.0
1776450053995159905,40614,0.0,0.7,0.064,0.5,-0.1,-0.14,-0.0,-3.88,4.31,0.03,0.02,-0.34,0.06,-0.0,0.0,161.72,194.0,0.0,0.0,0.0,0.0
1776450054067607327,40714,0.0,0.9,0.068,0.3,0.0,-0.06,-0.0,-3.88,4.31,0.01,0.02,-0.38,0.06,-0.19,0.0,161.72,194.0,0.0,0.0,0.0,0.0
1776450054080880191,40814,0.0,0.6,0.084,0.6,0.0,-0.08,-0.0,-3.88,4.31,0.02,0.03,-0.36,-0.0,0.06,-0.06,165.33,204.0,0.0,0.0,0.0,0.0
1776450054093420686,40913,0.0,0.3,0.0,1.4,-0.16,0.02,0.06,-3.88,4.31,0.21,0.04,-0.33,-1.12,-0.19,0.0,161.04,187.0,0.0,0.0,0.0,0.0
1776450054105873219,41014,0.096,0.2,0.0,1.6,-0.04,-0.04,-0.0,-3.88,4.19,0.1,0.03,-0.37,0.31,-0.12,0.19,165.33,187.0,0.0,0.0,0.0,0.0
1776450054165900071,41114,0.0,1.4,0.0,1.2,0.12,-0.04,-0.0,-3.88,4.19,-0.02,0.03,-0.36,0.25,-0.25,0.19,165.15,186.0,0.0,0.0,0.0,0.0
1776450054264166927,41213,0.0,0.8,0.0,0.5,0.02,0.04,-0.0,-3.88,4.19,0.07,0.04,-0.38,-0.19,-0.25,0.12,165.33,193.0,0.0,0.0,0.0,0.0
1776450054366589757,41314,0.0,1.4,0.0,1.2,0.04,-0.04,-0.0,-3.88,4.19,0.01,0.05,-0.35,0.06,-0.06,-0.06,165.33,193.0,0.0,0.0,0.0,0.0
1776450054468917513,41414,0.0,1.1,0.064,0.4,0.08,-0.02,-0.0,-3.81,4.19,0.14,0.05,-0.34,-0.31,-0.5,-0.25,166.36,209.0,0.0,0.0,0.0,0.0
1776450054567234813,41515,0.0,1.1,0.0,1.5,-0.16,-0.08,-0.0,-3.81,4.13,0.14,0.02,-0.32,-0.37,-0.31,-0.5,165.15,203.0,0.0,0.0,0.0,0.0
1776450054669695624,41615,0.084,0.2,0.0,0.9,0.08,0.0,-0.06,-3.81,4.13,0.18,0.03,-0.38,-0.5,-0.37,-0.81,165.15,203.0,0.0,0.0,0.0,0.0
1776450054767979646,41715,0.0,0.9,0.068,0.5,0.1,-0.08,-0.12,-3.81,4.06,0.12,0.01,-0.36,-0.12,-0.31,-0.81,165.33,215.0,0.0,0.0,0.0,0.0
1776450054870371920,41816,0.0,0.9,0.064,0.6,-0.02,0.1,-0.19,-3.81,4.06,0.0,0.04,-0.39,0.56,-0.0,-0.75,161.04,215.0,0.0,0.0,0.0,0.0
1776450054968666647,41916,0.0,0.2,0.0,1.5,0.1,0.04,-0.25,-3.81,4.13,-0.22,0.05,-0.37,0.31,0.12,-0.75,165.33,188.0,0.0,0.0,0.0,0.0
1776450055066912320,42016,0.084,0.3,0.0,1.1,-0.04,-0.06,-0.31,-3.81,4.19,-0.02,0.04,-0.36,-0.0,-0.37,-0.63,165.15,204.0,0.0,0.0,0.0,0.0
1776450055169357692,42116,0.088,0.0,0.0,1.1,-0.06,0.02,-0.31,-3.81,4.19,0.25,0.05,-0.36,-0.5,-0.06,-0.63,165.15,204.0,0.0,0.0,0.0,0.0
1776450055267667664,42216,0.096,0.2,0.064,0.3,0.0,-0.14,-0.37,-3.81,4.06,0.2,0.06,-0.38,0.25,0.12,-0.88,168.93,195.0,0.0,0.0,0.0,0.0
1776450055370072017,42315,0.088,0.1,0.0,1.5,-0.02,0.02,-0.5,-3.81,4.0,0.1,0.06,-0.33,-0.0,0.06,-1.12,165.33,189.0,0.0,0.0,0.0,0.0
1776450055468301841,42416,0.088,0.1,0.056,0.3,0.04,-0.02,-0.56,-3.81,4.0,0.03,0.08,-0.35,0.12,0.06,-0.63,166.18,189.0,0.0,0.0,0.0,0.0
1776450055570722824,42517,0.0,0.7,0.06,1.6,-0.08,-0.12,-0.63,-3.81,4.0,-0.08,0.04,-0.35,0.5,0.19,0.0,165.33,192.0,0.0,0.0,0.0,0.0
1776450055669055203,42616,0.096,0.4,0.076,0.5,-0.06,-0.14,-0.63,-3.81,3.94,0.17,0.12,-0.38,0.06,-0.19,0.44,165.33,194.0,0.0,0.0,0.0,0.0
1776450055771454816,42717,0.0,1.1,0.06,0.3,0.06,-0.06,-0.56,-3.75,3.75,0.44,0.07,-0.35,-0.69,-0.0,1.19,165.15,194.0,0.0,0.0,0.0,0.0
1776450055869757825,42817,0.0,1.3,0.072,0.3,0.2,-0.1,-0.44,-3.69,3.69,-0.01,0.07,-0.34,0.25,0.88,1.63,165.33,205.0,0.0,0.0,0.0,0.0
1776450055972172141,42917,0.096,0.3,0.0,0.3,-0.08,-0.1,-0.25,-3.75,3.69,0.05,0.08,-0.39,0.06,-0.0,1.81,165.15,205.0,0.0,0.0,0.0,0.0
1776450056070447450,43017,0.0,0.8,0.052,0.2,0.0,-0.06,-0.12,-3.75,3.69,0.16,-0.0,-0.35,-1.88,-0.0,2.06,165.15,207.0,0.0,0.0,0.0,0.0
1776450056172849253,43118,0.092,0.0,0.0,1.6,-0.1,-0.2,0.12,-3.69,3.5,0.19,0.13,-0.36,0.31,0.63,2.31,165.33,195.0,0.0,0.0,0.0,0.0
1776450056271171229,43217,0.0,1.4,0.0,1.2,0.0,0.02,0.31,-3.75,3.63,-0.15,0.04,-0.36,0.56,0.69,1.69,165.33,195.0,0.0,0.0,0.0,0.0
1776450056369423836,43317,0.092,0.0,0.0,1.1,0.02,-0.14,0.5,-3.75,3.69,-0.22,0.03,-0.36,0.5,0.56,1.5,165.33,194.0,0.0,0.0,0.0,0.0
1776450056471808287,43417,0.0,0.8,0.072,0.4,0.1,-0.04,0.56,-3.75,3.63,0.34,-0.0,-0.4,-2.56,-0.31,0.94,165.15,196.0,0.0,0.0,0.0,0.0
1776450056570115226,43517,0.0,0.7,0.064,0.1,-0.1,-0.06,0.63,-3.69,3.63,-0.04,0.12,-0.36,1.63,0.69,0.44,165.33,196.0,0.0,0.0,0.0,0.0
1776450057544237163,43617,0.0,0.6,0.0,1.4,-0.02,-0.16,0.63,-3.75,3.69,-0.05,-0.0,-0.35,-0.69,0.63,0.37,166.36,195.0,0.0,0.0,0.0,0.0
1776450057546762307,43718,0.0,1.5,0.076,0.3,0.12,0.02,0.63,-3.75,3.69,0.1,0.06,-0.34,-0.12,0.12,0.37,165.33,202.0,0.0,0.0,0.0,0.0
1776450057569527750,43817,0.0,1.3,0.072,0.4,-0.06,-0.14,0.63,-3.75,3.63,0.24,0.05,-0.34,-0.37,0.12,0.19,165.15,202.0,0.0,0.0,0.0,0.0
1776450057581679896,43917,0.0,0.6,0.072,0.5,-0.02,-0.08,0.63,-3.75,3.5,0.3,0.08,-0.37,-0.06,-0.06,-0.37,165.15,187.0,0.0,0.0,0.0,0.0
1776450057594734855,44017,0.0,1.7,0.06,0.3,-0.04,-0.14,0.63,-3.69,3.44,0.14,0.06,-0.32,0.75,0.5,-0.94,165.33,189.0,0.0,0.0,0.0,0.0
1776450057671959891,44116,0.0,1.4,0.06,0.1,0.08,-0.08,0.5,-3.69,3.31,0.28,0.1,-0.35,0.5,0.19,-1.19,165.33,189.0,0.0,0.0,0.0,0.0
1776450057684059945,44216,0.088,0.2,0.064,0.3,0.0,-0.06,0.37,-3.81,3.5,-0.25,0.08,-0.32,2.19,1.31,-0.69,165.15,196.0,0.0,0.0,0.0,0.0
1776450057697400922,44316,0.0,0.9,0.0,1.5,0.14,0.12,0.37,-3.88,3.75,-0.23,-0.02,-0.37,0.06,0.31,-0.44,165.33,196.0,0.0,0.0,0.0,0.0
1776450057770230706,44416,0.088,1.2,0.064,0.2,0.16,0.04,0.31,-3.88,3.69,0.08,0.03,-0.35,-0.88,-0.69,-0.63,165.33,212.0,0.0,0.0,0.0,0.0
1776450057785542532,44516,0.0,0.6,0.064,0.2,0.06,-0.14,0.25,-3.81,3.69,0.1,0.09,-0.37,0.19,-0.19,-1.19,165.15,202.0,0.0,0.0,0.0,0.0
1776450057799448360,44616,0.0,0.6,0.068,1.7,-0.02,0.06,0.19,-3.81,3.69,-0.05,0.1,-0.4,1.06,0.19,-0.25,165.33,202.0,0.0,0.0,0.0,0.0
1776450057872631569,44716,0.08,0.2,0.0,1.6,0.0,0.0,0.19,-3.81,3.81,-0.11,-0.0,-0.32,-0.12,0.37,0.19,165.15,195.0,0.0,0.0,0.0,0.0
1776450057886081157,44817,0.088,0.9,0.0,1.3,0.02,-0.08,0.19,-3.81,3.75,0.23,0.07,-0.32,0.19,-0.5,0.0,169.96,199.0,0.0,0.0,0.0,0.0
1776450057970939643,44916,0.092,0.9,0.0,1.6,0.08,0.04,0.19,-3.75,3.69,0.22,0.03,-0.35,-0.06,-0.06,-0.19,166.01,199.0,0.0,0.0,0.0,0.0
1776450058073327435,45016,0.0,1.0,0.068,0.2,0.0,-0.14,0.19,-3.75,3.63,0.13,0.05,-0.37,0.5,0.19,-0.37,165.33,208.0,0.0,0.0,0.0,0.0
1776450058171630532,45117,0.0,1.3,0.068,0.3,-0.02,-0.14,0.12,-3.75,3.63,0.06,0.06,-0.38,0.94,0.44,-0.63,165.33,208.0,0.0,0.0,0.0,0.0
1776450058348213166,45217,0.0,1.1,0.0,1.2,-0.08,-0.04,0.12,-3.75,3.63,0.19,0.05,-0.37,0.25,0.06,-0.44,165.15,201.0,0.0,0.0,0.0,0.0
1776450058372341682,45317,0.0,1.1,0.0,0.2,0.16,-0.04,0.12,-3.75,3.69,0.02,0.09,-0.37,1.19,0.81,-0.44,165.33,200.0,0.0,0.0,0.0,0.0
1776450058474684717,45417,0.0,1.1,0.076,0.7,-0.04,-0.1,0.12,-3.75,3.75,0.06,-0.0,-0.39,-0.5,0.12,0.12,166.36,200.0,0.0,0.0,0.0,0.0
1776450058573011350,45518,0.0,1.2,0.06,0.3,0.02,-0.12,0.12,-3.75,3.75,0.21,0.05,-0.36,-0.5,-0.0,0.06,169.44,184.0,0.0,0.0,0.0,0.0
1776450058800221883,45618,0.088,-0.1,0.0,0.2,0.06,-0.04,0.12,-3.75,3.69,0.21,0.04,-0.33,-0.31,0.5,0.06,165.33,188.0,0.0,0.0,0.0,0.0
1776450058813960175,45718,0.0,1.0,0.0,0.3,0.06,-0.08,0.12,-3.75,3.63,0.16,0.07,-0.33,0.5,0.63,0.5,165.33,188.0,0.0,0.0,0.0,0.0
1776450058872098412,45817,0.0,1.2,0.068,0.6,0.12,0.0,0.19,-3.81,3.56,0.16,0.05,-0.36,-0.12,0.56,1.31,165.15,190.0,0.0,0.0,0.0,0.0
1776450058974388780,45917,0.0,1.1,0.076,0.6,-0.14,-0.02,0.37,-3.81,3.31,0.49,0.07,-0.38,-0.06,-0.06,2.19,165.15,185.0,0.0,0.0,0.0,0.0
1776450059072716306,46017,0.0,0.7,0.072,0.7,0.02,-0.18,0.56,-3.88,3.31,-0.12,0.09,-0.3,1.69,2.19,1.63,165.15,185.0,0.0,0.0,0.0,0.0
1776450059171010833,46116,0.0,0.5,0.0,1.5,0.06,0.1,0.75,-3.94,3.38,0.03,-0.0,-0.37,-0.44,0.37,2.44,165.33,204.0,0.0,0.0,0.0,0.0
1776450059273418780,46217,0.0,1.2,0.0,1.1,0.02,-0.16,0.94,-3.94,3.38,0.05,0.05,-0.39,0.56,0.56,1.44,169.44,201.0,0.0,0.0,0.0,0.0
1776450059371653252,46318,0.088,0.6,0.0,1.6,-0.1,0.02,1.06,-4.0,3.44,-0.02,0.05,-0.37,1.0,0.75,1.31,169.44,201.0,0.0,0.0,0.0,0.0
1776450059474136420,46417,0.092,0.0,0.0,1.6,-0.02,-0.06,1.19,-4.13,3.56,-0.28,0.03,-0.38,1.63,1.12,1.37,165.33,210.0,0.0,0.0,0.0,0.0
1776450059572419799,46517,0.088,0.0,0.064,0.3,0.12,-0.1,1.31,-4.19,3.88,-0.21,-0.04,-0.36,-0.75,-0.0,0.94,161.04,210.0,0.0,0.0,0.0,0.0
1776450059670676234,46617,0.0,1.5,0.068,0.6,0.16,0.0,1.37,-4.19,3.81,0.19,0.07,-0.38,-0.44,-0.31,0.12,165.15,212.0,0.0,0.0,0.0,0.0
1776450059800230026,46716,0.0,1.2,0.0,1.1,-0.04,-0.12,1.37,-4.13,3.75,0.3,0.08,-0.35,-0.06,-0.06,-0.44,165.33,204.0,0.0,0.0,0.0,0.0
1776450059881523821,46817,0.096,0.3,0.052,0.4,0.0,-0.02,1.31,-4.13,3.63,0.24,0.03,-0.34,-0.31,0.06,-0.81,165.15,204.0,0.0,0.0,0.0,0.0
1776450059973803951,46917,0.0,0.3,0.0,1.4,-0.04,-0.14,1.19,-4.13,3.44,0.18,0.11,-0.38,1.37,0.25,-1.44,165.84,206.0,0.0,0.0,0.0,0.0
1776450060072113240,47017,0.0,1.4,0.072,0.1,-0.06,-0.2,1.06,-4.13,3.44,0.24,0.03,-0.35,-0.37,-0.0,-2.0,165.84,208.0,0.0,0.0,0.0,0.0
1776450060174519321,47117,0.0,1.4,0.0,1.3,-0.02,0.02,0.75,-4.13,3.31,0.23,0.08,-0.37,1.06,-0.06,-3.0,165.33,208.0,0.0,0.0,0.0,0.0
1776450060272792408,47217,0.088,0.2,0.064,0.4,0.02,0.06,0.5,-4.13,3.5,-0.08,0.07,-0.33,1.81,0.31,-2.88,161.21,200.0,0.0,0.0,0.0,0.0
1776450060371095106,47316,0.0,0.9,0.0,1.5,-0.1,-0.04,0.25,-4.13,3.63,-0.14,0.01,-0.36,1.63,0.06,-1.75,165.33,200.0,0.0,0.0,0.0,0.0
1776450060473486223,47416,0.088,0.4,0.076,0.3,-0.02,-0.08,0.12,-4.13,3.69,-0.05,0.04,-0.36,0.44,-0.06,-1.63,165.84,188.0,0.0,0.0,0.0,0.0
1776450060571776181,47516,0.0,0.8,0.0,1.8,0.06,-0.16,-0.06,-4.13,3.69,0.07,0.09,-0.38,0.81,-0.25,-1.12,166.87,179.0,0.0,0.0,0.0,0.0
1776450060674199984,47617,0.088,0.3,0.0,1.6,0.04,0.02,-0.12,-4.13,3.81,0.0,0.1,-0.35,0.94,-0.06,-0.56,161.72,179.0,0.0,0.0,0.0,0.0
1776450060772492756,47717,0.088,0.1,0.064,0.3,-0.08,-0.02,-0.12,-4.13,3.81,0.04,0.07,-0.36,0.56,-0.06,-0.19,166.87,199.0,0.0,0.0,0.0,0.0
1776450060874898448,47817,0.0,1.2,0.064,0.6,-0.08,-0.06,-0.12,-4.13,3.88,0.17,0.07,-0.34,-0.31,-0.37,-0.5,161.72,178.0,0.0,0.0,0.0,0.0
1776450060973186386,47917,0.0,0.1,0.064,0.5,-0.02,-0.06,-0.19,-4.13,3.88,0.06,0.07,-0.36,0.56,-0.12,-0.63,161.72,178.0,0.0,0.0,0.0,0.0
1776450061075554840,48017,0.0,1.3,0.0,1.2,0.06,-0.06,-0.25,-4.13,3.88,0.2,0.07,-0.38,0.12,-0.37,-1.06,165.84,188.0,0.0,0.0,0.0,0.0
1776450061173894913,48116,0.0,0.7,0.06,0.7,-0.04,-0.02,-0.37,-4.06,3.75,0.23,0.13,-0.39,1.0,0.06,-1.31,165.15,190.0,0.0,0.0,0.0,0.0
1776450061272223393,48216,0.0,0.6,0.064,0.5,0.1,-0.02,-0.5,-4.06,3.75,0.11,0.09,-0.36,0.5,-0.0,-1.0,165.84,190.0,0.0,0.0,0.0,0.0
1776450061374610718,48316,0.0,0.9,0.06,0.3,-0.04,-0.12,-0.56,-4.06,3.81,0.0,0.07,-0.36,0.94,0.37,-0.44,165.33,197.0,0.0,0.0,0.0,0.0
1776450061472845624,48415,0.0,0.8,0.064,0.6,-0.02,0.06,-0.63,-4.06,3.81,0.09,0.1,-0.37,0.56,0.12,-0.5,165.33,220.0,0.0,0.0,0.0,0.0
1776450061571170401,48515,0.088,0.1,0.0,1.6,-0.12,-0.18,-0.69,-4.0,3.81,0.09,0.11,-0.38,0.75,-0.06,-0.69,165.33,220.0,0.0,0.0,0.0,0.0
1776450061673596060,48615,0.088,0.0,0.0,1.4,0.0,-0.08,-0.75,-4.0,3.81,0.29,0.08,-0.39,-0.88,-0.31,-0.88,165.33,193.0,0.0,0.0,0.0,0.0
1776450061771882132,48715,0.088,0.3,0.0,1.3,0.08,0.08,-0.81,-4.0,3.88,-0.14,0.08,-0.38,1.94,0.31,-1.06,165.33,193.0,0.0,0.0,0.0,0.0
1776450061874273347,48815,0.0,1.3,0.064,0.0,-0.08,-0.04,-0.88,-4.0,4.0,-0.14,0.06,-0.39,0.56,0.06,-0.5,165.15,178.0,0.0,0.0,0.0,0.0
1776450061972587104,48915,0.0,1.3,0.068,0.3,-0.08,-0.04,-0.94,-4.0,4.06,0.11,0.06,-0.35,-0.19,0.12,-0.31,165.15,180.0,0.0,0.0,0.0,0.0
1776450062070882124,49014,0.092,0.3,0.0,1.2,0.02,-0.02,-0.94,-3.94,4.0,0.21,0.13,-0.36,0.63,0.06,0.0,165.84,180.0,0.0,0.0,0.0,0.0
1776450062173290546,49115,0.088,0.2,0.0,1.0,-0.08,-0.06,-0.94,-3.94,4.0,0.1,0.1,-0.38,0.31,0.19,0.63,165.33,202.0,0.0,0.0,0.0,0.0
1776450062271566808,49215,0.096,0.0,0.0,1.1,-0.06,0.06,-0.81,-3.88,3.88,0.35,0.08,-0.36,-0.19,-0.06,1.37,165.84,204.0,0.0,0.0,0.0,0.0
1776450062373981730,49315,0.092,0.2,0.0,0.9,0.08,-0.08,-0.69,-3.88,3.81,0.14,0.07,-0.35,0.37,0.12,1.56,162.75,204.0,0.0,0.0,0.0,0.0
1776450062476339857,49416,0.092,0.2,0.0,1.0,-0.02,0.02,-0.5,-3.81,3.75,0.26,0.09,-0.37,0.37,-0.06,2.44,161.72,187.0,0.0,0.0,0.0,0.0
1776450062574642044,49517,0.0,0.9,0.064,0.3,-0.08,0.0,-0.25,-3.81,3.88,-0.1,0.04,-0.35,2.5,0.19,2.38,165.15,208.0,0.0,0.0,0.0,0.0
1776450062673020398,49616,0.088,0.3,0.0,1.7,-0.08,-0.14,-0.06,-3.75,3.88,0.17,0.11,-0.38,-0.63,-0.5,2.81,165.15,208.0,0.0,0.0,0.0,0.0
1776450062775373247,49716,0.088,0.1,0.0,1.3,-0.16,-0.08,0.25,-3.75,3.94,0.0,0.06,-0.39,1.12,-0.0,2.5,165.15,194.0,0.0,0.0,0.0,0.0
1776450062873672971,49816,0.0,1.1,0.076,0.4,0.0,-0.02,0.44,-3.69,4.13,-0.13,0.08,-0.42,1.0,-0.12,1.81,165.33,194.0,0.0,0.0,0.0,0.0
1776450062976059320,49916,0.0,1.3,0.068,0.2,-0.12,-0.23,0.56,-3.69,4.19,0.11,0.07,-0.37,-1.12,-0.25,1.19,165.84,198.0,0.0,0.0,0.0,0.0
1776450063074363621,50016,0.092,0.3,0.0,1.0,-0.1,-0.23,0.69,-3.63,4.06,0.25,0.1,-0.34,0.5,-0.19,1.63,165.33,207.0,0.0,0.0,0.0,0.0
1776450063172698868,50116,0.0,1.0,0.0,1.5,-0.1,0.0,0.88,-3.63,4.0,0.21,0.06,-0.39,0.19,-0.37,1.56,165.33,207.0,0.0,0.0,0.0,0.0
1776450063275069887,50215,0.088,0.1,0.0,1.3,-0.04,-0.04,1.0,-3.56,4.06,0.07,0.07,-0.35,0.75,-0.31,1.19,166.18,191.0,0.0,0.0,0.0,0.0
1776450063373334523,50316,0.0,0.7,0.0,0.6,0.1,-0.18,1.12,-3.56,4.19,-0.02,0.1,-0.35,0.88,-0.12,1.06,165.15,202.0,0.0,0.0,0.0,0.0
1776450063475780320,50416,0.0,1.1,0.076,0.4,0.04,-0.14,1.25,-3.56,4.19,0.05,0.07,-0.32,-0.19,-0.25,1.0,165.15,202.0,0.0,0.0,0.0,0.0
1776450063574060400,50515,0.088,0.0,0.0,1.2,-0.02,0.0,1.31,-3.5,4.25,0.0,0.09,-0.37,1.25,0.06,0.75,165.33,187.0,0.0,0.0,0.0,0.0
1776450063672370073,50615,0.096,0.2,0.064,0.5,-0.04,0.12,1.31,-3.5,4.31,0.08,0.08,-0.37,-0.31,-0.12,0.25,165.84,190.0,0.0,0.0,0.0,0.0
1776450063774785092,50715,0.088,0.3,0.0,1.7,0.12,-0.06,1.31,-3.5,4.31,0.04,0.1,-0.42,1.56,0.19,0.56,165.33,190.0,0.0,0.0,0.0,0.0
1776450063877176315,50816,0.0,1.1,0.064,0.4,0.08,-0.06,1.37,-3.44,4.44,-0.01,0.07,-0.38,-0.56,-0.0,0.75,166.18,197.0,0.0,0.0,0.0,0.0
1776450063975451951,50917,0.088,0.6,0.0,1.2,0.02,-0.08,1.37,-3.44,4.5,-0.01,0.08,-0.29,-0.25,0.06,0.44,165.15,197.0,0.0,0.0,0.0,0.0
1776450064077856102,51018,0.088,0.1,0.0,1.2,0.1,-0.04,1.37,-3.44,4.44,0.28,0.15,-0.34,1.0,0.06,0.56,166.18,203.0,0.0,0.0,0.0,0.0
1776450064180259106,51119,0.092,0.1,0.0,1.0,0.0,-0.04,1.37,-3.38,4.31,0.29,0.08,-0.37,0.31,-0.06,-0.12,165.15,201.0,0.0,0.0,0.0,0.0
1776450064278559894,51220,0.0,1.1,0.064,0.5,0.06,-0.12,1.37,-3.38,4.31,0.16,0.11,-0.37,0.06,-0.37,-0.88,165.15,201.0,0.0,0.0,0.0,0.0
1776450064376888441,51319,0.0,1.2,0.072,0.3,0.02,-0.2,1.31,-3.31,4.31,0.18,0.06,-0.3,-1.25,-0.12,-0.75,165.33,202.0,0.0,0.0,0.0,0.0
1776450064479214631,51419,0.0,1.3,0.072,0.1,-0.02,0.02,1.25,-3.31,4.19,0.13,0.1,-0.37,1.63,-0.0,-0.94,165.33,188.0,0.0,0.0,0.0,0.0
1776450064577518882,51520,0.0,1.5,0.0,1.0,-0.06,-0.02,1.19,-3.31,4.25,0.07,0.09,-0.32,0.25,0.06,-0.63,165.15,188.0,0.0,0.0,0.0,0.0
1776450064679968349,51619,0.0,0.6,0.0,1.6,-0.12,-0.08,1.12,-3.31,4.19,0.19,0.09,-0.33,-0.25,-0.19,-0.88,165.33,197.0,0.0,0.0,0.0,0.0
1776450064778238655,51719,0.084,1.1,0.072,0.1,0.16,-0.06,1.06,-3.25,4.19,0.07,0.11,-0.35,1.0,0.06,-0.56,165.15,194.0,0.0,0.0,0.0,0.0
1776450064876514443,51819,0.0,1.5,0.068,0.3,0.08,-0.02,1.0,-3.25,4.25,-0.03,0.08,-0.37,0.31,0.12,0.06,165.15,194.0,0.0,0.0,0.0,0.0
1776450064978962558,51918,0.0,0.2,0.0,1.5,-0.1,-0.18,1.0,-3.25,4.31,-0.12,0.08,-0.33,0.88,0.19,0.0,165.15,184.0,0.0,0.0,0.0,0.0
1776450065077246590,52018,0.0,1.5,0.072,0.5,-0.04,0.0,1.06,-3.19,4.38,0.01,0.09,-0.36,-0.25,-0.0,0.25,165.33,184.0,0.0,0.0,0.0,0.0
1776450065175497085,52118,0.0,1.4,0.0,1.1,0.06,-0.06,1.06,-3.19,4.38,0.09,0.07,-0.35,-0.19,0.25,0.44,165.15,202.0,0.0,0.0,0.0,0.0
1776450065277914204,52217,0.092,0.2,0.0,1.4,-0.08,-0.02,1.06,-3.19,4.19,0.32,0.09,-0.39,0.25,-0.12,0.44,165.15,212.0,0.0,0.0,0.0,0.0
1776450065376262496,52317,0.088,0.0,0.0,1.3,-0.14,-0.06,1.0,-3.13,4.13,0.17,0.07,-0.32,0.5,0.31,-0.06,165.33,212.0,0.0,0.0,0.0,0.0
1776450065478598374,52417,0.088,0.1,0.0,0.3,0.14,-0.14,1.0,-3.13,4.06,0.07,0.1,-0.36,0.75,0.31,0.12,165.33,218.0,0.0,0.0,0.0,0.0
1776450065576916073,52517,0.0,0.8,0.064,0.3,0.02,-0.12,1.0,-3.13,4.13,0.06,0.05,-0.37,-0.37,-0.06,-0.12,165.33,172.0,0.0,0.0,0.0,0.0
1776450065685328110,52617,0.088,0.1,0.0,0.2,-0.06,0.08,1.0,-3.13,4.06,0.1,0.07,-0.36,-0.75,-0.25,-0.19,165.33,172.0,0.0,0.0,0.0,0.0
1776450065777630391,52717,0.0,0.9,0.064,1.4,0.02,-0.02,1.0,-3.13,4.06,0.01,0.09,-0.32,0.5,0.75,-0.81,165.33,188.0,0.0,0.0,0.0,0.0
1776450065875929775,52816,0.0,1.1,0.0,1.1,0.02,0.0,0.94,-3.13,4.06,0.1,0.04,-0.35,-0.06,0.19,-0.31,165.33,205.0,0.0,0.0,0.0,0.0
1776450065978335413,52917,0.092,0.1,0.0,1.0,-0.1,0.0,0.94,-3.13,4.0,0.16,0.09,-0.33,-0.31,0.12,-0.25,165.84,205.0,0.0,0.0,0.0,0.0
1776450066140215844,53017,0.084,0.3,0.0,1.1,0.0,-0.02,0.94,-3.06,3.94,0.24,0.05,-0.32,-0.88,0.19,-0.19,165.84,195.0,0.0,0.0,0.0,0.0
1776450066179031237,53117,0.092,0.3,0.0,1.2,0.12,0.02,0.94,-3.06,3.75,0.18,0.15,-0.36,0.81,0.88,0.19,161.55,213.0,0.0,0.0,0.0,0.0
1776450066277318347,53218,0.096,0.4,0.0,1.1,-0.02,-0.04,0.94,-3.19,3.88,-0.19,0.04,-0.33,0.81,1.5,0.44,165.84,213.0,0.0,0.0,0.0,0.0
1776450066379718229,53318,0.0,0.9,0.0,0.2,-0.02,-0.12,1.0,-3.25,3.88,0.0,0.02,-0.36,0.06,-0.12,0.81,165.84,189.0,0.0,0.0,0.0,0.0
1776450066482053944,53419,0.092,0.2,0.0,1.2,0.02,0.0,1.06,-3.19,3.88,0.03,0.07,-0.35,-0.06,0.37,0.37,165.84,189.0,0.0,0.0,0.0,0.0
1776450066580429906,53519,0.092,0.3,0.0,1.2,-0.04,-0.06,1.06,-3.25,3.88,-0.02,0.09,-0.32,0.31,0.81,0.31,165.84,202.0,0.0,0.0,0.0,0.0
1776450066678718108,53618,0.088,0.5,0.0,1.0,0.02,-0.12,1.06,-3.25,3.88,0.09,0.06,-0.35,0.31,0.44,0.94,165.84,199.0,0.0,0.0,0.0,0.0
1776450067344226677,53718,0.0,0.8,0.068,0.2,-0.08,-0.16,1.19,-3.19,3.75,0.23,0.07,-0.33,0.06,0.06,1.19,165.84,199.0,0.0,0.0,0.0,0.0
1776450067383224293,53818,0.0,0.5,0.06,0.5,-0.18,-0.1,1.31,-3.19,3.69,0.23,0.07,-0.34,0.06,0.75,1.56,165.84,186.0,0.0,0.0,0.0,0.0
1776450067387318899,53919,0.084,0.6,0.0,0.2,0.0,-0.06,1.44,-3.25,3.63,0.11,0.11,-0.34,1.06,1.25,1.25,166.36,179.0,0.0,0.0,0.0,0.0
1776450067391493431,54020,0.0,0.6,0.0,1.0,-0.04,-0.12,1.56,-3.38,3.5,0.34,0.02,-0.34,-1.12,0.19,1.88,165.84,179.0,0.0,0.0,0.0,0.0
1776450067395432481,54120,0.096,0.2,0.0,1.0,-0.08,-0.08,1.69,-3.44,3.63,-0.19,0.08,-0.34,1.19,2.31,1.0,165.84,195.0,0.0,0.0,0.0,0.0
1776450067399765846,54220,0.0,0.5,0.0,1.9,-0.02,-0.12,1.88,-3.63,3.69,-0.07,-0.01,-0.33,0.19,0.69,1.69,165.84,195.0,0.0,0.0,0.0,0.0
1776450067403630008,54320,0.088,0.2,0.0,1.4,0.16,-0.04,2.0,-3.63,3.69,0.09,0.08,-0.31,0.19,0.31,1.25,165.84,187.0,0.0,0.0,0.0,0.0
1776450067481492073,54421,0.088,0.1,0.0,1.5,-0.06,-0.08,2.13,-3.63,3.63,0.09,0.07,-0.37,0.56,0.88,0.94,166.36,203.0,0.0,0.0,0.0,0.0
1776450067579761483,54520,0.088,0.2,0.0,1.6,0.14,-0.08,2.19,-3.75,3.81,-0.15,0.03,-0.35,1.31,1.63,0.88,165.84,203.0,0.0,0.0,0.0,0.0
1776450067682210665,54621,0.0,1.3,0.0,0.3,0.02,-0.1,2.31,-3.81,3.81,0.06,-0.0,-0.37,-0.12,0.19,1.0,165.84,214.0,0.0,0.0,0.0,0.0
1776450067780473315,54721,0.0,0.8,0.0,1.5,0.04,-0.27,2.38,-3.81,3.75,0.22,0.08,-0.34,-0.12,0.25,0.75,166.36,188.0,0.0,0.0,0.0,0.0
1776450067882903089,54820,0.092,1.3,0.06,0.4,0.08,0.06,2.44,-3.81,3.69,0.34,0.03,-0.35,-0.63,0.25,0.75,166.36,188.0,0.0,0.0,0.0,0.0
1776450067981200295,54920,0.0,1.2,0.076,0.3,-0.12,-0.04,2.5,-3.81,3.56,0.19,0.05,-0.34,0.19,0.88,0.81,165.84,205.0,0.0,0.0,0.0,0.0
1776450068089569398,55020,0.0,1.3,0.0,1.3,0.02,-0.16,2.56,-3.88,3.56,0.01,0.05,-0.34,0.88,1.0,0.56,165.67,203.0,0.0,0.0,0.0,0.0
1776450068181903262,55119,0.092,0.3,0.0,1.0,0.04,-0.02,2.56,-3.94,3.63,0.17,-0.01,-0.36,-0.88,0.44,0.31,161.72,203.0,0.0,0.0,0.0,0.0
1776450068280207805,55219,0.092,0.3,0.0,1.1,0.06,-0.21,2.56,-4.0,3.56,0.04,0.07,-0.35,0.69,0.69,-0.12,165.84,201.0,0.0,0.0,0.0,0.0
1776450068382600323,55320,0.0,1.0,0.068,0.4,0.0,0.0,2.56,-4.06,3.69,-0.15,-0.0,-0.37,0.69,0.88,-0.06,161.72,198.0,0.0,0.0,0.0,0.0
1776450068480865032,55419,0.084,0.3,0.0,1.5,0.0,0.02,2.56,-4.13,3.75,-0.07,0.02,-0.36,1.12,0.37,0.19,162.75,198.0,0.0,0.0,0.0,0.0
1776450068583261718,55520,0.092,0.3,0.0,0.3,-0.02,0.0,2.56,-4.13,3.69,0.41,0.02,-0.37,-1.12,-0.19,0.0,165.84,200.0,0.0,0.0,0.0,0.0
1776450068681608260,55620,0.0,1.5,0.0,1.1,-0.02,-0.1,2.56,-4.13,3.63,0.29,0.06,-0.38,-0.44,0.5,-0.37,161.72,200.0,0.0,0.0,0.0,0.0
1776450068779846821,55719,0.084,0.2,0.0,1.2,-0.02,-0.14,2.56,-4.13,3.56,0.1,0.04,-0.34,-0.19,0.75,-0.19,166.36,191.0,0.0,0.0,0.0,0.0
1776450068882293747,55820,0.0,0.9,0.0,1.5,0.06,-0.16,2.56,-4.19,3.63,-0.03,0.03,-0.34,0.88,0.81,-0.12,163.44,195.0,0.0,0.0,0.0,0.0
1776450068984684284,55921,0.08,1.3,0.068,0.2,0.0,-0.25,2.56,-4.19,3.5,0.23,0.03,-0.35,0.69,-0.06,-0.06,166.36,195.0,0.0,0.0,0.0,0.0
1776450069082966125,56022,0.0,1.1,0.064,0.6,0.0,-0.12,2.56,-4.19,3.44,0.25,0.04,-0.34,-0.25,-0.06,-0.63,166.36,189.0,0.0,0.0,0.0,0.0
1776450069185383870,56122,0.0,1.4,0.076,0.1,0.1,0.02,2.44,-4.19,3.31,0.11,0.06,-0.41,1.19,0.56,-0.69,166.53,203.0,0.0,0.0,0.0,0.0
1776450069283685971,56221,0.0,0.0,0.0,1.2,0.0,-0.12,2.38,-4.19,3.31,0.06,0.02,-0.37,-0.19,0.44,-0.88,165.84,203.0,0.0,0.0,0.0,0.0
1776450069381953461,56321,0.0,0.1,0.0,1.6,0.08,-0.02,2.25,-4.25,3.31,0.19,0.01,-0.36,-0.31,-0.0,-1.12,170.64,183.0,0.0,0.0,0.0,0.0
1776450069484339668,56421,0.0,0.0,0.0,1.2,-0.06,-0.04,2.19,-4.25,3.25,0.1,0.05,-0.32,0.12,0.63,-1.31,166.36,202.0,0.0,0.0,0.0,0.0
1776450069582686676,56521,0.0,0.9,0.0,0.0,0.04,-0.12,2.06,-4.25,3.25,0.17,-0.0,-0.39,-0.0,0.25,-0.88,169.96,202.0,0.0,0.0,0.0,0.0
1776450069685117939,56621,0.0,1.4,0.0,1.1,-0.16,-0.08,2.0,-4.25,3.19,0.17,0.05,-0.36,-0.19,-0.12,-0.75,166.36,199.0,0.0,0.0,0.0,0.0
1776450069783386281,56721,0.088,0.0,0.0,1.0,-0.02,-0.06,1.94,-4.25,3.13,0.04,0.03,-0.35,0.12,-0.06,-0.75,165.84,199.0,0.0,0.0,0.0,0.0
1776450069885777229,56821,0.092,0.0,0.0,1.1,-0.04,-0.12,1.88,-4.25,3.13,0.17,0.03,-0.37,-0.5,-0.25,-0.81,165.84,204.0,0.0,0.0,0.0,0.0
1776450069984078904,56921,0.092,0.2,0.072,0.3,-0.14,0.0,1.81,-4.25,3.06,0.05,0.05,-0.34,-0.63,-0.25,-0.88,166.36,181.0,0.0,0.0,0.0,0.0
1776450070086480965,57021,0.084,0.2,0.0,1.6,0.02,0.06,1.75,-4.25,3.06,0.15,0.02,-0.37,-0.56,-0.12,-0.44,162.24,181.0,0.0,0.0,0.0,0.0
1776450070184767496,57121,0.092,0.3,0.0,1.7,0.08,-0.16,1.75,-4.25,3.0,0.2,0.04,-0.36,-0.19,-0.12,-0.69,166.36,206.0,0.0,0.0,0.0,0.0
1776450070287170521,57222,0.0,1.4,0.064,0.5,0.0,-0.2,1.69,-4.25,2.88,0.23,0.06,-0.34,0.12,-0.19,-1.0,166.36,192.0,0.0,0.0,0.0,0.0
1776450070385470847,57322,0.0,1.5,0.068,0.3,-0.08,-0.04,1.56,-4.25,2.88,0.12,0.06,-0.33,-0.25,-0.06,-0.69,166.36,192.0,0.0,0.0,0.0,0.0
1776450070483737359,57421,0.0,0.2,0.0,1.6,0.0,-0.14,1.5,-4.25,2.81,0.11,0.05,-0.31,0.12,-0.12,-0.44,170.64,187.0,0.0,0.0,0.0,0.0
1776450070586183791,57521,0.092,0.1,0.0,1.6,0.0,-0.16,1.5,-4.25,2.81,0.08,0.06,-0.35,-0.25,0.37,-0.12,170.47,211.0,0.0,0.0,0.0,0.0
1776450070684485877,57622,0.096,1.4,0.072,0.2,0.0,0.04,1.5,-4.19,2.81,0.05,0.06,-0.36,0.19,0.19,0.37,165.84,211.0,0.0,0.0,0.0,0.0
1776450070896213123,57721,0.0,0.6,0.072,0.6,-0.1,-0.04,1.56,-4.19,2.75,0.16,0.07,-0.35,0.06,-0.06,0.69,165.84,193.0,0.0,0.0,0.0,0.0
1776450070908811089,57822,0.0,1.0,0.056,0.6,0.02,-0.02,1.63,-4.19,2.69,0.19,0.05,-0.36,-0.37,-0.12,0.63,166.87,193.0,0.0,0.0,0.0,0.0
1776450070987564605,57923,0.084,0.2,0.068,0.5,-0.08,-0.02,1.69,-4.19,2.69,0.1,0.06,-0.38,-0.06,-0.19,0.5,165.84,197.0,0.0,0.0,0.0,0.0
1776450071085867934,58022,0.0,1.6,0.068,0.2,0.02,0.0,1.75,-4.19,2.69,0.11,0.09,-0.36,0.06,-0.12,0.94,165.84,196.0,0.0,0.0,0.0,0.0
1776450071188261426,58122,0.0,0.3,0.0,1.2,0.0,-0.23,1.88,-4.13,2.63,0.3,0.05,-0.36,-1.44,-0.31,1.56,166.36,196.0,0.0,0.0,0.0,0.0
1776450071286570940,58222,0.1,0.4,0.0,1.1,-0.04,-0.12,2.06,-4.13,2.31,0.29,0.14,-0.37,0.31,-0.0,2.38,166.36,199.0,0.0,0.0,0.0,0.0
1776450071384883788,58322,0.088,-0.1,0.056,0.2,-0.02,-0.08,2.25,-4.06,2.31,0.02,0.01,-0.36,0.25,0.31,2.25,166.53,209.0,0.0,0.0,0.0,0.0
1776450071487272224,58422,0.0,0.4,0.0,1.5,-0.06,-0.04,2.5,-4.06,2.38,-0.02,-0.0,-0.34,-0.37,0.12,1.94,166.36,209.0,0.0,0.0,0.0,0.0
1776450071585519775,58522,0.0,1.6,0.072,0.0,0.02,-0.06,2.69,-4.06,2.38,0.09,0.07,-0.35,0.12,0.06,1.63,165.84,216.0,0.0,0.0,0.0,0.0
1776450071683818568,58621,0.088,0.1,0.068,0.4,0.1,-0.08,2.81,-4.0,2.38,-0.01,0.03,-0.36,1.0,0.19,1.0,166.36,206.0,0.0,0.0,0.0,0.0
1776450071786255355,58722,0.0,0.6,0.06,0.0,-0.06,-0.02,2.88,-4.0,2.44,-0.13,0.01,-0.43,0.06,0.12,0.94,166.36,206.0,0.0,0.0,0.0,0.0
1776450071894620154,58822,0.0,0.4,0.068,0.2,-0.06,-0.08,2.94,-4.0,2.5,0.03,0.02,-0.37,-0.81,-0.25,0.37,166.36,200.0,0.0,0.0,0.0,0.0
1776450071986977583,58923,0.0,1.3,0.072,0.5,-0.04,-0.18,2.94,-4.0,2.38,0.21,0.09,-0.36,0.06,-0.0,0.25,166.53,200.0,0.0,0.0,0.0,0.0
1776450072280219915,59024,0.0,1.4,0.0,1.1,0.0,-0.12,2.94,-4.0,2.31,0.15,0.06,-0.36,0.19,0.12,0.19,166.36,200.0,0.0,0.0,0.0,0.0
1776450072292955826,59123,0.092,0.1,0.0,1.2,0.06,0.02,2.94,-4.0,2.31,-0.06,0.06,-0.34,1.37,0.63,0.12,166.53,210.0,0.0,0.0,0.0,0.0
1776450072305314330,59223,0.088,0.2,0.0,1.5,-0.1,-0.02,2.94,-4.0,2.25,0.44,0.02,-0.38,-0.69,-0.81,-0.12,166.53,210.0,0.0,0.0,0.0,0.0
1776450072388361328,59323,0.092,0.4,0.0,0.2,0.08,-0.06,2.88,-3.94,2.19,0.22,0.06,-0.37,0.19,0.19,-0.75,165.84,194.0,0.0,0.0,0.0,0.0
1776450072486617827,59423,0.0,1.0,0.064,0.3,0.06,0.0,2.81,-3.94,2.19,0.07,0.06,-0.37,0.56,0.06,-0.56,166.36,189.0,0.0,0.0,0.0,0.0
1776450072589027173,59524,0.096,0.0,0.0,1.6,-0.04,-0.06,2.75,-3.94,2.25,-0.06,-0.0,-0.37,0.19,0.31,-0.69,166.36,189.0,0.0,0.0,0.0,0.0
1776450072687344987,59624,0.084,0.1,0.0,0.1,0.08,-0.18,2.75,-3.94,2.38,-0.19,0.03,-0.3,0.75,0.5,-0.56,165.84,209.0,0.0,0.0,0.0,0.0
1776450072980217375,59724,0.0,1.1,0.0,1.0,0.06,-0.14,2.75,-3.94,2.31,0.2,0.09,-0.34,0.69,-0.25,-0.44,165.84,209.0,0.0,0.0,0.0,0.0
1776450072996265153,59825,0.088,0.0,0.0,1.4,0.04,-0.1,2.63,-3.94,2.19,0.28,0.06,-0.37,0.31,-0.37,-0.94,165.84,209.0,0.0,0.0,0.0,0.0
1776450073010810118,59925,0.1,0.2,0.0,1.5,0.12,0.08,2.56,-3.88,2.13,0.1,0.08,-0.38,0.88,0.19,-0.88,170.47,196.0,0.0,0.0,0.0,0.0
1776450073088729031,60024,0.096,-0.1,0.068,0.3,0.0,0.06,2.5,-3.88,2.13,0.04,0.04,-0.36,0.25,0.06,-0.75,166.53,190.0,0.0,0.0,0.0,0.0
1776450073191148177,60124,0.0,1.6,0.076,1.0,0.12,-0.02,2.38,-3.88,2.13,0.06,0.08,-0.38,0.31,-0.12,-0.75,165.84,190.0,0.0,0.0,0.0,0.0
1776450073289427215,60224,0.0,0.5,0.056,0.6,0.06,-0.04,2.31,-3.88,2.19,0.05,0.01,-0.34,-0.37,-0.0,-0.56,165.84,191.0,0.0,0.0,0.0,0.0
1776450073387745773,60323,0.0,1.1,0.068,0.3,0.04,-0.33,2.31,-3.88,2.13,0.25,0.07,-0.35,-0.31,-0.12,-0.63,165.84,191.0,0.0,0.0,0.0,0.0
1776450073490148677,60423,0.0,1.2,0.0,0.5,0.02,-0.06,2.19,-3.88,2.0,0.19,0.07,-0.34,-0.0,0.25,-1.12,165.84,191.0,0.0,0.0,0.0,0.0
1776450073588401327,60523,0.08,0.0,0.056,0.4,0.0,-0.1,2.13,-3.88,1.94,0.15,0.06,-0.36,0.44,0.25,-1.44,165.67,173.0,0.0,0.0,0.0,0.0
1776450073686751607,60622,0.0,1.2,0.072,0.7,-0.08,0.04,2.0,-3.88,1.88,0.24,0.06,-0.35,-0.06,-0.19,-1.56,161.72,173.0,0.0,0.0,0.0,0.0
1776450073789124530,60722,0.0,1.0,0.0,0.3,0.02,-0.06,1.81,-3.81,1.81,0.09,0.07,-0.39,1.12,0.63,-1.75,165.84,199.0,0.0,0.0,0.0,0.0
1776450073887430587,60823,0.0,1.5,0.072,0.0,-0.1,-0.04,1.63,-3.88,1.94,-0.06,0.05,-0.38,0.81,0.75,-1.44,165.84,209.0,0.0,0.0,0.0,0.0
1776450073985713107,60922,0.0,0.6,0.076,0.2,0.0,-0.1,1.56,-3.94,1.94,0.04,0.05,-0.34,0.06,0.12,-1.12,165.33,209.0,0.0,0.0,0.0,0.0
1776450074088125681,61022,0.0,0.7,0.064,0.3,-0.12,0.0,1.44,-3.94,1.94,0.09,0.06,-0.42,0.44,0.56,-1.0,165.15,187.0,0.0,0.0,0.0,0.0
1776450074186420982,61122,0.0,0.9,0.072,0.4,-0.02,-0.14,1.31,-4.0,1.94,0.09,0.05,-0.42,-0.0,0.5,-0.81,165.15,187.0,0.0,0.0,0.0,0.0
1776450074288822556,61222,0.0,0.9,0.072,0.3,-0.16,-0.04,1.31,-4.0,1.94,0.12,0.04,-0.39,0.19,0.5,-0.5,165.84,201.0,0.0,0.0,0.0,0.0
1776450074387110597,61322,0.0,0.3,0.08,0.2,0.0,-0.18,1.31,-4.0,1.94,0.04,0.02,-0.32,0.25,0.56,-0.5,161.72,198.0,0.0,0.0,0.0,0.0
1776450074489469134,61422,0.0,1.5,0.068,0.3,-0.12,-0.06,1.31,-4.0,1.94,0.07,0.06,-0.41,0.75,0.25,-0.19,161.72,198.0,0.0,0.0,0.0,0.0
1776450074587810361,61521,0.0,1.4,0.064,0.5,0.04,-0.12,1.31,-4.06,2.0,0.01,0.03,-0.4,0.75,0.56,-0.06,161.55,198.0,0.0,0.0,0.0,0.0
1776450074686120736,61621,0.092,0.9,0.06,0.4,-0.08,-0.08,1.31,-4.06,1.94,0.11,0.04,-0.41,0.25,0.12,0.25,161.72,183.0,0.0,0.0,0.0,0.0
1776450074788524476,61721,0.0,0.8,0.0,1.7,-0.02,-0.08,1.31,-4.06,2.0,0.05,-0.03,-0.38,-0.06,0.44,0.12,165.84,183.0,0.0,0.0,0.0,0.0
1776450074886830684,61820,0.096,0.2,0.068,0.6,0.06,-0.12,1.31,-4.06,2.0,0.05,0.06,-0.38,0.63,0.56,0.63,166.01,196.0,0.0,0.0,0.0,0.0
1776450074989207796,61921,0.0,1.1,0.068,0.5,-0.2,0.06,1.37,-4.13,2.06,0.01,-0.0,-0.37,0.31,0.63,0.63,166.36,208.0,0.0,0.0,0.0,0.0
1776450075087525987,62021,0.1,0.3,0.0,1.4,0.12,0.08,1.44,-4.13,2.06,0.24,0.05,-0.4,-0.5,-0.19,1.19,166.36,208.0,0.0,0.0,0.0,0.0
1776450075185787828,62121,0.092,0.3,0.0,0.2,0.16,0.04,1.56,-4.13,1.94,0.19,0.07,-0.41,0.06,0.75,1.44,166.36,189.0,0.0,0.0,0.0,0.0
1776450075288210645,62221,0.0,1.1,0.064,0.5,0.08,-0.18,1.75,-4.19,2.0,0.08,0.01,-0.38,0.37,1.12,1.44,166.36,224.0,0.0,0.0,0.0,0.0
1776450075386478152,62322,0.0,1.3,0.056,0.2,0.02,-0.14,1.94,-4.25,2.0,0.15,0.02,-0.37,0.12,0.19,1.81,171.16,224.0,0.0,0.0,0.0,0.0
1776450075488874526,62422,0.092,0.2,0.0,0.4,0.08,-0.06,2.06,-4.19,1.94,0.27,0.06,-0.38,0.37,0.44,1.69,166.36,197.0,0.0,0.0,0.0,0.0
1776450075587151662,62522,0.0,1.0,0.0,1.7,0.02,-0.12,2.19,-4.25,1.88,0.14,0.05,-0.41,1.12,1.25,1.5,166.36,197.0,0.0,0.0,0.0,0.0
1776450075689650461,62622,0.088,0.6,0.0,1.5,0.0,0.0,2.38,-4.38,2.0,0.0,0.02,-0.38,1.37,1.37,1.63,171.16,197.0,0.0,0.0,0.0,0.0
1776450076060220515,62722,0.088,0.2,0.0,1.6,0.14,0.02,2.5,-4.44,2.19,-0.08,-0.0,-0.4,1.25,1.19,1.12,166.87,202.0,0.0,0.0,0.0,0.0
1776450076086873561,62822,0.088,1.4,0.072,0.3,0.14,-0.04,2.56,-4.56,2.31,-0.03,-0.0,-0.39,0.31,0.37,0.37,167.04,202.0,0.0,0.0,0.0,0.0
1776450076099878715,62922,0.0,0.3,0.0,1.3,0.1,-0.12,2.56,-4.56,2.38,-0.06,-0.01,-0.4,0.75,0.56,0.06,167.04,209.0,0.0,0.0,0.0,0.0
1776450076112181054,63022,0.0,1.3,0.064,0.3,0.06,-0.12,2.56,-4.56,2.38,0.16,0.01,-0.39,-0.31,-0.19,0.25,166.36,194.0,0.0,0.0,0.0,0.0
1776450076189308567,63122,0.0,1.2,0.068,0.1,-0.12,-0.18,2.56,-4.56,2.31,0.16,0.09,-0.38,1.0,0.31,-0.06,166.36,194.0,0.0,0.0,0.0,0.0
1776450076291700128,63223,0.0,1.0,0.072,0.3,0.04,-0.08,2.5,-4.56,2.25,0.16,0.05,-0.4,0.69,0.75,0.12,166.36,197.0,0.0,0.0,0.0,0.0
1776450076390041378,63323,0.0,1.2,0.076,0.4,0.1,-0.12,2.5,-4.56,2.19,0.29,0.04,-0.37,0.19,0.31,0.19,166.36,214.0,0.0,0.0,0.0,0.0
1776450076492367532,63424,0.0,1.2,0.0,1.1,0.0,-0.04,2.5,-4.56,2.13,0.16,0.09,-0.43,1.81,1.0,0.44,166.53,214.0,0.0,0.0,0.0,0.0
1776450076590693004,63523,0.092,0.0,0.0,1.1,-0.02,-0.06,2.5,-4.75,2.31,-0.1,-0.01,-0.46,1.88,1.63,0.06,165.84,196.0,0.0,0.0,0.0,0.0
1776450076688952773,63623,0.0,0.1,0.0,1.6,-0.08,-0.1,2.5,-4.94,2.69,-0.33,-0.06,-0.38,0.75,1.56,0.44,161.72,196.0,0.0,0.0,0.0,0.0
1776450076791409112,63723,0.108,0.3,0.084,0.4,0.1,-0.02,2.56,-5.0,2.69,0.11,-0.02,-0.36,-0.69,-0.31,0.75,165.84,189.0,0.0,0.0,0.0,0.0
1776450076889700029,63822,0.0,0.9,0.088,0.3,-0.08,-0.06,2.63,-5.0,2.69,0.21,0.05,-0.37,-0.44,0.19,0.25,161.72,204.0,0.0,0.0,0.0,0.0
1776450076987971779,63922,0.0,0.7,0.0,1.3,0.16,-0.02,2.63,-5.0,2.56,0.17,0.08,-0.34,1.5,0.5,0.37,165.84,204.0,0.0,0.0,0.0,0.0
1776450077090392879,64022,0.0,1.0,0.068,0.2,0.1,0.0,2.63,-5.0,2.56,0.25,0.07,-0.35,1.12,0.19,-0.12,165.33,200.0,0.0,0.0,0.0,0.0
1776450077188727928,64121,0.0,0.6,0.064,0.3,-0.04,-0.04,2.56,-5.0,2.44,0.34,0.09,-0.44,0.75,-0.06,-0.69,166.36,196.0,0.0,0.0,0.0,0.0
1776450077291100566,64222,0.1,0.8,0.0,1.2,0.08,-0.04,2.44,-5.06,2.56,0.06,0.07,-0.35,1.25,1.31,-1.44,161.21,196.0,0.0,0.0,0.0,0.0
1776450077389357986,64322,0.108,0.2,0.0,1.2,-0.02,-0.1,2.31,-5.19,2.69,-0.07,0.01,-0.37,1.19,1.19,-0.88,161.04,206.0,0.0,0.0,0.0,0.0
1776450077487642312,64421,0.0,0.6,0.076,0.3,-0.14,-0.08,2.25,-5.25,2.69,0.18,0.03,-0.41,-0.06,0.06,-0.56,165.33,204.0,0.0,0.0,0.0,0.0
1776450077590095950,64522,0.0,0.2,0.0,1.7,-0.02,0.02,2.19,-5.25,2.56,0.27,0.11,-0.44,0.37,-0.12,-1.19,165.33,204.0,0.0,0.0,0.0,0.0
1776450077688370092,64622,0.096,0.2,0.092,0.2,-0.08,-0.23,2.06,-5.31,2.75,-0.21,0.04,-0.31,1.75,1.81,-1.0,164.64,202.0,0.0,0.0,0.0,0.0
1776450077796736538,64721,0.0,1.0,0.1,0.5,0.02,-0.08,2.06,-5.44,2.88,-0.06,-0.01,-0.4,-0.0,-0.0,-0.12,164.64,202.0,0.0,0.0,0.0,0.0
1776450077889079649,64821,0.0,0.4,0.0,1.1,0.1,-0.23,2.06,-5.44,2.88,0.02,0.04,-0.41,0.06,-0.19,-0.69,164.64,195.0,0.0,0.0,0.0,0.0
1776450077987386679,64921,0.0,0.2,0.0,1.4,0.02,0.04,2.0,-5.44,2.88,0.06,0.04,-0.35,-0.5,0.19,-0.75,168.76,203.0,0.0,0.0,0.0,0.0
1776450078089853856,65020,0.092,0.2,0.0,1.5,0.04,-0.14,1.88,-5.44,2.81,0.02,0.09,-0.38,0.81,0.37,-0.81,168.76,203.0,0.0,0.0,0.0,0.0
1776450078188019926,65121,0.0,1.4,0.088,0.3,-0.1,-0.06,1.81,-5.44,2.81,0.14,0.01,-0.38,-0.37,-0.12,-0.75,164.64,183.0,0.0,0.0,0.0,0.0
1776450078290493529,65221,0.0,1.1,0.088,0.3,0.21,-0.16,1.75,-5.44,2.75,0.16,0.09,-0.37,0.31,-0.0,-1.06,169.79,199.0,0.0,0.0,0.0,0.0
1776450078388813266,65321,0.0,0.1,0.0,0.9,-0.06,-0.14,1.63,-5.44,2.69,0.1,0.08,-0.35,-0.06,0.25,-0.94,165.15,199.0,0.0,0.0,0.0,0.0
1776450078491157202,65421,0.0,0.9,0.092,0.4,-0.14,0.04,1.56,-5.44,2.69,0.03,0.03,-0.37,0.06,0.5,-0.88,165.15,186.0,0.0,0.0,0.0,0.0
1776450078589443994,65521,0.0,0.7,0.0,1.6,-0.02,0.1,1.5,-5.44,2.63,0.1,0.07,-0.37,0.56,0.06,-0.63,161.21,208.0,0.0,0.0,0.0,0.0
1776450078687770490,65620,0.088,0.3,0.084,0.1,0.0,-0.06,1.44,-5.38,2.56,0.11,0.06,-0.38,0.06,0.25,-0.69,161.04,208.0,0.0,0.0,0.0,0.0
1776450078796116865,65720,0.0,1.2,0.0,1.1,0.02,-0.12,1.37,-5.44,2.56,0.11,0.05,-0.37,-0.06,0.44,-0.37,165.33,203.0,0.0,0.0,0.0,0.0
1776450078888479312,65819,0.0,0.6,0.096,0.1,-0.04,-0.08,1.37,-5.44,2.56,0.1,0.08,-0.35,0.44,0.06,-0.12,165.33,203.0,0.0,0.0,0.0,0.0
1776450079252218015,65918,0.0,1.4,0.084,0.2,0.0,-0.06,1.37,-5.38,2.5,0.14,0.04,-0.38,0.37,0.12,0.12,161.55,190.0,0.0,0.0,0.0,0.0
1776450079289876646,66019,0.0,1.3,0.084,0.5,0.12,-0.04,1.37,-5.44,2.5,0.02,0.06,-0.36,0.56,0.56,0.56,161.55,189.0,0.0,0.0,0.0,0.0
1776450079298236749,66120,0.0,1.5,0.084,0.6,-0.02,-0.06,1.5,-5.44,2.56,0.04,0.02,-0.36,-0.12,0.31,1.31,161.72,189.0,0.0,0.0,0.0,0.0
1776450079302139671,66220,0.0,0.9,0.088,0.3,0.02,-0.04,1.56,-5.44,2.56,0.15,-0.0,-0.38,-0.5,-0.19,1.0,161.72,181.0,0.0,0.0,0.0,0.0
1776450079388171755,66321,0.0,0.1,0.0,1.5,0.02,-0.04,1.69,-5.44,2.56,0.17,0.1,-0.41,0.31,0.12,1.06,161.72,204.0,0.0,0.0,0.0,0.0
1776450079490529305,66420,0.0,1.3,0.076,0.2,-0.04,0.02,1.81,-5.44,2.56,0.15,0.02,-0.35,-0.12,0.25,1.37,161.55,204.0,0.0,0.0,0.0,0.0
1776450079588857896,66520,0.08,0.3,0.0,1.2,0.1,-0.04,1.94,-5.44,2.5,0.16,0.05,-0.38,0.31,0.31,1.56,165.84,205.0,0.0,0.0,0.0,0.0
1776450079687124802,66620,0.096,0.2,0.0,0.6,-0.14,-0.2,2.13,-5.44,2.56,0.02,0.03,-0.36,0.81,0.69,1.88,165.84,192.0,0.0,0.0,0.0,0.0
1776450079789563722,66719,0.0,1.1,0.0,1.4,0.04,-0.12,2.31,-5.44,2.56,0.22,0.03,-0.37,-0.44,-0.12,1.69,166.36,192.0,0.0,0.0,0.0,0.0
1776450079887889442,66819,0.0,1.0,0.0,1.4,0.04,-0.02,2.44,-5.44,2.56,0.16,0.03,-0.38,0.56,0.44,1.19,166.53,194.0,0.0,0.0,0.0,0.0
1776450079990268307,66919,0.088,0.1,0.0,1.6,0.02,-0.14,2.5,-5.44,2.56,0.14,0.05,-0.37,0.63,0.25,1.19,165.84,194.0,0.0,0.0,0.0,0.0
1776450080088554622,67019,0.0,0.5,0.0,1.2,-0.02,-0.06,2.63,-5.44,2.63,0.0,0.09,-0.37,2.0,0.81,1.19,166.53,205.0,0.0,0.0,0.0,0.0
1776450080190950878,67119,0.0,0.8,0.096,1.6,-0.04,-0.04,2.75,-5.5,2.81,-0.03,-0.0,-0.38,0.88,0.94,1.5,165.84,198.0,0.0,0.0,0.0,0.0
1776450080289259897,67220,0.0,1.1,0.1,0.2,-0.04,-0.12,2.94,-5.5,2.88,-0.03,0.03,-0.39,1.19,0.44,1.63,161.55,198.0,0.0,0.0,0.0,0.0
1776450080387532361,67320,0.0,1.3,0.0,1.0,-0.04,-0.06,3.06,-5.5,2.88,0.16,0.03,-0.35,0.06,0.12,1.56,165.84,214.0,0.0,0.0,0.0,0.0
1776450080489920394,67420,0.0,0.2,0.0,1.8,0.06,0.0,3.19,-5.5,2.88,0.1,0.06,-0.38,1.5,0.5,1.31,161.72,199.0,0.0,0.0,0.0,0.0
1776450080592350873,67521,0.0,1.3,0.072,0.5,0.02,-0.12,3.31,-5.56,3.06,0.06,0.02,-0.4,0.44,-0.0,0.81,165.84,199.0,0.0,0.0,0.0,0.0
1776450080690654669,67620,0.0,0.9,0.0,1.6,-0.1,-0.02,3.38,-5.56,3.19,-0.1,-0.01,-0.3,0.94,0.5,0.37,165.84,217.0,0.0,0.0,0.0,0.0
1776450080793053944,67721,0.0,1.1,0.0,0.9,0.02,-0.04,3.38,-5.56,3.19,0.22,0.02,-0.41,-0.37,-0.5,0.0,165.84,197.0,0.0,0.0,0.0,0.0
1776450080891347592,67821,0.0,0.6,0.0,1.5,0.02,0.02,3.38,-5.56,3.19,0.1,0.06,-0.27,1.12,0.44,-0.5,165.84,197.0,0.0,0.0,0.0,0.0
1776450081020219898,67920,0.088,0.2,0.0,0.9,0.08,-0.14,3.31,-5.56,3.19,0.16,0.02,-0.36,1.25,-0.0,-0.37,165.33,208.0,0.0,0.0,0.0,0.0
1776450081092055758,68020,0.0,0.6,0.0,1.5,-0.12,-0.16,3.25,-5.56,3.13,0.21,0.06,-0.37,1.0,-0.0,-0.63,165.33,208.0,0.0,0.0,0.0,0.0
1776450081190347242,68120,0.092,0.1,0.0,1.8,0.1,-0.06,3.19,-5.56,3.19,0.14,0.01,-0.32,0.69,0.25,-0.88,161.04,189.0,0.0,0.0,0.0,0.0
1776450081288618449,68219,0.0,1.4,0.076,0.4,0.06,-0.02,3.06,-5.56,3.06,0.38,0.03,-0.39,-0.37,-0.94,-1.5,161.04,192.0,0.0,0.0,0.0,0.0
1776450081391002577,68319,0.088,0.3,0.0,1.2,-0.02,-0.04,2.88,-5.5,2.94,0.31,0.08,-0.35,0.94,-0.0,-2.19,161.04,192.0,0.0,0.0,0.0,0.0
1776450081489315173,68419,0.096,0.3,0.0,1.0,-0.08,-0.06,2.69,-5.5,3.06,-0.06,0.08,-0.37,3.56,0.94,-1.44,165.15,196.0,0.0,0.0,0.0,0.0
1776450081587622323,68518,0.1,-0.2,0.0,1.1,0.0,-0.12,2.63,-5.63,3.38,-0.19,-0.01,-0.37,1.5,0.75,-0.5,164.64,186.0,0.0,0.0,0.0,0.0
1776450081690081322,68618,0.092,0.6,0.088,0.3,-0.06,0.16,2.63,-5.63,3.44,0.03,0.01,-0.37,0.06,-0.56,-0.75,165.15,186.0,0.0,0.0,0.0,0.0
1776450081788358955,68718,0.0,0.1,0.0,1.3,0.06,-0.06,2.5,-5.63,3.44,0.21,0.08,-0.36,-0.31,-0.44,-1.19,165.33,196.0,0.0,0.0,0.0,0.0
1776450081886657531,68817,0.0,1.2,0.0,1.2,0.02,-0.1,2.38,-5.63,3.38,0.19,0.12,-0.34,0.75,0.25,-1.06,165.15,198.0,0.0,0.0,0.0,0.0
1776450081989068030,68917,0.096,0.3,0.0,0.4,-0.08,-0.08,2.31,-5.63,3.38,0.18,0.07,-0.4,0.44,0.31,-0.44,165.15,198.0,0.0,0.0,0.0,0.0
1776450082087338979,69017,0.0,0.9,0.072,0.4,0.1,0.04,2.31,-5.63,3.44,0.11,0.07,-0.39,0.63,0.63,0.25,166.18,188.0,0.0,0.0,0.0,0.0
1776450082189761573,69117,0.0,0.9,0.104,0.5,-0.06,0.18,2.31,-5.75,3.56,-0.04,0.05,-0.35,1.63,1.19,0.63,165.15,188.0,0.0,0.0,0.0,0.0
1776450082287981467,69218,0.0,0.3,0.0,0.0,-0.04,-0.02,2.38,-5.81,3.63,0.24,0.04,-0.37,-0.56,-0.31,0.37,161.04,214.0,0.0,0.0,0.0,0.0
1776450082390528023,69319,0.0,1.3,0.092,0.1,-0.02,-0.08,2.31,-5.88,3.69,-0.02,0.04,-0.33,1.56,1.31,-0.37,165.15,193.0,0.0,0.0,0.0,0.0
1776450082488730417,69419,0.0,1.2,0.104,0.2,0.06,-0.04,2.31,-5.94,3.81,-0.11,-0.0,-0.36,1.37,0.81,-0.19,165.33,193.0,0.0,0.0,0.0,0.0
1776450082608210977,69519,0.0,0.1,0.0,1.1,-0.04,-0.16,2.31,-6.0,3.81,0.17,0.06,-0.38,-0.19,-0.25,-0.31,165.15,190.0,0.0,0.0,0.0,0.0
1776450082689429293,69619,0.0,1.0,0.084,0.2,-0.06,-0.12,2.31,-6.0,3.81,0.11,0.09,-0.36,0.12,0.31,-0.44,161.04,187.0,0.0,0.0,0.0,0.0
1776450082964218677,69720,0.0,0.9,0.076,0.0,-0.02,-0.04,2.31,-6.0,3.81,0.04,0.12,-0.43,1.25,0.75,0.06,161.04,187.0,0.0,0.0,0.0,0.0
1776450082992568059,69820,0.0,0.3,0.0,0.2,0.02,-0.16,2.31,-6.06,3.88,0.01,-0.02,-0.41,-0.44,0.19,0.25,161.04,200.0,0.0,0.0,0.0,0.0
1776450083006750528,69920,0.0,1.1,0.0,1.6,0.0,-0.12,2.31,-6.06,3.88,0.03,0.1,-0.4,0.5,0.12,-0.12,161.04,193.0,0.0,0.0,0.0,0.0
1776450083090800992,70020,0.096,0.2,0.0,1.5,-0.02,-0.14,2.31,-6.06,3.94,0.09,0.03,-0.39,-0.25,0.25,0.12,166.36,193.0,0.0,0.0,0.0,0.0
1776450083193206347,70121,0.0,1.2,0.064,0.4,-0.04,-0.21,2.31,-6.0,3.75,0.36,0.12,-0.34,0.5,-0.19,0.06,165.33,209.0,0.0,0.0,0.0,0.0
1776450083291512206,70221,0.0,1.3,0.096,0.5,0.06,-0.12,2.31,-6.0,3.69,0.08,0.06,-0.37,-0.0,0.56,0.19,165.33,209.0,0.0,0.0,0.0,0.0
1776450083393941024,70321,0.0,0.6,0.0,1.6,0.0,-0.02,2.38,-6.0,3.56,0.25,0.11,-0.37,0.37,-0.19,0.81,164.64,203.0,0.0,0.0,0.0,0.0
1776450083492175901,70422,0.088,0.1,0.0,0.2,0.12,0.02,2.38,-5.94,3.5,0.24,0.1,-0.38,0.12,0.25,0.69,164.64,198.0,0.0,0.0,0.0,0.0
1776450083594644460,70521,0.0,1.7,0.0,1.2,0.02,-0.02,2.44,-6.0,3.5,-0.06,0.04,-0.32,-0.0,0.37,0.63,164.64,198.0,0.0,0.0,0.0,0.0
1776450083692909356,70621,0.1,0.2,0.0,1.1,-0.06,-0.06,2.56,-6.0,3.5,0.0,0.04,-0.37,-0.0,-0.06,0.88,164.64,202.0,0.0,0.0,0.0,0.0
1776450083791173640,70721,0.104,0.5,0.084,0.2,-0.02,-0.04,2.56,-6.0,3.5,0.11,0.05,-0.39,-0.31,-0.31,0.5,164.64,189.0,0.0,0.0,0.0,0.0
1776450083893598403,70821,0.0,0.9,0.092,0.5,-0.16,-0.06,2.56,-5.94,3.5,0.04,0.05,-0.38,-0.44,-0.12,0.12,164.64,189.0,0.0,0.0,0.0,0.0
1776450083991878613,70921,0.0,1.4,0.0,1.2,0.04,0.04,2.56,-5.94,3.5,0.03,-0.0,-0.37,-0.5,-0.19,-0.12,164.64,203.0,0.0,0.0,0.0,0.0
1776450084094305711,71021,0.1,0.3,0.088,0.1,-0.06,-0.1,2.56,-5.94,3.44,0.03,0.09,-0.4,-0.19,-0.31,-0.12,164.64,196.0,0.0,0.0,0.0,0.0
1776450084192615016,71121,0.0,0.7,0.0,1.4,-0.08,0.0,2.56,-5.94,3.38,0.18,0.11,-0.37,-0.25,-0.5,-0.19,165.67,196.0,0.0,0.0,0.0,0.0
1776450084294996318,71222,0.096,0.3,0.0,1.3,-0.04,-0.02,2.56,-5.94,3.31,0.1,0.1,-0.37,0.31,-0.06,0.19,164.64,198.0,0.0,0.0,0.0,0.0
1776450084397428545,71323,0.088,0.2,0.0,1.4,-0.12,-0.2,2.56,-5.94,3.25,0.28,0.07,-0.34,-1.06,-0.44,0.31,164.64,185.0,0.0,0.0,0.0,0.0
1776450084495658332,71424,0.0,1.7,0.092,1.2,-0.08,-0.14,2.56,-5.88,3.13,0.12,0.13,-0.36,0.37,-0.25,0.31,164.64,185.0,0.0,0.0,0.0,0.0
1776450084598091115,71524,0.092,0.4,0.0,1.1,0.02,-0.18,2.56,-5.81,3.06,0.18,0.11,-0.41,-0.75,-0.37,0.19,164.64,211.0,0.0,0.0,0.0,0.0
1776450084696397494,71624,0.0,0.2,0.0,1.7,0.04,-0.21,2.56,-5.81,3.06,-0.03,0.08,-0.38,0.56,-0.25,-0.31,164.64,211.0,0.0,0.0,0.0,0.0
1776450084798823666,71725,0.092,0.3,0.0,1.6,0.02,-0.1,2.56,-5.75,3.0,0.14,0.11,-0.34,-0.19,-0.88,-0.56,164.64,206.0,0.0,0.0,0.0,0.0
1776450084897095045,71826,0.088,0.4,0.06,0.5,-0.14,-0.04,2.5,-5.69,2.88,0.18,0.12,-0.37,0.31,-0.69,-0.88,165.15,197.0,0.0,0.0,0.0,0.0
1776450084999500495,71925,0.084,1.1,0.0,1.4,0.02,-0.16,2.38,-5.63,2.88,0.05,0.07,-0.35,0.31,-0.56,-1.5,161.04,197.0,0.0,0.0,0.0,0.0
1776450085097798524,72025,0.0,1.3,0.0,1.1,0.08,-0.1,2.19,-5.5,2.69,0.42,0.11,-0.39,-1.44,-1.19,-2.06,165.15,180.0,0.0,0.0,0.0,0.0
1776450085200221031,72126,0.092,0.2,0.0,1.4,-0.04,-0.23,2.0,-5.44,2.56,0.0,0.12,-0.37,1.44,-0.63,-1.63,165.33,194.0,0.0,0.0,0.0,0.0
1776450085298517246,72225,0.088,0.4,0.0,1.2,-0.04,-0.08,1.88,-5.31,2.56,0.18,0.1,-0.36,-0.37,-0.75,-0.75,162.75,194.0,0.0,0.0,0.0,0.0
1776450085400897364,72326,0.0,0.7,0.0,1.7,-0.04,-0.04,1.88,-5.25,2.56,0.06,0.11,-0.37,0.37,-0.5,0.25,161.72,199.0,0.0,0.0,0.0,0.0
1776450085499171004,72426,0.0,1.2,0.0,1.2,-0.04,-0.16,1.88,-5.19,2.5,0.1,0.09,-0.39,0.12,-0.75,0.5,161.55,189.0,0.0,0.0,0.0,0.0
1776450085597501219,72525,0.088,0.0,0.0,0.9,0.0,-0.18,1.88,-5.13,2.56,0.04,0.11,-0.35,0.19,-0.56,0.31,161.55,189.0,0.0,0.0,0.0,0.0
1776450085699953726,72625,0.096,0.1,0.0,1.1,-0.04,0.04,1.88,-5.06,2.56,0.17,0.14,-0.4,-0.12,-1.0,0.12,161.55,212.0,0.0,0.0,0.0,0.0
1776450085798194533,72726,0.0,0.9,0.064,0.5,0.06,-0.16,1.88,-4.94,2.56,0.03,0.14,-0.43,0.69,-0.69,0.19,165.84,212.0,0.0,0.0,0.0,0.0
1776450085900588874,72825,0.0,0.9,0.0,1.6,-0.12,0.02,1.88,-4.94,2.69,-0.12,0.09,-0.37,0.19,-0.19,-0.06,165.84,193.0,0.0,0.0,0.0,0.0
1776450085998869995,72925,0.092,0.0,0.076,0.2,0.04,-0.06,1.88,-4.94,2.69,0.01,0.09,-0.39,0.19,-0.25,0.06,165.84,192.0,0.0,0.0,0.0,0.0
1776450086097202786,73025,0.0,1.3,0.0,0.2,-0.06,0.12,1.88,-4.88,2.63,0.29,0.15,-0.32,-0.94,-0.81,-0.94,165.84,192.0,0.0,0.0,0.0,0.0
1776450086199591424,73124,0.0,1.0,0.064,0.5,0.04,-0.08,1.75,-4.81,2.44,0.2,0.13,-0.39,0.44,-0.31,-1.06,166.01,197.0,0.0,0.0,0.0,0.0
1776450086297878863,73225,0.0,1.2,0.052,0.2,0.25,-0.06,1.63,-4.75,2.38,0.14,0.1,-0.38,0.37,-0.25,-0.94,165.84,186.0,0.0,0.0,0.0,0.0
1776450086400335113,73325,0.088,0.2,0.068,0.8,-0.08,0.0,1.56,-4.69,2.31,0.09,0.12,-0.39,0.56,-0.56,-0.69,165.84,186.0,0.0,0.0,0.0,0.0
1776450086498534107,73424,0.088,0.2,0.0,1.6,0.06,0.02,1.5,-4.69,2.5,-0.12,0.1,-0.31,0.25,-0.06,-0.63,165.84,204.0,0.0,0.0,0.0,0.0
1776450086596809305,73524,0.092,0.0,0.0,1.4,0.04,0.06,1.5,-4.69,2.5,-0.14,0.12,-0.36,1.75,0.19,0.12,165.84,190.0,0.0,0.0,0.0,0.0
1776450086699282647,73625,0.0,1.3,0.072,0.3,-0.06,0.02,1.5,-4.63,2.63,-0.05,0.1,-0.4,0.12,0.06,0.81,165.84,190.0,0.0,0.0,0.0,0.0
1776450086797574790,73724,0.0,0.6,0.0,1.4,0.1,-0.04,1.63,-4.63,2.69,-0.14,0.07,-0.39,0.75,0.37,0.75,165.67,199.0,0.0,0.0,0.0,0.0
1776450086899964354,73825,0.0,1.4,0.068,0.2,-0.04,-0.12,1.63,-4.63,2.69,0.24,0.08,-0.34,-0.69,-0.63,0.63,165.84,189.0,0.0,0.0,0.0,0.0
1776450086998243645,73926,0.0,0.2,0.0,1.1,0.0,-0.18,1.69,-4.5,2.44,0.3,0.18,-0.33,0.81,0.19,0.56,165.84,189.0,0.0,0.0,0.0,0.0
1776450087100676859,74025,0.092,0.2,0.0,0.3,0.06,-0.16,1.69,-4.44,2.5,-0.06,0.15,-0.35,2.63,1.06,0.88,165.33,195.0,0.0,0.0,0.0,0.0
1776450087198971188,74125,0.088,0.3,0.068,0.1,0.02,0.06,1.81,-4.5,2.56,0.08,0.02,-0.36,-0.69,-0.12,1.0,165.84,195.0,0.0,0.0,0.0,0.0
1776450087301367088,74225,0.0,1.3,0.076,1.0,-0.06,-0.14,1.94,-4.44,2.5,0.21,0.12,-0.39,-0.0,-0.19,1.19,165.15,173.0,0.0,0.0,0.0,0.0
1776450087399678177,74326,0.088,0.4,0.0,0.3,-0.02,-0.08,2.0,-4.38,2.38,0.29,0.14,-0.38,-0.0,0.12,1.31,165.15,204.0,0.0,0.0,0.0,0.0
1776450087502025207,74427,0.088,0.2,0.0,0.7,-0.02,-0.02,2.13,-4.38,2.44,-0.08,0.11,-0.39,2.5,1.25,0.56,165.15,204.0,0.0,0.0,0.0,0.0
1776450087600366017,74527,0.0,1.4,0.0,1.4,0.0,0.04,2.13,-4.44,2.56,0.07,0.02,-0.35,-0.0,0.19,0.94,165.15,203.0,0.0,0.0,0.0,0.0
1776450087702756899,74627,0.0,1.0,0.052,0.5,0.02,-0.02,2.25,-4.38,2.5,0.14,0.16,-0.36,0.81,0.44,0.75,164.64,189.0,0.0,0.0,0.0,0.0
1776450087801066931,74727,0.0,0.7,0.052,0.3,0.02,-0.08,2.25,-4.44,2.5,0.12,0.06,-0.36,0.44,0.69,0.75,164.64,189.0,0.0,0.0,0.0,0.0
1776450087903451720,74827,0.0,1.1,0.056,0.5,-0.02,0.04,2.38,-4.38,2.44,0.16,0.08,-0.35,0.56,0.63,1.06,164.64,199.0,0.0,0.0,0.0,0.0
1776450088001765161,74927,0.0,0.2,0.0,1.1,0.0,-0.1,2.44,-4.44,2.44,0.18,0.04,-0.33,-0.25,1.0,0.5,164.64,199.0,0.0,0.0,0.0,0.0
1776450088100031880,75027,0.092,0.2,0.0,1.0,0.02,-0.02,2.44,-4.44,2.5,-0.08,0.1,-0.4,1.88,1.44,0.56,164.64,203.0,0.0,0.0,0.0,0.0
1776450088202450134,75126,0.0,0.4,0.0,1.7,0.1,0.06,2.5,-4.56,2.69,-0.25,-0.03,-0.46,0.31,0.5,0.75,164.64,183.0,0.0,0.0,0.0,0.0
1776450088300778391,75226,0.0,0.2,0.0,1.3,-0.04,-0.06,2.63,-4.56,2.94,-0.22,-0.01,-0.44,-0.19,0.25,0.88,164.64,183.0,0.0,0.0,0.0,0.0
1776450088398996277,75326,0.0,0.9,0.068,0.3,-0.06,-0.14,2.69,-4.56,3.06,-0.3,0.03,-0.39,0.56,0.19,0.19,164.64,187.0,0.0,0.0,0.0,0.0
1776450088501408957,75425,0.0,1.0,0.076,0.2,-0.04,-0.08,2.69,-4.63,3.19,-0.06,-0.0,-0.38,-0.5,-0.25,0.06,164.64,213.0,0.0,0.0,0.0,0.0
1776450088599748455,75525,0.0,0.6,0.0,1.5,-0.06,0.02,2.69,-4.56,3.19,0.26,0.1,-0.39,-0.5,-0.31,-0.19,168.76,213.0,0.0,0.0,0.0,0.0
1776450088702142912,75626,0.08,0.5,0.0,1.3,0.04,-0.14,2.69,-4.56,3.06,0.15,0.1,-0.39,0.56,0.19,-0.12,168.93,186.0,0.0,0.0,0.0,0.0
1776450088800442206,75726,0.0,1.4,0.0,1.0,0.04,-0.04,2.69,-4.56,3.0,0.29,0.1,-0.38,-0.25,-0.31,-0.06,165.33,193.0,0.0,0.0,0.0,0.0
1776450088902832626,75827,0.0,0.9,0.064,1.4,-0.08,-0.16,2.69,-4.5,3.0,0.2,0.03,-0.39,-0.75,0.12,-0.12,165.33,193.0,0.0,0.0,0.0,0.0
1776450089036210282,75927,0.096,0.3,0.0,1.4,0.02,-0.1,2.69,-4.5,2.94,0.12,0.09,-0.34,0.25,-0.0,-0.31,165.33,213.0,0.0,0.0,0.0,0.0
1776450089103575268,76026,0.0,1.5,0.0,1.0,0.06,-0.08,2.69,-4.5,2.81,0.15,0.14,-0.36,0.75,0.19,-0.25,165.5,201.0,0.0,0.0,0.0,0.0
1776450089201821286,76127,0.0,0.8,0.0,1.4,-0.04,-0.02,2.69,-4.44,2.69,0.34,0.05,-0.35,-0.56,-0.31,-0.25,165.15,201.0,0.0,0.0,0.0,0.0
1776450089304266837,76227,0.088,0.4,0.0,1.5,0.1,-0.06,2.63,-4.44,2.5,0.24,0.11,-0.38,0.63,0.06,-0.37,165.33,190.0,0.0,0.0,0.0,0.0
1776450089402535429,76326,0.092,0.2,0.06,0.2,0.06,-0.06,2.63,-4.38,2.5,-0.04,0.05,-0.34,1.12,0.88,-0.12,161.04,190.0,0.0,0.0,0.0,0.0
1776450089510860273,76426,0.0,1.4,0.076,0.3,0.08,-0.06,2.63,-4.44,2.5,-0.08,0.01,-0.32,0.12,-0.0,0.25,165.15,190.0,0.0,0.0,0.0,0.0
1776450089603247906,76527,0.0,1.2,0.0,1.2,0.12,-0.04,2.63,-4.38,2.44,0.25,0.1,-0.4,-0.12,-0.56,-0.19,165.15,197.0,0.0,0.0,0.0,0.0
1776450089701538776,76626,0.092,1.0,0.072,0.1,0.12,-0.16,2.63,-4.38,2.44,0.15,0.06,-0.35,-0.75,-0.25,-0.06,165.33,197.0,0.0,0.0,0.0,0.0
1776450089803933439,76726,0.0,0.6,0.06,0.3,0.0,-0.18,2.63,-4.31,2.31,0.15,0.1,-0.38,-0.06,-0.25,0.12,165.33,194.0,0.0,0.0,0.0,0.0
1776450089902239049,76826,0.0,0.8,0.064,0.2,-0.02,-0.04,2.63,-4.31,2.25,0.09,0.08,-0.36,0.19,-0.0,-0.25,166.36,195.0,0.0,0.0,0.0,0.0
1776450090004631452,76926,0.0,1.4,0.088,0.5,0.06,-0.18,2.63,-4.31,2.25,0.04,0.05,-0.38,0.25,0.19,-0.56,165.15,195.0,0.0,0.0,0.0,0.0
1776450090102944805,77027,0.0,1.2,0.0,1.3,-0.02,-0.06,2.63,-4.31,2.25,0.11,0.05,-0.4,-0.81,-0.37,-0.75,165.33,209.0,0.0,0.0,0.0,0.0
1776450090201239362,77126,0.092,0.1,0.06,0.3,0.1,-0.21,2.5,-4.31,2.19,0.01,0.09,-0.36,0.31,-0.0,-0.81,164.13,200.0,0.0,0.0,0.0,0.0
1776450090303654971,77225,0.0,1.0,0.0,1.5,-0.02,-0.06,2.44,-4.31,2.19,0.04,0.06,-0.36,-0.25,-0.19,-0.81,165.33,200.0,0.0,0.0,0.0,0.0
1776450090401896768,77326,0.092,0.2,0.0,1.6,-0.02,-0.08,2.38,-4.25,2.19,0.05,0.08,-0.33,0.06,0.19,-0.56,165.15,185.0,0.0,0.0,0.0,0.0
1776450090504280006,77426,0.092,0.5,0.072,0.3,0.0,-0.14,2.38,-4.25,2.13,0.19,0.12,-0.37,0.06,-0.25,0.06,165.15,185.0,0.0,0.0,0.0,0.0
1776450090602664100,77526,0.0,1.5,0.072,0.2,-0.2,0.06,2.38,-4.25,2.13,0.04,0.1,-0.37,0.56,0.19,0.06,165.33,209.0,0.0,0.0,0.0,0.0
1776450090710965908,77627,0.096,0.3,0.068,0.4,-0.12,-0.12,2.38,-4.19,2.06,0.16,0.08,-0.4,-0.75,-0.12,0.56,165.84,197.0,0.0,0.0,0.0,0.0
1776450091676226645,77726,0.0,0.9,0.0,1.4,-0.1,-0.12,2.38,-4.19,2.06,0.08,0.12,-0.33,0.19,0.12,0.25,165.84,197.0,0.0,0.0,0.0,0.0
1776450091678991217,77826,0.0,1.1,0.064,0.8,-0.04,-0.08,2.38,-4.19,1.94,0.27,0.16,-0.39,0.06,-0.12,0.19,169.96,207.0,0.0,0.0,0.0,0.0
1776450091700287220,77926,0.0,0.1,0.0,1.4,0.08,-0.06,2.38,-4.25,2.06,-0.34,0.09,-0.33,2.0,1.81,0.25,165.84,197.0,0.0,0.0,0.0,0.0
1776450091713010562,78025,0.088,0.3,0.0,1.6,0.0,-0.18,2.38,-4.31,2.31,-0.08,-0.05,-0.4,-1.06,-0.12,0.69,169.96,197.0,0.0,0.0,0.0,0.0
1776450091725312553,78125,0.092,0.2,0.0,1.5,-0.12,0.0,2.44,-4.31,2.31,0.04,0.1,-0.35,-0.37,-0.0,0.0,165.15,198.0,0.0,0.0,0.0,0.0
1776450091738351081,78225,0.092,0.5,0.0,1.4,0.02,-0.12,2.44,-4.31,2.13,0.35,0.14,-0.32,-0.0,-0.25,0.12,165.15,190.0,0.0,0.0,0.0,0.0
1776450091802712034,78324,0.092,-0.1,0.068,0.4,-0.1,0.12,2.38,-4.25,2.06,0.04,0.07,-0.33,0.37,1.0,0.5,165.15,190.0,0.0,0.0,0.0,0.0
1776450091815667821,78425,0.0,0.5,0.0,0.4,-0.02,0.0,2.5,-4.31,2.06,0.08,0.08,-0.34,0.06,0.37,1.19,165.15,214.0,0.0,0.0,0.0,0.0
1776450091828524312,78525,0.0,0.6,0.064,0.3,-0.06,-0.04,2.56,-4.25,2.0,0.21,0.13,-0.32,0.06,0.44,0.94,165.33,214.0,0.0,0.0,0.0,0.0
1776450091905117756,78625,0.088,0.4,0.0,0.3,0.12,0.0,2.69,-4.25,1.81,0.26,0.14,-0.34,0.25,0.5,1.37,165.84,196.0,0.0,0.0,0.0,0.0
1776450091918194246,78725,0.0,1.5,0.0,0.6,0.1,0.02,2.81,-4.19,1.69,0.26,0.09,-0.39,-0.37,0.19,1.81,165.84,177.0,0.0,0.0,0.0,0.0
1776450091931022515,78826,0.0,0.7,0.064,0.3,0.08,-0.12,3.0,-4.19,1.63,0.24,0.1,-0.36,-0.31,0.25,1.69,165.84,177.0,0.0,0.0,0.0,0.0
1776450092003409536,78926,0.0,0.7,0.068,0.3,0.08,-0.02,3.19,-4.13,1.5,0.22,0.08,-0.37,-0.06,0.5,1.81,170.47,190.0,0.0,0.0,0.0,0.0
1776450092105773630,79027,0.0,0.9,0.0,1.7,0.18,0.02,3.31,-4.13,1.44,0.16,0.05,-0.36,-0.0,0.5,1.56,166.36,199.0,0.0,0.0,0.0,0.0
1776450092204118060,79127,0.092,0.4,0.056,1.1,0.06,-0.06,3.5,-4.13,1.44,0.12,0.05,-0.39,0.44,0.31,2.13,166.87,199.0,0.0,0.0,0.0,0.0
1776450092306547190,79227,0.0,0.9,0.072,1.4,-0.02,-0.06,3.75,-4.13,1.56,-0.05,0.05,-0.36,1.0,0.44,2.06,167.04,185.0,0.0,0.0,0.0,0.0
1776450092404772213,79327,0.0,1.6,0.064,1.0,-0.02,-0.06,3.94,-4.13,1.63,-0.03,0.01,-0.41,0.12,0.25,2.13,170.64,197.0,0.0,0.0,0.0,0.0
1776450092507169121,79428,0.084,0.1,0.0,1.6,-0.14,-0.06,4.13,-4.13,1.63,-0.03,0.01,-0.37,0.5,0.25,1.44,166.36,197.0,0.0,0.0,0.0,0.0
1776450092605507848,79527,0.084,0.2,0.0,1.6,-0.06,0.0,4.25,-4.13,1.63,0.1,0.02,-0.36,-0.44,0.31,1.0,166.36,198.0,0.0,0.0,0.0,0.0
1776450092703802944,79627,0.084,-0.2,0.0,1.3,-0.08,0.02,4.31,-4.13,1.69,-0.04,0.03,-0.31,2.19,0.63,0.75,166.53,198.0,0.0,0.0,0.0,0.0
1776450092844224029,79727,0.092,0.1,0.0,1.1,-0.04,-0.08,4.31,-4.19,1.88,-0.13,-0.02,-0.32,1.12,0.44,0.44,170.47,184.0,0.0,0.0,0.0,0.0
1776450092904495931,79826,0.092,0.1,0.064,0.5,0.06,0.06,4.31,-4.19,1.88,0.05,-0.01,-0.36,-0.0,-0.69,-0.44,166.36,196.0,0.0,0.0,0.0,0.0
1776450093002789824,79926,0.092,0.2,0.0,1.6,0.0,-0.06,4.19,-4.13,1.88,0.13,0.03,-0.34,0.19,-0.94,-2.0,166.36,196.0,0.0,0.0,0.0,0.0
1776450093105195530,80026,0.08,-0.1,0.0,1.4,-0.02,-0.14,3.94,-4.06,1.75,0.23,0.09,-0.38,1.31,-0.63,-2.69,169.96,203.0,0.0,0.0,0.0,0.0
1776450093203503387,80125,0.0,0.3,0.0,1.4,-0.06,-0.12,3.63,-4.06,1.81,0.19,0.06,-0.33,0.37,-0.5,-2.94,165.84,188.0,0.0,0.0,0.0,0.0
1776450093305868649,80225,0.1,0.2,0.0,1.2,-0.04,0.0,3.44,-4.06,1.94,-0.14,0.07,-0.38,3.94,0.12,-2.19,165.84,188.0,0.0,0.0,0.0,0.0
1776450093404181377,80326,0.096,0.2,0.0,1.2,0.02,-0.02,3.19,-4.06,2.06,0.18,-0.01,-0.39,-0.63,-0.63,-2.25,166.53,198.0,0.0,0.0,0.0,0.0
1776450093502457475,80425,0.088,0.4,0.056,0.3,0.12,-0.12,3.0,-4.06,2.19,0.01,0.08,-0.38,2.19,-0.06,-2.31,165.84,181.0,0.0,0.0,0.0,0.0
1776450093604899996,80525,0.0,0.7,0.0,1.3,-0.08,-0.1,2.75,-4.06,2.38,0.01,0.1,-0.37,1.37,0.25,-1.69,165.84,181.0,0.0,0.0,0.0,0.0
1776450093703197224,80625,0.088,0.1,0.0,1.6,-0.06,-0.06,2.63,-4.06,2.44,0.13,0.05,-0.32,1.06,0.31,-0.94,161.72,192.0,0.0,0.0,0.0,0.0
1776450093805592171,80726,0.0,1.5,0.0,0.5,-0.02,-0.04,2.56,-4.06,2.5,0.13,0.07,-0.4,2.88,0.37,-0.81,165.84,192.0,0.0,0.0,0.0,0.0
1776450093903889195,80826,0.088,0.3,0.0,1.5,0.14,-0.08,2.44,-4.06,2.69,0.18,0.05,-0.42,0.88,0.31,-1.25,161.72,187.0,0.0,0.0,0.0,0.0
1776450094002156201,80925,0.088,0.2,0.0,1.5,0.02,-0.02,2.31,-4.06,2.81,0.2,0.03,-0.36,1.25,0.44,-1.56,165.33,194.0,0.0,0.0,0.0,0.0
1776450094104591575,81026,0.0,0.1,0.0,1.1,-0.1,-0.1,2.13,-4.13,3.0,0.11,0.09,-0.4,4.13,1.25,-1.75,161.04,194.0,0.0,0.0,0.0,0.0
1776450094212966538,81126,0.08,0.0,0.0,1.2,-0.12,-0.04,1.94,-4.25,3.38,-0.08,0.05,-0.37,3.69,1.81,-1.63,165.33,187.0,0.0,0.0,0.0,0.0
1776450094305295049,81226,0.0,1.0,0.076,0.5,0.06,0.0,1.88,-4.44,3.63,-0.07,-0.01,-0.34,1.63,1.0,-0.56,165.15,208.0,0.0,0.0,0.0,0.0
1776450094403655574,81326,0.0,1.0,0.052,0.3,0.1,-0.1,1.81,-4.44,3.69,0.06,0.05,-0.41,1.69,0.37,-0.88,164.64,208.0,0.0,0.0,0.0,0.0
1776450094505966005,81426,0.0,0.7,0.076,0.2,-0.06,-0.14,1.75,-4.56,3.94,-0.18,0.06,-0.35,2.75,1.31,-0.69,164.64,208.0,0.0,0.0,0.0,0.0
1776450094604274456,81525,0.0,1.6,0.088,0.4,0.02,-0.14,1.69,-4.63,4.19,-0.09,-0.04,-0.35,0.63,0.12,-0.31,164.64,209.0,0.0,0.0,0.0,0.0
1776450094848225845,81625,0.0,0.5,0.068,0.2,-0.02,-0.04,1.69,-4.63,4.13,0.28,0.03,-0.37,-0.56,-0.81,-0.63,164.64,209.0,0.0,0.0,0.0,0.0
1776450094903286641,81725,0.0,0.9,0.072,0.3,-0.06,0.08,1.69,-4.56,4.19,0.07,0.11,-0.39,1.56,0.44,-0.56,164.64,198.0,0.0,0.0,0.0,0.0
1776450094916867372,81824,0.0,0.7,0.0,1.6,0.02,-0.12,1.69,-4.63,4.13,0.3,0.01,-0.35,-1.69,-0.56,-0.31,164.64,198.0,0.0,0.0,0.0,0.0
1776450095001516036,81924,0.088,0.2,0.0,1.6,-0.04,-0.14,1.63,-4.56,4.06,0.05,0.13,-0.39,1.88,-0.0,-0.63,164.64,197.0,0.0,0.0,0.0,0.0
1776450095103944820,82024,0.0,1.6,0.072,0.3,-0.06,-0.06,1.63,-4.56,4.13,0.08,-0.05,-0.33,-1.12,-0.31,-0.25,164.64,188.0,0.0,0.0,0.0,0.0
1776450095202328828,82123,0.0,1.4,0.0,1.0,0.04,0.08,1.63,-4.5,4.06,0.07,0.1,-0.34,1.12,-0.5,-0.81,168.76,188.0,0.0,0.0,0.0,0.0
1776450095304646463,82223,0.088,0.3,0.0,1.6,-0.06,-0.12,1.5,-4.5,3.94,0.22,0.07,-0.36,-0.5,-0.88,-0.88,168.76,186.0,0.0,0.0,0.0,0.0
1776450095402948416,82324,0.0,1.4,0.056,0.6,0.0,0.0,1.44,-4.38,3.75,0.34,0.12,-0.45,-0.63,-1.06,-0.56,164.64,193.0,0.0,0.0,0.0,0.0
1776450095505324496,82423,0.088,0.6,0.08,0.4,0.0,-0.12,1.44,-4.31,3.75,-0.11,0.08,-0.33,-0.25,-0.31,1.19,165.67,193.0,0.0,0.0,0.0,0.0
1776450095603672708,82524,0.0,0.7,0.064,0.4,-0.1,-0.06,1.56,-4.31,3.75,-0.02,0.1,-0.38,-0.06,-0.63,1.06,164.64,195.0,0.0,0.0,0.0,0.0
1776450095701969661,82624,0.0,1.2,0.0,1.2,0.08,-0.04,1.63,-4.31,3.75,-0.05,0.03,-0.38,-1.31,-0.19,0.25,168.76,171.0,0.0,0.0,0.0,0.0
1776450095804410536,82723,0.096,0.4,0.0,1.2,0.04,-0.18,1.63,-4.31,3.81,-0.39,0.01,-0.37,1.37,0.25,0.19,164.64,171.0,0.0,0.0,0.0,0.0
1776450095936220615,82823,0.0,1.0,0.06,0.5,0.02,0.0,1.63,-4.31,3.69,0.49,0.1,-0.34,-1.44,-0.5,-0.31,165.15,187.0,0.0,0.0,0.0,0.0
1776450096005074032,82923,0.0,0.9,0.0,1.5,-0.06,-0.04,1.63,-4.25,3.56,0.2,0.12,-0.33,-0.69,-0.25,-0.88,164.47,198.0,0.0,0.0,0.0,0.0
1776450096103354801,83023,0.088,1.3,0.064,0.1,-0.08,-0.04,1.5,-4.25,3.44,0.13,0.09,-0.36,0.06,-0.25,-1.37,164.64,198.0,0.0,0.0,0.0,0.0
1776450096205754752,83124,0.0,1.5,0.068,0.5,0.12,0.06,1.37,-4.19,3.38,0.14,0.09,-0.36,-0.25,-0.56,-1.31,168.76,198.0,0.0,0.0,0.0,0.0
1776450096304065206,83225,0.084,0.0,0.064,0.4,0.06,-0.08,1.25,-4.13,3.19,0.38,0.11,-0.37,-0.63,-0.75,-1.81,161.04,198.0,0.0,0.0,0.0,0.0
1776450096406487750,83324,0.0,0.9,0.0,0.5,0.02,-0.08,1.06,-4.06,3.13,0.01,0.12,-0.34,-0.12,-0.63,-1.37,165.15,199.0,0.0,0.0,0.0,0.0
1776450096504722075,83424,0.0,1.6,0.052,0.4,-0.06,0.1,0.94,-4.06,3.06,0.12,0.1,-0.34,-0.5,-0.56,-1.19,165.33,194.0,0.0,0.0,0.0,0.0
1776450096603031733,83524,0.0,1.3,0.064,0.2,0.1,-0.06,0.81,-4.0,2.88,0.36,0.11,-0.38,-1.25,-0.69,-1.63,162.07,194.0,0.0,0.0,0.0,0.0
1776450096744229714,83624,0.096,0.2,0.0,1.2,0.0,0.0,0.63,-3.88,2.75,0.06,0.09,-0.4,0.44,-1.0,-2.06,165.15,192.0,0.0,0.0,0.0,0.0
1776450096807855061,83725,0.088,0.2,0.0,0.2,0.08,-0.04,0.31,-3.75,2.75,0.0,0.07,-0.38,0.37,-1.19,-3.06,166.87,194.0,0.0,0.0,0.0,0.0
1776450096906166756,83826,0.0,0.8,0.064,0.5,-0.02,0.02,-0.0,-3.69,2.75,0.02,0.1,-0.39,0.19,-0.94,-3.75,161.55,194.0,0.0,0.0,0.0,0.0
1776450097008578615,83926,0.092,0.4,0.088,0.6,0.02,-0.06,-0.37,-3.63,2.69,0.08,0.12,-0.37,0.12,-0.94,-3.88,161.55,181.0,0.0,0.0,0.0,0.0
1776450097106851700,84027,0.0,1.3,0.064,0.4,0.0,0.02,-0.75,-3.56,2.69,-0.07,0.13,-0.32,0.69,-0.37,-3.94,165.84,181.0,0.0,0.0,0.0,0.0
1776450097209256227,84127,0.0,1.3,0.0,1.4,-0.04,-0.02,-1.12,-3.56,2.69,0.17,0.1,-0.35,-0.37,-0.75,-3.06,161.72,199.0,0.0,0.0,0.0,0.0
1776450097307541923,84227,0.088,0.3,0.0,1.1,0.02,0.06,-1.37,-3.44,2.63,0.13,0.13,-0.35,-0.12,-0.75,-2.69,161.55,192.0,0.0,0.0,0.0,0.0
1776450097409944524,84327,0.084,0.0,0.072,0.2,-0.04,0.1,-1.63,-3.38,2.56,0.11,0.14,-0.42,1.5,-0.37,-3.0,166.36,192.0,0.0,0.0,0.0,0.0
1776450097508207183,84427,0.0,0.8,0.06,0.6,0.04,-0.08,-1.94,-3.31,2.69,-0.23,0.12,-0.33,1.56,0.12,-2.31,165.84,191.0,0.0,0.0,0.0,0.0
1776450097610668877,84527,0.0,0.9,0.0,1.6,-0.1,-0.04,-2.13,-3.31,2.81,0.05,0.08,-0.38,-0.19,-0.19,-1.69,165.84,192.0,0.0,0.0,0.0,0.0
1776450097708939406,84628,0.088,1.3,0.068,1.1,-0.18,-0.06,-2.25,-3.31,2.75,0.17,0.14,-0.36,-0.12,-0.19,-1.88,166.36,192.0,0.0,0.0,0.0,0.0
1776450097807248565,84727,0.092,0.1,0.0,0.1,0.04,-0.21,-2.44,-3.25,2.81,-0.02,0.07,-0.29,0.37,0.31,-1.12,165.84,205.0,0.0,0.0,0.0,0.0
1776450097909626389,84828,0.0,1.4,0.0,0.1,0.06,-0.14,-2.56,-3.25,2.69,0.32,0.15,-0.38,0.81,-0.5,-1.81,166.36,199.0,0.0,0.0,0.0,0.0
1776450098007905733,84928,0.084,0.4,0.06,0.2,-0.08,-0.08,-2.75,-3.19,2.63,0.26,0.1,-0.38,-0.25,-0.19,-2.69,162.75,199.0,0.0,0.0,0.0,0.0
1776450098110336206,85028,0.0,1.4,0.0,1.3,-0.1,0.08,-3.0,-3.13,2.44,0.34,0.12,-0.35,-0.88,-0.25,-2.25,166.53,195.0,0.0,0.0,0.0,0.0
1776450098208662125,85128,0.092,0.2,0.0,1.1,0.04,-0.12,-3.25,-3.06,2.13,0.34,0.13,-0.37,0.37,-0.19,-1.81,166.36,195.0,0.0,0.0,0.0,0.0
1776450098340223617,85228,0.096,0.3,0.052,0.1,0.02,-0.08,-3.31,-3.0,2.13,-0.13,0.12,-0.33,2.44,0.37,0.37,165.84,195.0,0.0,0.0,0.0,0.0
1776450098409338832,85327,0.0,0.9,0.064,0.3,-0.02,-0.06,-3.19,-3.0,2.06,0.41,0.05,-0.42,-3.13,-1.0,1.19,166.36,193.0,0.0,0.0,0.0,0.0
1776450098507585715,85427,0.0,0.9,0.0,1.5,0.14,-0.04,-3.06,-2.94,2.19,-0.31,0.14,-0.33,3.56,1.25,0.63,165.84,193.0,0.0,0.0,0.0,0.0
1776450098610048836,85527,0.084,0.5,0.084,0.4,-0.02,-0.12,-3.06,-3.06,2.31,-0.04,0.03,-0.36,0.06,0.25,0.44,161.55,196.0,0.0,0.0,0.0,0.0
1776450098708335052,85626,0.0,1.2,0.0,1.2,-0.08,-0.02,-3.06,-3.06,2.31,-0.09,0.13,-0.35,1.25,0.31,0.31,161.55,199.0,0.0,0.0,0.0,0.0
1776450098810733506,85727,0.088,0.1,0.0,0.7,-0.08,-0.18,-3.06,-3.0,2.31,0.13,0.08,-0.38,-0.12,-0.37,0.19,161.72,199.0,0.0,0.0,0.0,0.0
1776450098909038703,85827,0.0,0.0,0.0,1.6,-0.08,-0.06,-3.06,-3.0,2.44,-0.21,0.06,-0.36,1.12,0.88,0.37,161.72,194.0,0.0,0.0,0.0,0.0
1776450099011427250,85927,0.088,0.3,0.0,1.5,-0.18,-0.16,-3.06,-3.0,2.56,-0.11,0.06,-0.41,0.31,0.25,0.37,161.72,179.0,0.0,0.0,0.0,0.0
1776450099109722541,86027,0.08,0.5,0.064,0.2,-0.04,-0.02,-3.06,-3.0,2.63,0.01,0.02,-0.38,-1.06,0.06,0.06,161.72,179.0,0.0,0.0,0.0,0.0
1776450099208032129,86127,0.0,1.4,0.076,0.0,0.1,-0.16,-3.06,-2.94,2.5,0.3,0.11,-0.36,-0.06,-0.0,-0.25,161.55,187.0,0.0,0.0,0.0,0.0
1776450099306290568,86226,0.0,0.5,0.06,0.3,-0.08,-0.02,-3.13,-2.94,2.38,0.24,0.09,-0.38,0.5,0.12,-0.63,161.55,196.0,0.0,0.0,0.0,0.0
1776450099408747690,86326,0.0,0.6,0.064,0.6,-0.18,0.02,-3.19,-2.88,2.31,0.14,0.06,-0.39,0.06,-0.06,-1.12,161.72,196.0,0.0,0.0,0.0,0.0
1776450099506972167,86426,0.084,0.1,0.0,0.3,-0.04,0.0,-3.38,-2.88,2.19,0.32,0.1,-0.38,-0.5,-0.44,-1.81,161.72,186.0,0.0,0.0,0.0,0.0
1776450099609416011,86525,0.0,0.7,0.06,0.5,0.0,-0.06,-3.56,-2.88,2.25,-0.2,0.06,-0.34,0.37,0.94,-1.69,165.84,186.0,0.0,0.0,0.0,0.0
1776450099707737172,86625,0.0,0.6,0.072,0.7,-0.06,-0.04,-3.63,-2.94,2.25,0.04,-0.0,-0.41,-0.63,-0.0,-1.0,165.67,185.0,0.0,0.0,0.0,0.0
1776450099805984834,86725,0.0,0.3,0.0,0.5,0.04,-0.08,-3.81,-2.88,2.13,0.31,0.08,-0.33,0.19,-0.25,-2.0,165.84,197.0,0.0,0.0,0.0,0.0
1776450099908422919,86825,0.0,1.3,0.06,0.4,-0.12,-0.12,-4.06,-2.81,1.81,0.35,0.14,-0.36,0.63,-0.0,-2.94,165.84,197.0,0.0,0.0,0.0,0.0
1776450100016790519,86925,0.0,1.5,0.0,1.0,0.04,-0.18,-4.31,-2.75,1.75,0.07,0.07,-0.39,0.75,0.37,-2.5,165.84,190.0,0.0,0.0,0.0,0.0
1776450100109112223,87026,0.088,0.2,0.0,1.5,-0.08,0.04,-4.56,-2.75,1.75,0.03,0.06,-0.42,0.75,0.37,-2.25,165.84,191.0,0.0,0.0,0.0,0.0
1776450100211535198,87126,0.0,0.3,0.0,1.3,-0.02,0.02,-4.81,-2.81,1.75,0.17,-0.01,-0.42,-1.25,-0.0,-3.0,165.84,191.0,0.0,0.0,0.0,0.0
1776450100309783564,87227,0.088,0.2,0.0,1.0,-0.14,-0.08,-5.13,-2.81,1.81,-0.29,0.15,-0.36,2.88,1.31,-3.0,165.84,201.0,0.0,0.0,0.0,0.0
1776450100412167188,87327,0.084,0.2,0.0,0.2,-0.12,0.06,-5.31,-2.88,1.94,-0.13,-0.0,-0.37,-0.44,0.25,-1.06,165.84,198.0,0.0,0.0,0.0,0.0
1776450100510465869,87427,0.0,0.7,0.06,0.2,0.0,-0.02,-5.31,-2.88,1.94,0.22,-0.0,-0.35,-1.5,-0.56,-0.63,161.55,198.0,0.0,0.0,0.0,0.0
1776450100608740476,87528,0.0,1.2,0.076,0.3,0.1,-0.04,-5.44,-2.81,1.81,0.29,0.08,-0.37,-0.44,-0.0,-1.0,165.84,191.0,0.0,0.0,0.0,0.0
1776450100711210118,87627,0.0,0.1,0.0,1.2,-0.06,-0.12,-5.44,-2.81,1.69,-0.01,0.14,-0.39,2.56,0.69,-0.31,161.55,191.0,0.0,0.0,0.0,0.0
1776450101108217361,87728,0.088,0.3,0.0,1.2,0.1,0.0,-5.38,-2.88,1.69,0.15,0.02,-0.38,-0.0,0.31,1.56,165.84,192.0,0.0,0.0,0.0,0.0
1776450101120391650,87828,0.088,0.0,0.0,1.1,0.06,-0.18,-5.25,-2.81,1.69,0.17,0.09,-0.35,-0.06,0.5,2.13,165.84,204.0,0.0,0.0,0.0,0.0
1776450101132894661,87927,0.084,0.1,0.0,0.3,-0.02,-0.06,-4.94,-2.81,1.63,0.1,0.15,-0.36,1.19,0.81,3.31,165.84,204.0,0.0,0.0,0.0,0.0
1776450101145258561,88027,0.0,1.2,0.06,0.3,0.08,-0.06,-4.63,-2.88,1.63,0.16,0.07,-0.41,0.25,0.81,4.13,165.84,215.0,0.0,0.0,0.0,0.0
1776450101210897059,88128,0.0,0.1,0.088,0.4,0.1,-0.06,-4.25,-3.0,1.88,-0.22,-0.02,-0.34,-0.25,1.12,3.38,165.84,203.0,0.0,0.0,0.0,0.0
1776450101313308684,88228,0.0,1.0,0.0,1.2,0.02,-0.08,-3.88,-3.0,1.81,0.02,0.09,-0.38,1.75,0.63,2.81,165.84,203.0,0.0,0.0,0.0,0.0
1776450101411554940,88328,0.0,1.2,0.06,0.3,-0.02,-0.25,-3.69,-3.06,1.94,-0.08,0.03,-0.39,1.12,0.69,1.37,165.67,194.0,0.0,0.0,0.0,0.0
1776450101513986491,88428,0.0,0.7,0.0,1.5,0.06,0.0,-3.63,-3.06,2.0,0.17,0.05,-0.35,-0.63,-0.19,0.19,165.67,199.0,0.0,0.0,0.0,0.0
1776450101612301932,88528,0.0,1.6,0.064,0.6,-0.06,0.0,-3.69,-3.06,1.94,0.03,0.1,-0.42,1.5,0.44,-1.25,166.36,199.0,0.0,0.0,0.0,0.0
1776450101710566133,88628,0.0,0.3,0.092,0.5,-0.23,-0.18,-3.81,-3.13,2.19,-0.3,-0.0,-0.32,1.19,0.81,-1.19,165.84,221.0,0.0,0.0,0.0,0.0
1776450101812988202,88728,0.0,0.2,0.0,1.3,-0.04,-0.06,-3.94,-3.13,2.25,0.08,0.03,-0.36,0.12,-0.25,-0.88,165.84,221.0,0.0,0.0,0.0,0.0
1776450101911312033,88827,0.088,0.3,0.0,0.5,0.02,-0.04,-4.06,-3.13,2.19,0.2,0.06,-0.36,-0.12,-0.31,-1.37,165.84,193.0,0.0,0.0,0.0,0.0
1776450102009576900,88927,0.0,1.2,0.0,1.2,0.12,-0.12,-4.25,-3.13,2.19,0.12,0.04,-0.35,0.25,0.44,-1.75,165.84,197.0,0.0,0.0,0.0,0.0
1776450102112030767,89027,0.088,0.1,0.0,0.6,-0.1,0.04,-4.38,-3.13,2.25,-0.02,0.06,-0.32,1.0,0.56,-1.75,165.84,197.0,0.0,0.0,0.0,0.0
1776450102210337284,89127,0.0,0.9,0.06,0.5,0.0,-0.14,-4.63,-3.13,2.19,0.49,0.03,-0.35,-1.19,-0.94,-2.63,165.84,203.0,0.0,0.0,0.0,0.0
1776450102312697483,89227,0.096,0.1,0.0,1.4,0.08,-0.08,-4.88,-3.06,2.13,-0.05,0.19,-0.36,3.19,1.25,-3.25,165.84,185.0,0.0,0.0,0.0,0.0
1776450102410988278,89327,0.092,0.0,0.08,0.3,-0.08,0.08,-5.19,-3.19,2.25,0.07,-0.04,-0.33,-0.75,0.19,-2.31,161.72,185.0,0.0,0.0,0.0,0.0
1776450102509243832,89426,0.0,0.2,0.0,1.3,0.06,-0.21,-5.38,-3.19,2.19,0.21,0.07,-0.32,-0.0,-0.0,-2.0,165.84,210.0,0.0,0.0,0.0,0.0
1776450102611657439,89526,0.0,-0.1,0.06,0.3,-0.06,-0.1,-5.63,-3.19,2.06,0.2,0.11,-0.34,0.19,0.63,-2.69,166.87,195.0,0.0,0.0,0.0,0.0
1776450102710001234,89627,0.084,0.1,0.0,1.3,-0.04,-0.06,-5.88,-3.31,2.06,0.08,0.08,-0.35,0.69,1.0,-2.81,165.67,195.0,0.0,0.0,0.0,0.0
1776450102812423508,89726,0.088,0.4,0.0,0.3,0.06,-0.08,-6.19,-3.38,2.13,0.08,0.01,-0.35,0.37,0.81,-2.88,165.33,199.0,0.0,0.0,0.0,0.0
1776450102910692099,89827,0.0,0.8,0.064,0.3,0.06,-0.12,-6.44,-3.44,2.13,0.08,0.09,-0.39,1.12,0.81,-2.94,165.15,199.0,0.0,0.0,0.0,0.0
1776450103013083002,89927,0.0,1.3,0.096,0.3,0.08,-0.08,-6.75,-3.56,2.25,-0.01,0.05,-0.35,1.0,1.25,-3.0,165.33,170.0,0.0,0.0,0.0,0.0
1776450103111377576,90028,0.0,1.3,0.076,0.5,0.02,-0.04,-6.94,-3.63,2.25,0.08,0.05,-0.32,0.69,0.63,-2.06,165.33,201.0,0.0,0.0,0.0,0.0
1776450103213791314,90128,0.0,1.2,0.072,0.0,0.16,-0.04,-7.19,-3.69,2.25,0.09,0.11,-0.37,1.25,0.81,-1.88,165.15,201.0,0.0,0.0,0.0,0.0
1776450103312063554,90228,0.0,1.5,0.084,0.2,0.1,-0.02,-7.31,-3.81,2.31,0.18,0.02,-0.33,-0.19,0.56,-0.5,165.84,187.0,0.0,0.0,0.0,0.0
1776450103414474181,90328,0.0,1.1,0.0,0.2,0.04,-0.21,-7.31,-3.75,2.19,0.22,0.11,-0.41,0.75,0.56,0.25,166.87,202.0,0.0,0.0,0.0,0.0
1776450103512692236,90429,0.0,0.9,0.076,0.5,-0.04,0.04,-7.31,-3.88,2.38,-0.01,-0.02,-0.33,0.56,1.12,-0.25,165.84,202.0,0.0,0.0,0.0,0.0
1776450103615170418,90529,0.0,0.7,0.0,1.6,-0.08,-0.08,-7.31,-3.88,2.38,0.0,0.05,-0.34,1.12,0.69,0.06,165.84,193.0,0.0,0.0,0.0,0.0
1776450103713431084,90630,0.0,1.3,0.076,1.3,0.02,-0.08,-7.31,-3.88,2.38,0.27,0.07,-0.33,-0.31,-0.12,-0.12,165.84,203.0,0.0,0.0,0.0,0.0
1776450103815870470,90730,0.0,0.8,0.064,0.3,-0.14,0.06,-7.31,-3.88,2.06,0.37,0.18,-0.41,0.44,0.44,-0.06,165.67,203.0,0.0,0.0,0.0,0.0
1776450103914175285,90830,0.0,0.7,0.084,0.5,0.02,-0.1,-7.31,-3.94,2.19,-0.02,0.07,-0.34,2.63,2.19,0.88,165.33,203.0,0.0,0.0,0.0,0.0
1776450104016612226,90930,0.0,1.2,0.092,0.3,0.12,-0.16,-7.13,-4.06,2.31,0.0,0.03,-0.41,0.69,0.63,3.0,165.84,203.0,0.0,0.0,0.0,0.0
1776450104114864560,91030,0.0,1.4,0.092,0.2,0.06,-0.16,-6.81,-4.06,2.5,-0.13,0.04,-0.35,1.37,0.37,2.63,165.15,199.0,0.0,0.0,0.0,0.0
1776450104213170227,91129,0.0,0.3,0.0,0.6,-0.08,-0.1,-6.63,-4.06,2.75,-0.27,-0.01,-0.35,2.13,0.69,1.81,165.15,199.0,0.0,0.0,0.0,0.0
1776450104315560744,91229,0.0,0.9,0.076,0.6,-0.06,-0.2,-6.44,-4.06,3.0,-0.26,0.04,-0.35,1.5,-0.0,1.19,165.15,199.0,0.0,0.0,0.0,0.0
1776450104413860782,91329,0.0,0.7,0.076,1.6,0.02,-0.14,-6.38,-4.06,3.0,0.22,-0.0,-0.39,-1.06,-0.5,0.69,161.04,187.0,0.0,0.0,0.0,0.0
1776450104512096801,91428,0.0,0.5,0.0,1.1,-0.04,-0.06,-6.38,-4.06,3.0,0.09,0.07,-0.38,0.81,-0.06,-0.37,161.04,198.0,0.0,0.0,0.0,0.0
1776450104614566225,91528,0.0,1.0,0.0,0.1,0.04,-0.12,-6.38,-4.06,3.13,-0.02,0.02,-0.35,0.25,-0.0,-0.37,165.15,198.0,0.0,0.0,0.0,0.0
1776450104712858707,91628,0.0,1.5,0.092,0.1,0.04,-0.16,-6.38,-4.06,3.19,-0.03,0.04,-0.38,0.81,-0.0,0.06,165.15,191.0,0.0,0.0,0.0,0.0
1776450104815262724,91727,0.0,1.3,0.0,1.2,0.1,-0.06,-6.38,-4.06,3.19,0.12,0.04,-0.37,-0.06,-0.25,0.19,161.04,204.0,0.0,0.0,0.0,0.0
1776450104913556335,91828,0.0,0.7,0.076,0.3,0.04,0.08,-6.38,-4.06,3.13,0.24,0.06,-0.36,-0.06,-0.19,0.0,165.15,204.0,0.0,0.0,0.0,0.0
1776450105015975648,91928,0.0,1.0,0.0,1.5,0.08,-0.04,-6.38,-4.06,3.13,0.14,0.07,-0.32,0.19,-0.31,-0.31,161.04,199.0,0.0,0.0,0.0,0.0
1776450105114266002,92028,0.092,1.3,0.0,1.1,-0.1,-0.02,-6.38,-4.0,3.13,0.17,0.07,-0.36,-0.12,-0.37,-0.31,165.5,204.0,0.0,0.0,0.0,0.0
1776450105216657020,92129,0.088,0.1,0.084,0.4,0.04,0.06,-6.44,-4.0,3.06,0.23,0.06,-0.33,-0.25,-0.31,-0.94,165.15,204.0,0.0,0.0,0.0,0.0
1776450105314959206,92229,0.0,0.3,0.0,1.1,0.04,-0.08,-6.56,-3.94,2.75,0.41,0.14,-0.37,0.06,-0.5,-1.31,161.04,197.0,0.0,0.0,0.0,0.0
1776450105413208801,92328,0.088,0.0,0.0,0.3,0.08,0.0,-6.75,-3.94,2.81,-0.03,0.06,-0.28,1.69,0.69,-1.75,161.38,197.0,0.0,0.0,0.0,0.0
1776450105515599652,92429,0.0,0.1,0.0,0.9,0.02,-0.1,-6.88,-3.94,2.69,0.24,0.09,-0.36,-0.25,-0.56,-0.94,161.04,191.0,0.0,0.0,0.0,0.0
1776450105613944727,92529,0.0,0.3,0.0,1.2,-0.08,-0.14,-6.94,-3.88,2.56,0.31,0.13,-0.35,0.06,-0.0,-1.06,165.15,199.0,0.0,0.0,0.0,0.0
1776450105716352208,92628,0.092,0.2,0.0,1.4,-0.06,-0.14,-7.13,-3.94,2.56,-0.06,0.09,-0.34,1.06,1.19,-1.31,162.07,199.0,0.0,0.0,0.0,0.0
1776450105814643728,92729,0.092,0.2,0.0,1.3,-0.06,-0.04,-7.19,-4.0,2.63,-0.09,0.03,-0.32,-0.25,0.44,-0.63,161.04,203.0,0.0,0.0,0.0,0.0
1776450105917039116,92829,0.0,1.3,0.072,0.4,-0.04,-0.23,-7.25,-4.0,2.56,0.19,0.09,-0.38,-0.5,-0.37,-0.81,161.55,193.0,0.0,0.0,0.0,0.0
1776450106015354007,92930,0.0,1.3,0.0,0.5,-0.08,-0.2,-7.38,-4.0,2.56,-0.11,0.1,-0.36,1.31,0.94,-1.63,161.72,193.0,0.0,0.0,0.0,0.0
1776450106117714248,93030,0.0,0.7,0.084,0.0,0.0,-0.1,-7.5,-4.13,2.81,-0.1,-0.06,-0.38,-1.25,0.63,-1.25,161.72,197.0,0.0,0.0,0.0,0.0
1776450106216045862,93129,0.0,0.9,0.08,0.3,0.0,0.06,-7.56,-4.06,2.69,0.02,0.15,-0.32,0.75,0.19,-0.88,164.81,184.0,0.0,0.0,0.0,0.0
