timestamp_ns,time_ms,voltage_left,current_left_ma,voltage_right,current_right_ma,motor_current_left,motor_current_right,euler_x,euler_y,euler_z,acc_lin_x,acc_lin_y,acc_lin_z,gyro_x,gyro_y,gyro_z,sonar_mm,tof_mm,rpm_left,rpm_right,rotations_left,rotations_right
1776452869385401945,7008,96.0,0.0,0.0,0.0,0.0,,,,,,,,,,,,,,,,
1776452870287171159,16014,0.088,0.1,0.0,1.2,-0.08,-0.04,0.06,0.81,1.81,0.0,-0.0,-0.34,0.06,-0.06,0.12,170.64,,0.06,169.61,196.0,0.0
1776452872199960751,16014,0.088,0.1,0.0,1.2,-0.08,-0.04,0.06,0.81,1.81,0.0,-0.0,-0.34,0.06,-0.06,0.12,170.64,,,,,
1776452872293934116,1905,0.0,0.2,0.0,0.6,0.06,0.06,0.06,0.75,1.88,0.0,0.01,-0.31,-0.12,0.12,0.0,173.73,192.0,0.0,0.0,0.0,0.0
1776452872396312058,2006,0.088,0.4,0.0,0.8,0.16,-0.12,0.06,0.75,1.88,0.0,-0.0,-0.34,-0.0,-0.0,0.06,169.61,191.0,0.0,0.0,0.0,0.0
1776452872494626404,2106,0.0,0.7,0.0,1.0,0.1,-0.1,0.06,0.75,1.88,0.01,-0.02,-0.35,0.06,-0.0,0.06,169.61,191.0,0.0,0.0,0.0,0.0
1776452872602993360,2206,0.0,1.2,0.08,0.2,0.04,-0.04,0.06,0.75,1.88,0.0,-0.01,-0.33,-0.0,0.12,0.06,169.61,192.0,0.0,0.0,0.0,0.0
1776452872695319395,2306,0.0,1.5,0.08,0.3,0.08,0.08,0.06,0.75,1.88,0.01,-0.0,-0.31,0.06,-0.0,-0.06,169.61,192.0,0.0,0.0,0.0,0.0
1776452872797714300,2406,0.0,1.6,0.076,0.2,0.02,0.0,0.06,0.75,1.88,0.01,-0.02,-0.36,-0.12,-0.06,0.06,169.61,192.0,0.0,0.0,0.0,0.0
1776452872896025035,2506,0.0,1.4,0.0,0.1,-0.08,-0.12,0.06,0.75,1.88,0.0,-0.01,-0.35,-0.0,-0.0,0.0,173.73,196.0,0.0,0.0,0.0,0.0
1776452872994314178,2606,0.092,0.2,0.0,1.3,0.0,-0.12,0.06,0.75,1.88,0.0,0.01,-0.32,-0.0,0.06,0.0,173.73,195.0,0.0,0.0,0.0,0.0
1776452873096701595,2706,0.088,0.3,0.088,0.3,0.12,-0.04,0.06,0.75,1.88,0.02,-0.0,-0.33,0.06,-0.06,0.0,170.13,195.0,0.0,0.0,0.0,0.0
1776452873195075694,2806,0.044,0.1,0.0,1.1,0.06,0.04,0.06,0.75,1.88,0.0,-0.0,-0.33,-0.06,0.12,0.19,173.73,192.0,0.0,0.0,0.0,0.0
1776452873297358463,2907,0.0,0.9,0.08,0.0,0.02,0.0,0.06,0.75,1.88,0.01,0.01,-0.31,-0.12,-0.0,-0.06,173.73,193.0,0.0,0.0,0.0,0.0
1776452873395668766,3008,0.0,0.2,0.084,0.5,0.06,-0.2,0.06,0.75,1.88,0.0,-0.0,-0.34,-0.0,-0.0,-0.06,173.73,193.0,0.0,0.0,0.0,0.0
1776452873498105515,3107,0.0,0.5,0.0,1.3,0.25,-0.06,0.06,0.75,1.88,0.0,-0.0,-0.3,0.06,-0.0,0.12,173.73,192.0,0.0,0.0,0.0,0.0
1776452873596394263,3207,0.088,0.3,0.0,1.1,0.04,-0.14,0.06,0.75,1.88,0.0,-0.0,-0.32,-0.0,-0.06,-0.06,173.73,192.0,0.0,0.0,0.0,0.0
1776452873698786976,3308,0.096,0.3,0.036,0.3,0.14,-0.06,0.06,0.75,1.88,0.01,-0.0,-0.35,0.19,-0.0,0.12,173.73,193.0,0.0,0.0,0.0,0.0
1776452873797144316,3407,0.0,0.9,0.084,0.2,0.12,-0.06,0.06,0.75,1.88,0.0,-0.0,-0.3,-0.12,-0.0,0.0,173.73,195.0,0.0,0.0,0.0,0.0
1776452873899478955,3508,0.0,0.9,0.084,0.5,0.06,-0.12,0.06,0.75,1.88,0.0,-0.0,-0.34,-0.0,-0.06,0.0,173.73,195.0,0.0,0.0,0.0,0.0
1776452873997782240,3608,0.0,1.6,0.0,1.1,0.12,0.04,0.06,0.75,1.88,0.01,-0.0,-0.34,-0.19,0.12,-0.06,173.73,195.0,0.0,0.0,0.0,0.0
1776452874096081130,3707,0.096,0.2,0.0,1.1,0.08,-0.08,0.06,0.75,1.88,0.02,-0.0,-0.33,-0.0,-0.12,0.0,169.61,193.0,0.0,0.0,0.0,0.0
1776452874198450948,3807,0.088,0.1,0.0,1.2,0.06,-0.04,0.06,0.75,1.88,0.0,-0.0,-0.32,0.06,-0.0,0.06,169.61,193.0,0.0,0.0,0.0,0.0
1776452874296738523,3907,0.088,0.1,0.096,0.6,0.08,0.0,0.06,0.75,1.88,0.0,0.01,-0.35,-0.0,-0.0,-0.06,169.61,193.0,0.0,0.0,0.0,0.0
1776452874405084651,4007,0.0,0.7,0.088,0.1,0.14,-0.08,0.06,0.75,1.88,0.01,-0.0,-0.35,-0.06,0.06,-0.06,169.44,193.0,0.0,0.0,0.0,0.0
1776452874497473878,4107,0.0,0.5,0.0,1.3,0.0,-0.08,0.06,0.75,1.88,0.01,-0.0,-0.32,-0.0,-0.0,-0.06,169.61,194.0,0.0,0.0,0.0,0.0
1776452874595773416,4207,0.0,1.0,0.0,1.1,0.16,-0.23,0.06,0.75,1.88,0.0,-0.0,-0.37,0.19,-0.12,0.06,169.61,191.0,0.0,0.0,0.0,0.0
1776452874698158733,4306,0.0,0.9,0.072,0.3,0.06,-0.02,0.06,0.75,1.88,0.0,-0.01,-0.33,0.06,-0.06,-0.12,173.73,191.0,0.0,0.0,0.0,0.0
1776452874796470234,4406,0.0,1.0,0.068,0.3,0.12,-0.02,0.06,0.75,1.88,0.0,-0.0,-0.31,0.12,0.19,0.06,169.61,195.0,0.0,0.0,0.0,0.0
1776452874898861829,4507,0.0,0.9,0.076,0.5,-0.06,-0.16,0.06,0.75,1.88,0.0,-0.01,-0.33,0.06,-0.06,0.06,169.61,193.0,0.0,0.0,0.0,0.0
1776452874997169479,4606,0.0,0.9,0.076,0.5,0.14,-0.23,0.06,0.75,1.88,-0.01,-0.0,-0.33,0.12,0.06,0.06,169.61,193.0,0.0,0.0,0.0,0.0
1776452875099553401,4707,0.0,0.9,0.084,0.6,0.02,-0.27,0.06,0.75,1.88,0.0,-0.01,-0.3,-0.06,0.06,0.06,169.44,198.0,0.0,0.0,0.0,0.0
1776452875197859007,4807,0.0,-0.1,0.0,1.7,0.02,-0.02,0.06,0.75,1.88,0.0,-0.0,-0.32,-0.0,-0.12,0.0,170.64,194.0,0.0,0.0,0.0,0.0
1776452875300207134,4908,0.088,0.1,0.084,0.3,0.14,-0.04,0.06,0.75,1.88,0.0,-0.0,-0.32,-0.06,0.06,0.0,169.61,194.0,0.0,0.0,0.0,0.0
1776452875398532573,5008,0.0,1.2,0.08,0.3,0.04,-0.14,0.06,0.75,1.88,0.0,-0.0,-0.32,-0.0,0.06,0.0,169.61,190.0,0.0,0.0,0.0,0.0
1776452875500944550,5108,0.0,1.2,0.088,0.5,0.08,-0.1,0.06,0.75,1.88,0.0,-0.0,-0.34,-0.0,-0.0,0.06,169.61,188.0,0.0,0.0,0.0,0.0
1776452875599281712,5209,0.0,0.1,0.0,0.7,0.1,0.0,0.06,0.75,1.88,0.0,0.01,-0.32,-0.0,-0.0,0.06,169.44,188.0,0.0,0.0,0.0,0.0
1776452875701635597,5310,0.0,1.0,0.092,0.3,0.12,-0.12,0.06,0.75,1.88,0.0,0.01,-0.32,-0.0,-0.06,0.0,169.44,195.0,0.0,0.0,0.0,0.0
1776452875799942925,5409,0.0,0.0,0.0,0.2,0.1,-0.16,0.06,0.75,1.88,0.0,-0.0,-0.33,-0.06,-0.06,0.0,169.61,195.0,0.0,0.0,0.0,0.0
1776452875902332774,5509,0.0,1.0,0.076,0.2,-0.02,-0.12,0.06,0.75,1.88,0.0,-0.0,-0.33,-0.06,0.12,0.06,169.61,195.0,0.0,0.0,0.0,0.0
1776452876000633676,5609,0.0,1.1,0.092,0.6,0.12,-0.08,0.06,0.75,1.88,0.0,0.01,-0.34,-0.0,-0.0,0.06,169.61,192.0,0.0,0.0,0.0,0.0
1776452876098936332,5709,0.084,0.2,0.0,1.4,0.06,-0.08,0.06,0.75,1.88,0.02,-0.01,-0.33,-0.0,-0.12,0.0,173.22,192.0,0.0,0.0,0.0,0.0
1776452876201336952,5809,0.0,0.1,0.0,0.9,-0.06,-0.02,0.06,0.75,1.88,0.0,-0.01,-0.31,-0.06,-0.0,-0.12,173.04,195.0,0.0,0.0,0.0,0.0
1776452876299613182,5909,0.0,1.0,0.0,1.5,0.06,-0.02,0.06,0.75,1.88,0.0,-0.0,-0.34,-0.12,-0.0,-0.06,173.04,198.0,0.0,0.0,0.0,0.0
1776452876397887541,6008,0.088,0.2,0.0,1.4,0.06,-0.16,0.06,0.75,1.88,0.02,-0.0,-0.34,0.06,-0.06,0.06,173.22,198.0,0.0,0.0,0.0,0.0
1776452876500316660,6108,0.088,0.1,0.0,1.5,0.1,-0.08,0.06,0.75,1.88,0.02,-0.01,-0.33,0.06,-0.0,0.12,173.22,194.0,0.0,0.0,0.0,0.0
1776452876598625723,6208,0.088,0.1,0.0,1.4,0.1,-0.12,0.06,0.75,1.88,0.0,-0.0,-0.32,0.12,-0.0,0.19,173.22,195.0,0.0,0.0,0.0,0.0
1776452876706970930,6307,0.092,0.2,0.0,0.4,0.04,-0.06,0.06,0.75,1.88,0.0,-0.0,-0.34,-0.0,-0.19,0.0,173.22,195.0,0.0,0.0,0.0,0.0
1776452876799322943,6407,0.0,0.7,0.0,1.1,0.12,-0.04,0.06,0.75,1.88,0.0,-0.01,-0.33,0.06,-0.06,0.06,173.22,189.0,0.0,0.0,0.0,0.0
1776452876897612747,6507,0.084,0.2,0.0,0.2,0.21,-0.12,0.06,0.75,1.88,0.0,-0.02,-0.34,-0.0,-0.19,0.0,173.22,189.0,0.0,0.0,0.0,0.0
1776452877000011755,6606,0.0,0.2,0.0,1.5,0.2,-0.02,0.06,0.75,1.88,0.0,-0.0,-0.34,0.06,0.06,-0.06,173.22,190.0,0.0,0.0,0.0,0.0
1776452877098313739,6707,0.092,1.3,0.0,1.0,0.02,0.0,0.06,0.75,1.88,0.0,-0.0,-0.3,-0.0,0.19,0.06,173.22,193.0,0.0,0.0,0.0,0.0
1776452877200722630,6807,0.088,0.3,0.0,1.1,0.14,-0.04,0.06,0.75,1.88,0.0,-0.0,-0.33,-0.06,-0.06,-0.06,173.04,193.0,0.0,0.0,0.0,0.0
1776452877298955484,6906,0.096,0.7,0.0,1.3,0.0,-0.16,0.06,0.75,1.88,0.0,-0.0,-0.34,0.06,0.06,0.06,173.04,195.0,0.0,0.0,0.0,0.0
1776452877401357430,7007,0.084,0.2,0.0,1.4,0.14,-0.18,0.06,0.75,1.88,0.0,-0.0,-0.33,0.06,-0.0,-0.06,173.73,196.0,0.0,0.0,0.0,0.0
1776452877499689283,7107,0.088,0.1,0.0,0.3,0.18,-0.16,0.06,0.75,1.88,0.0,-0.0,-0.31,-0.0,-0.0,-0.06,173.22,196.0,0.0,0.0,0.0,0.0
1776452877598009414,7206,0.0,1.2,0.088,0.2,0.06,-0.08,0.06,0.75,1.88,0.01,-0.01,-0.35,0.12,0.12,0.0,173.73,191.0,0.0,0.0,0.0,0.0
1776452877700394491,7306,0.0,0.2,0.0,1.5,0.2,-0.18,0.06,0.75,1.88,0.02,-0.0,-0.32,-0.12,-0.0,0.06,173.22,190.0,0.0,0.0,0.0,0.0
1776452877798679955,7406,0.088,0.0,0.0,0.6,-0.02,0.02,0.06,0.75,1.88,-0.02,-0.0,-0.35,-0.06,-0.0,0.0,173.22,190.0,0.0,0.0,0.0,0.0
1776452877896986605,7505,0.0,0.0,0.072,0.5,0.0,-0.12,0.06,0.75,1.88,0.0,-0.01,-0.32,0.19,-0.06,-0.06,173.73,196.0,0.0,0.0,0.0,0.0
1776452877999377774,7605,0.0,0.7,0.076,0.2,0.02,-0.1,0.06,0.75,1.88,0.03,-0.01,-0.34,0.19,-0.06,0.0,173.04,196.0,0.0,0.0,0.0,0.0
1776452878097712528,7705,0.0,0.9,0.088,0.2,0.16,0.0,0.06,0.75,1.88,0.0,-0.0,-0.35,0.06,0.12,-0.12,173.04,189.0,0.0,0.0,0.0,0.0
1776452878195999505,7804,0.0,0.7,0.076,0.3,0.08,-0.08,0.06,0.75,1.88,0.01,-0.01,-0.33,0.06,-0.06,-0.06,173.22,193.0,0.0,0.0,0.0,0.0
1776452878298380020,7905,0.0,0.9,0.08,0.5,-0.04,-0.12,0.06,0.75,1.88,0.0,-0.0,-0.34,-0.0,-0.12,-0.06,173.04,193.0,0.0,0.0,0.0,0.0
1776452878396632849,8005,0.0,0.1,0.0,1.5,0.16,-0.14,0.06,0.75,1.88,-0.01,-0.0,-0.32,0.06,-0.0,0.0,173.73,196.0,0.0,0.0,0.0,0.0
1776452878499065937,8105,0.0,0.9,0.084,0.3,-0.02,0.04,0.06,0.75,1.88,0.01,-0.0,-0.35,0.19,0.06,-0.12,173.22,196.0,0.0,0.0,0.0,0.0
1776452878597346600,8206,0.0,0.9,0.092,0.3,0.16,-0.04,0.06,0.75,1.88,0.0,-0.0,-0.34,-0.06,-0.0,-0.06,173.22,196.0,0.0,0.0,0.0,0.0
1776452878699787632,8306,0.0,0.8,0.068,0.2,-0.04,-0.04,0.06,0.75,1.88,0.0,-0.0,-0.32,-0.0,-0.0,-0.06,173.22,191.0,0.0,0.0,0.0,0.0
1776452878802164499,8407,0.0,0.9,0.084,0.4,0.25,-0.06,0.06,0.75,1.88,0.01,-0.0,-0.32,-0.0,0.19,0.0,168.93,193.0,0.0,0.0,0.0,0.0
1776452878900455180,8508,0.0,0.1,0.0,1.4,-0.04,0.06,0.06,0.75,1.88,0.02,-0.0,-0.32,0.06,-0.0,0.0,173.22,193.0,0.0,0.0,0.0,0.0
1776452879002851009,8608,0.088,0.3,0.0,0.2,0.12,-0.16,0.06,0.75,1.88,0.01,-0.0,-0.32,-0.0,0.12,0.0,173.22,197.0,0.0,0.0,0.0,0.0
1776452879101156980,8708,0.0,1.4,0.076,0.5,-0.04,-0.08,0.06,0.75,1.88,0.02,-0.01,-0.31,-0.0,0.06,-0.06,173.73,197.0,0.0,0.0,0.0,0.0
1776452879199420526,8808,0.0,1.2,0.084,0.2,-0.02,-0.12,0.06,0.75,1.88,0.0,-0.0,-0.32,0.06,-0.06,0.06,173.04,194.0,0.0,0.0,0.0,0.0
1776452879301830423,8908,0.0,1.2,0.0,1.1,-0.04,-0.04,0.06,0.75,1.88,0.0,-0.0,-0.32,-0.06,-0.0,-0.06,173.73,195.0,0.0,0.0,0.0,0.0
1776452879400136560,9008,0.0,0.9,0.0,1.4,0.04,-0.04,0.06,0.75,1.88,0.0,-0.0,-0.33,-0.06,-0.06,-0.06,173.22,195.0,0.0,0.0,0.0,0.0
1776452879502544179,9108,0.0,1.4,0.0,1.3,0.02,-0.02,0.06,0.75,1.88,-0.01,-0.01,-0.35,-0.06,-0.0,-0.06,169.44,193.0,0.0,0.0,0.0,0.0
1776452879600907279,9207,0.084,0.1,0.0,1.2,0.04,-0.14,0.06,0.75,1.88,-0.01,-0.0,-0.34,0.06,-0.12,-0.06,169.61,193.0,0.0,0.0,0.0,0.0
1776452879703235585,9308,0.0,0.6,0.08,0.5,0.16,0.0,0.06,0.75,1.88,0.0,-0.0,-0.33,-0.06,0.19,-0.06,169.44,193.0,0.0,0.0,0.0,0.0
1776452879801566370,9408,0.0,0.2,0.0,1.3,0.02,0.0,0.06,0.75,1.88,0.01,-0.0,-0.36,0.12,-0.0,0.06,169.61,196.0,0.0,0.0,0.0,0.0
1776452879899827990,9507,0.08,0.1,0.0,1.5,-0.04,-0.25,0.06,0.75,1.88,0.0,-0.0,-0.33,-0.12,0.19,0.06,169.44,197.0,0.0,0.0,0.0,0.0
1776452880002225054,9608,0.088,0.7,0.076,0.0,-0.04,0.06,0.06,0.75,1.88,0.01,-0.0,-0.34,-0.12,0.06,-0.06,173.73,197.0,0.0,0.0,0.0,0.0
1776452880100519926,9708,0.0,0.6,0.072,0.3,0.18,0.04,0.06,0.75,1.88,0.0,-0.0,-0.36,-0.12,0.12,-0.06,169.96,193.0,0.0,0.0,0.0,0.0
1776452880203000372,9808,0.0,0.9,0.088,0.3,0.06,-0.04,0.06,0.75,1.88,-0.01,-0.0,-0.34,-0.12,0.12,-0.06,169.44,193.0,0.0,0.0,0.0,0.0
1776452880301178227,9908,0.084,1.0,0.088,0.3,0.1,-0.16,0.06,0.75,1.88,0.0,-0.01,-0.32,-0.06,-0.06,0.0,169.44,196.0,0.0,0.0,0.0,0.0
1776452880403586637,10008,0.0,0.1,0.0,1.2,0.04,0.02,0.06,0.75,1.88,0.0,-0.01,-0.35,-0.0,-0.06,0.06,169.44,197.0,0.0,0.0,0.0,0.0
1776452880501929175,10107,0.0,0.3,0.0,0.2,0.08,-0.04,0.06,0.75,1.88,0.03,-0.0,-0.36,-0.0,-0.12,0.0,169.61,197.0,0.0,0.0,0.0,0.0
1776452880600207900,10207,0.0,1.3,0.0,1.2,0.04,-0.04,0.06,0.75,1.88,0.02,-0.0,-0.34,0.06,0.06,0.06,173.73,195.0,0.0,0.0,0.0,0.0
1776452880702615346,10307,0.0,0.4,0.0,0.2,0.04,0.02,0.06,0.75,1.88,0.0,-0.0,-0.37,-0.0,-0.19,-0.12,173.73,194.0,0.0,0.0,0.0,0.0
1776452880800928515,10406,0.0,1.4,0.08,0.1,0.14,-0.02,0.06,0.75,1.88,-0.01,-0.0,-0.34,-0.19,-0.0,0.0,173.04,194.0,0.0,0.0,0.0,0.0
1776452880899175221,10506,0.0,1.4,0.08,1.4,0.1,-0.04,0.06,0.75,1.88,0.0,-0.0,-0.35,-0.0,0.06,0.0,173.22,192.0,0.0,0.0,0.0,0.0
1776452881001611297,10606,0.088,0.7,0.084,0.5,-0.02,0.0,0.06,0.75,1.88,0.0,-0.02,-0.34,-0.0,0.06,-0.12,173.22,193.0,0.0,0.0,0.0,0.0
1776452881099909183,10706,0.0,0.6,0.0,0.5,-0.02,0.08,0.06,0.75,1.88,0.0,-0.0,-0.34,0.06,0.19,-0.06,173.22,193.0,0.0,0.0,0.0,0.0
1776452881202318271,10806,0.0,1.5,0.088,0.1,0.0,-0.1,0.06,0.75,1.88,0.0,-0.0,-0.34,-0.06,-0.19,-0.12,173.22,196.0,0.0,0.0,0.0,0.0
1776452881300608212,10906,0.0,0.1,0.0,1.0,0.06,-0.08,0.06,0.75,1.88,0.0,-0.0,-0.36,-0.0,0.06,-0.06,173.04,196.0,0.0,0.0,0.0,0.0
1776452881398859986,11005,0.084,0.3,0.0,1.2,0.1,-0.1,0.06,0.75,1.88,0.01,-0.01,-0.35,0.06,-0.06,-0.06,169.61,193.0,0.0,0.0,0.0,0.0
1776452881501298574,11105,0.0,0.1,0.0,0.1,0.14,0.0,0.06,0.75,1.88,0.0,-0.0,-0.36,-0.0,0.12,0.06,173.73,193.0,0.0,0.0,0.0,0.0
1776452881599654829,11206,0.0,1.3,0.076,0.2,0.16,-0.12,0.06,0.75,1.88,0.0,-0.0,-0.34,-0.12,-0.0,-0.12,173.73,193.0,0.0,0.0,0.0,0.0
1776452881701986826,11305,0.0,1.4,0.08,0.3,0.06,-0.1,0.06,0.75,1.88,0.0,-0.02,-0.33,0.06,0.06,-0.06,173.73,195.0,0.0,0.0,0.0,0.0
1776452881800288896,11406,0.0,1.2,0.088,0.8,-0.02,0.02,0.06,0.75,1.88,0.0,-0.0,-0.32,0.19,0.06,0.0,169.44,195.0,0.0,0.0,0.0,0.0
1776452881902686522,11506,0.0,0.1,0.0,1.4,0.04,-0.08,0.06,0.75,1.88,0.0,-0.0,-0.35,-0.0,-0.06,0.12,173.73,195.0,0.0,0.0,0.0,0.0
1776452882000989092,11606,0.084,0.1,0.0,1.5,0.08,-0.18,0.06,0.75,1.88,0.0,-0.0,-0.35,-0.0,-0.06,0.06,169.61,192.0,0.0,0.0,0.0,0.0
1776452882103383675,11706,0.084,0.2,0.0,0.4,0.0,0.0,0.06,0.75,1.88,0.0,-0.0,-0.35,-0.12,-0.0,0.12,169.61,194.0,0.0,0.0,0.0,0.0
1776452882201685443,11807,0.088,0.0,0.072,0.6,0.12,-0.08,0.06,0.75,1.88,0.0,-0.0,-0.36,-0.0,-0.06,0.0,169.44,194.0,0.0,0.0,0.0,0.0
1776452882304137951,11907,0.0,0.4,0.0,1.5,0.02,0.0,0.06,0.75,1.88,0.03,-0.0,-0.35,-0.12,-0.0,-0.06,169.61,194.0,0.0,0.0,0.0,0.0
1776452882402341498,12007,0.0,0.3,0.0,1.0,-0.02,0.06,0.06,0.75,1.88,0.0,-0.0,-0.35,0.12,-0.19,0.0,169.61,194.0,0.0,0.0,0.0,0.0
1776452882500646229,12107,0.092,0.2,0.0,1.1,0.1,-0.06,0.06,0.75,1.88,0.0,-0.02,-0.31,-0.06,0.12,0.0,169.61,196.0,0.0,0.0,0.0,0.0
1776452882603068237,12207,0.0,0.9,0.076,0.2,0.12,-0.02,0.06,0.75,1.88,0.0,0.02,-0.33,-0.0,0.06,0.0,169.61,195.0,0.0,0.0,0.0,0.0
1776452882705462819,12308,0.0,0.9,0.072,0.6,0.1,0.0,0.06,0.75,1.88,0.01,-0.02,-0.34,-0.0,-0.0,0.12,169.61,195.0,0.0,0.0,0.0,0.0
1776452882803756384,12408,0.088,0.1,0.0,0.3,0.06,-0.16,0.06,0.75,1.88,0.0,-0.02,-0.34,-0.0,-0.12,-0.06,169.61,196.0,0.0,0.0,0.0,0.0
1776452882906151929,12508,0.0,1.4,0.0,0.8,0.1,-0.06,0.06,0.75,1.88,0.0,-0.01,-0.34,-0.0,-0.12,0.0,169.44,193.0,0.0,0.0,0.0,0.0
1776452883004466771,12609,0.0,0.0,0.0,1.5,-0.02,0.04,0.06,0.75,1.88,0.0,-0.01,-0.34,0.06,-0.0,0.0,169.44,193.0,0.0,0.0,0.0,0.0
1776452883102710127,12708,0.0,1.1,0.08,0.6,0.08,-0.06,0.06,0.75,1.88,0.0,-0.0,-0.35,0.06,-0.06,0.0,169.61,196.0,0.0,0.0,0.0,0.0
1776452883205178387,12809,0.0,1.4,0.076,0.6,0.23,0.02,0.06,0.75,1.88,0.01,-0.0,-0.3,-0.0,-0.0,-0.06,169.61,194.0,0.0,0.0,0.0,0.0
1776452883307536409,12910,0.0,0.1,0.0,0.9,0.12,-0.02,0.06,0.75,1.88,0.0,-0.0,-0.34,0.12,0.06,0.0,169.61,194.0,0.0,0.0,0.0,0.0
1776452883405827393,13009,0.092,0.3,0.0,1.0,0.06,0.1,0.06,0.75,1.88,0.0,-0.0,-0.33,-0.0,-0.06,-0.12,169.61,195.0,0.0,0.0,0.0,0.0
1776452883508233210,13110,0.088,0.1,0.0,1.0,0.16,-0.16,0.06,0.75,1.88,0.0,-0.0,-0.34,-0.06,-0.0,-0.06,173.73,195.0,0.0,0.0,0.0,0.0
1776452883606544491,13210,0.088,0.0,0.0,1.1,0.12,-0.06,0.06,0.75,1.88,0.0,-0.0,-0.33,-0.19,-0.06,0.0,173.73,195.0,0.0,0.0,0.0,0.0
1776452883704835327,13310,0.0,0.6,0.0,1.4,0.21,-0.12,0.06,0.75,1.88,0.01,-0.0,-0.32,-0.0,0.12,-0.06,173.22,193.0,0.0,0.0,0.0,0.0
1776452883807235885,13410,0.088,-0.1,0.0,1.5,0.08,-0.12,0.06,0.75,1.88,0.0,0.01,-0.33,-0.06,-0.0,-0.12,173.73,193.0,0.0,0.0,0.0,0.0
1776452883905524962,13510,0.084,0.1,0.0,0.2,0.02,-0.21,0.06,0.75,1.88,0.0,-0.01,-0.31,-0.12,-0.0,0.0,169.44,194.0,0.0,0.0,0.0,0.0
1776452884007926650,13611,0.0,1.2,0.08,0.3,0.14,-0.06,0.06,0.75,1.88,0.02,-0.0,-0.32,-0.12,-0.06,0.0,173.73,194.0,0.0,0.0,0.0,0.0
1776452884106199962,13711,0.0,1.3,0.0,1.2,-0.12,-0.23,0.06,0.75,1.88,0.02,-0.0,-0.33,0.06,-0.0,0.19,169.44,194.0,0.0,0.0,0.0,0.0
1776452884208617754,13811,0.0,0.6,0.0,1.4,0.16,-0.21,0.06,0.75,1.88,0.02,-0.0,-0.34,-0.06,-0.06,-0.06,169.61,193.0,0.0,0.0,0.0,0.0
1776452884311018528,13912,0.0,1.2,0.072,0.1,-0.08,-0.12,0.06,0.75,1.88,-0.01,-0.0,-0.35,-0.0,-0.12,0.0,169.61,194.0,0.0,0.0,0.0,0.0
1776452884409275434,14012,0.0,1.2,0.08,0.4,-0.04,-0.21,0.06,0.75,1.88,0.0,-0.01,-0.31,0.06,0.06,0.0,169.44,194.0,0.0,0.0,0.0,0.0
1776452884507582264,14112,0.0,1.3,0.0,0.5,0.08,0.02,0.06,0.75,1.88,0.0,-0.01,-0.33,-0.0,0.19,0.0,169.61,193.0,0.0,0.0,0.0,0.0
1776452884610015371,14213,0.0,0.9,0.0,0.1,0.16,-0.06,0.06,0.75,1.88,0.0,-0.01,-0.31,-0.0,0.06,0.0,173.73,194.0,0.0,0.0,0.0,0.0
1776452884712402460,14314,0.0,1.2,0.0,1.1,-0.06,-0.06,0.06,0.75,1.88,0.0,-0.0,-0.32,-0.0,0.12,-0.06,173.73,194.0,0.0,0.0,0.0,0.0
1776452884810702883,14413,0.088,0.3,0.0,1.2,0.16,-0.08,0.06,0.75,1.88,0.0,-0.0,-0.35,-0.0,0.12,0.06,169.61,195.0,0.0,0.0,0.0,0.0
1776452884913109471,14514,0.0,0.0,0.0,0.3,0.18,-0.14,0.06,0.75,1.88,0.0,0.02,-0.33,-0.06,-0.19,0.06,169.61,195.0,0.0,0.0,0.0,0.0
1776452885011401857,14614,0.0,1.1,0.0,1.2,0.1,-0.1,0.06,0.75,1.88,0.0,-0.0,-0.34,-0.0,0.12,0.06,173.73,195.0,0.0,0.0,0.0,0.0
1776452885109700663,14713,0.088,0.2,0.0,1.3,0.04,0.04,0.06,0.75,1.88,0.0,-0.0,-0.33,-0.06,0.25,-0.06,173.73,193.0,0.0,0.0,0.0,0.0
1776452885212105357,14814,0.0,0.7,0.0,1.5,-0.02,-0.12,0.06,0.75,1.88,0.01,-0.02,-0.32,-0.12,0.06,0.0,169.61,193.0,0.0,0.0,0.0,0.0
1776452885310361182,14914,0.088,0.2,0.0,1.5,0.04,-0.04,0.06,0.75,1.88,0.0,-0.0,-0.32,-0.19,0.06,0.06,169.61,194.0,0.0,0.0,0.0,0.0
1776452885408638341,15013,0.0,0.0,0.084,0.6,-0.04,-0.18,0.06,0.75,1.88,0.0,-0.01,-0.33,0.06,-0.0,-0.12,169.61,192.0,0.0,0.0,0.0,0.0
1776452885511084812,15113,0.0,0.2,0.0,1.4,0.0,-0.08,0.06,0.75,1.88,0.0,-0.0,-0.34,0.06,-0.0,-0.06,169.61,192.0,0.0,0.0,0.0,0.0
1776452885609392655,15213,0.0,1.1,0.0,0.4,0.08,-0.14,0.06,0.75,1.88,0.0,-0.0,-0.32,-0.0,0.12,0.12,169.61,192.0,0.0,0.0,0.0,0.0
1776452885711783515,15312,0.088,0.2,0.08,0.4,-0.14,0.0,0.06,0.75,1.88,0.01,-0.0,-0.32,0.06,-0.0,0.06,169.44,194.0,0.0,0.0,0.0,0.0
1776452885810101654,15412,0.0,1.1,0.088,0.2,0.14,-0.18,0.06,0.75,1.88,0.0,-0.02,-0.33,0.06,0.12,0.12,169.44,194.0,0.0,0.0,0.0,0.0
1776452885908349350,15512,0.0,0.2,0.0,1.1,0.12,0.04,0.06,0.75,1.88,0.0,-0.01,-0.32,0.06,-0.0,-0.06,169.44,192.0,0.0,0.0,0.0,0.0
1776452886010783951,15612,0.088,0.3,0.0,1.0,0.08,0.06,0.06,0.75,1.88,0.0,-0.0,-0.34,-0.0,-0.06,0.0,173.73,192.0,0.0,0.0,0.0,0.0
1776452886113165565,15713,0.0,0.9,0.0,1.6,0.04,-0.06,0.06,0.75,1.88,0.01,-0.01,-0.35,0.12,-0.12,0.06,173.22,194.0,0.0,0.0,0.0,0.0
1776452886211488495,15814,0.092,0.1,0.0,1.6,0.02,-0.12,0.06,0.75,1.88,0.01,-0.0,-0.32,0.06,0.06,0.0,173.22,192.0,0.0,0.0,0.0,0.0
1776452886309777351,15913,0.092,-0.1,0.0,0.3,0.0,-0.12,0.06,0.75,1.88,0.0,-0.0,-0.33,-0.06,0.06,0.06,169.61,192.0,0.0,0.0,0.0,0.0
1776452886412128613,16013,0.0,1.5,0.08,0.5,0.08,-0.18,0.06,0.75,1.88,0.0,-0.0,-0.35,-0.06,-0.12,0.0,169.61,191.0,0.0,0.0,0.0,0.0
1776452886514574152,16114,0.0,0.3,0.08,0.3,-0.02,-0.1,0.06,0.75,1.88,0.0,-0.0,-0.33,-0.19,0.06,-0.12,169.44,197.0,0.0,0.0,0.0,0.0
1776452886612861508,16215,0.0,0.9,0.084,0.3,-0.02,-0.2,0.06,0.75,1.88,0.0,-0.0,-0.33,-0.12,0.12,0.06,169.44,197.0,0.0,0.0,0.0,0.0
1776452886711121865,16315,0.0,0.3,0.0,1.4,-0.02,-0.2,0.06,0.75,1.88,0.0,-0.01,-0.33,-0.12,0.19,0.06,169.61,193.0,0.0,0.0,0.0,0.0
1776452886813581052,16414,0.0,1.3,0.092,0.3,0.06,0.0,0.06,0.75,1.88,0.0,-0.0,-0.34,-0.0,-0.12,0.0,169.61,193.0,0.0,0.0,0.0,0.0
1776452886915948758,16515,0.02,0.5,0.0,1.2,0.0,-0.06,0.06,0.75,1.88,0.0,-0.0,-0.3,-0.06,0.06,0.12,169.61,193.0,0.0,0.0,0.0,0.0
1776452887014246003,16615,0.008,1.1,0.0,1.4,0.04,-0.02,0.06,0.75,1.88,0.0,-0.0,-0.32,0.12,-0.0,0.06,169.61,193.0,0.0,0.0,0.0,0.0
1776452887112541353,16714,0.088,1.4,0.076,0.1,0.06,-0.02,0.06,0.75,1.88,0.0,-0.0,-0.34,-0.0,-0.0,0.0,173.73,193.0,0.0,0.0,0.0,0.0
1776452887214951109,16814,0.0,1.3,0.084,0.1,0.18,-0.08,0.06,0.75,1.88,0.0,-0.0,-0.31,-0.06,0.06,-0.12,173.73,194.0,0.0,0.0,0.0,0.0
1776452887313193034,16914,0.0,1.0,0.076,0.2,0.1,-0.1,0.06,0.75,1.88,0.0,-0.01,-0.31,-0.0,-0.06,0.0,173.73,196.0,0.0,0.0,0.0,0.0
1776452887411534680,17014,0.0,0.2,0.0,1.5,0.14,-0.06,0.06,0.75,1.88,0.0,-0.01,-0.33,0.06,-0.0,0.06,173.73,196.0,0.0,0.0,0.0,0.0
1776452887513922399,17114,0.088,0.4,0.068,0.2,-0.06,-0.14,0.06,0.75,1.88,-0.01,-0.0,-0.33,0.06,0.12,0.12,169.61,195.0,0.0,0.0,0.0,0.0
1776452887612251582,17214,0.0,1.5,0.088,0.2,0.0,0.14,0.06,0.75,1.88,0.0,-0.01,-0.32,0.06,-0.12,0.12,173.73,191.0,0.0,0.0,0.0,0.0
1776452887714647838,17314,0.0,1.5,0.08,0.6,0.14,0.06,0.06,0.75,1.88,0.0,0.01,-0.3,-0.0,0.06,0.12,173.73,191.0,0.0,0.0,0.0,0.0
1776452887812991225,17414,0.0,1.1,0.08,0.3,-0.1,-0.12,0.06,0.75,1.88,0.0,-0.0,-0.31,-0.0,-0.0,-0.06,173.04,191.0,0.0,0.0,0.0,0.0
1776452887911184298,17514,0.0,1.2,0.088,0.3,-0.04,-0.08,0.06,0.75,1.88,0.0,0.01,-0.3,-0.0,-0.12,0.06,173.22,196.0,0.0,0.0,0.0,0.0
1776452888013629387,17613,0.0,1.4,0.092,0.5,-0.02,-0.12,0.06,0.75,1.88,0.01,-0.0,-0.34,-0.12,-0.0,0.12,173.22,196.0,0.0,0.0,0.0,0.0
1776452888111920620,17713,0.0,0.1,0.0,1.0,0.0,-0.06,0.06,0.75,1.88,0.01,-0.0,-0.35,0.06,-0.0,-0.06,173.04,193.0,0.0,0.0,0.0,0.0
1776452888214328926,17813,0.096,0.2,0.0,1.0,0.08,-0.12,0.06,0.75,1.88,-0.01,-0.01,-0.32,-0.06,-0.0,0.0,173.04,193.0,0.0,0.0,0.0,0.0
1776452888312578456,17914,0.088,0.5,0.0,1.4,0.14,-0.12,0.06,0.75,1.88,0.0,-0.0,-0.32,-0.0,-0.06,0.06,173.22,195.0,0.0,0.0,0.0,0.0
1776452888415031131,18014,0.088,0.4,0.088,0.3,0.06,-0.04,0.06,0.75,1.88,0.0,-0.0,-0.34,-0.0,-0.06,-0.12,173.04,195.0,0.0,0.0,0.0,0.0
1776452888513321587,18115,0.092,0.3,0.0,0.9,0.14,0.02,0.06,0.75,1.88,0.01,-0.01,-0.34,-0.06,0.19,-0.06,173.22,195.0,0.0,0.0,0.0,0.0
1776452888615720744,18214,0.092,0.9,0.08,0.5,0.12,-0.04,0.06,0.75,1.88,0.0,-0.01,-0.32,-0.06,-0.12,-0.12,173.73,192.0,0.0,0.0,0.0,0.0
1776452888714007496,18315,0.0,0.4,0.0,1.6,0.0,-0.12,0.06,0.75,1.88,0.0,-0.0,-0.33,-0.06,-0.06,0.06,169.61,194.0,0.0,0.0,0.0,0.0
1776452888816403727,18415,0.0,1.2,0.084,0.4,0.08,-0.06,0.06,0.75,1.88,0.0,-0.0,-0.33,-0.0,0.12,0.12,169.61,194.0,0.0,0.0,0.0,0.0
1776452888914699386,18515,0.0,1.3,0.084,0.3,0.06,-0.23,0.06,0.75,1.88,0.0,-0.0,-0.33,-0.06,0.06,0.12,169.44,195.0,0.0,0.0,0.0,0.0
1776452889017151599,18615,0.0,1.8,0.088,0.5,0.06,-0.08,0.06,0.75,1.88,0.0,-0.0,-0.31,0.12,-0.19,0.0,169.61,196.0,0.0,0.0,0.0,0.0
1776452889115399697,18715,0.0,1.1,0.08,0.3,0.2,0.04,0.06,0.75,1.88,-0.02,-0.01,-0.33,-0.0,0.06,0.06,169.61,196.0,0.0,0.0,0.0,0.0
1776452889213696462,18814,0.0,1.3,0.076,0.2,0.04,-0.02,0.06,0.75,1.88,0.0,-0.0,-0.33,0.06,-0.0,-0.06,169.44,193.0,0.0,0.0,0.0,0.0
1776452889316049299,18914,0.0,1.2,0.08,0.5,0.12,0.0,0.06,0.75,1.88,0.0,-0.01,-0.33,0.06,-0.12,-0.06,169.61,195.0,0.0,0.0,0.0,0.0
1776452889414367489,19015,0.0,1.3,0.0,1.3,0.1,-0.06,0.06,0.75,1.88,0.0,-0.0,-0.33,0.06,0.12,0.0,169.44,195.0,0.0,0.0,0.0,0.0
1776452889516781640,19116,0.088,0.3,0.0,1.0,-0.08,-0.1,0.06,0.75,1.88,0.0,-0.0,-0.34,-0.0,0.19,0.12,169.61,193.0,0.0,0.0,0.0,0.0
1776452889615046294,19216,0.0,0.9,0.08,0.3,0.02,-0.16,0.06,0.75,1.88,0.0,0.01,-0.31,0.25,-0.06,0.0,169.61,193.0,0.0,0.0,0.0,0.0
1776452889717475779,19316,0.0,1.0,0.088,0.5,0.16,-0.18,0.06,0.75,1.88,0.0,-0.01,-0.32,-0.0,-0.06,-0.06,169.61,191.0,0.0,0.0,0.0,0.0
1776452889815749655,19416,0.0,1.0,0.08,0.4,0.08,-0.1,0.06,0.75,1.88,0.0,-0.02,-0.32,-0.0,0.06,0.06,169.61,192.0,0.0,0.0,0.0,0.0
1776452889918173306,19517,0.0,0.8,0.084,0.2,0.12,-0.04,0.06,0.75,1.88,0.0,-0.01,-0.33,-0.06,0.12,-0.06,169.61,192.0,0.0,0.0,0.0,0.0
1776452890020565179,19618,0.0,0.9,0.084,0.5,0.18,-0.06,0.06,0.75,1.88,0.02,-0.0,-0.31,0.06,-0.12,-0.06,169.44,193.0,0.0,0.0,0.0,0.0
1776452890118871919,19718,0.0,0.1,0.084,0.4,0.2,-0.1,0.06,0.75,1.88,0.0,-0.02,-0.32,0.12,-0.25,0.0,169.61,194.0,0.0,0.0,0.0,0.0
1776452890217176234,19818,0.0,1.1,0.0,1.0,0.04,-0.1,0.06,0.75,1.88,0.0,-0.0,-0.3,0.06,-0.0,-0.06,169.44,194.0,0.0,0.0,0.0,0.0
1776452890319531398,19917,0.0,0.8,0.088,0.2,0.1,-0.02,0.06,0.75,1.88,0.01,-0.0,-0.33,-0.06,-0.0,-0.06,173.73,194.0,0.0,0.0,0.0,0.0
1776452890417824620,20018,0.0,0.7,0.0,0.5,0.02,-0.04,0.06,0.75,1.88,0.0,-0.0,-0.32,0.06,0.06,0.06,169.61,194.0,0.0,0.0,0.0,0.0
1776452890520250821,20119,0.0,1.4,0.0,1.3,0.02,-0.16,0.06,0.75,1.88,0.02,-0.01,-0.31,-0.0,0.06,0.0,173.73,193.0,0.0,0.0,0.0,0.0
1776452890618553024,20218,0.092,0.2,0.0,0.9,0.08,-0.14,0.06,0.75,1.88,0.01,-0.0,-0.35,-0.06,-0.0,0.0,169.44,193.0,0.0,0.0,0.0,0.0
1776452890720950151,20318,0.0,0.3,0.0,1.5,0.1,0.02,0.06,0.75,1.88,0.0,-0.0,-0.35,0.06,-0.0,-0.12,173.56,193.0,0.0,0.0,0.0,0.0
1776452890819257872,20418,0.0,1.3,0.0,1.3,-0.02,-0.04,0.06,0.75,1.88,0.01,-0.01,-0.35,-0.0,-0.0,0.06,173.22,194.0,0.0,0.0,0.0,0.0
1776452890917570279,20517,0.088,0.0,0.0,1.0,0.06,-0.06,0.06,0.75,1.88,0.0,-0.0,-0.35,0.12,0.06,-0.06,173.22,193.0,0.0,0.0,0.0,0.0
1776452891019930351,20618,0.0,0.9,0.08,0.5,0.04,-0.1,0.06,0.75,1.88,0.0,-0.0,-0.34,0.06,0.06,0.0,173.22,193.0,0.0,0.0,0.0,0.0
1776452891118230789,20718,0.0,1.0,0.084,0.3,0.1,-0.14,0.06,0.75,1.88,-0.03,-0.0,-0.35,-0.0,-0.06,0.06,173.04,194.0,0.0,0.0,0.0,0.0
1776452891220602762,20817,0.0,0.7,0.092,0.2,0.02,-0.16,0.06,0.75,1.88,0.0,-0.0,-0.33,-0.0,0.19,0.12,173.04,193.0,0.0,0.0,0.0,0.0
1776452891318898645,20918,0.0,0.5,0.088,0.6,0.08,-0.23,0.06,0.75,1.88,0.01,-0.0,-0.33,0.19,-0.0,0.06,173.22,193.0,0.0,0.0,0.0,0.0
1776452891421312395,21018,0.0,1.2,0.088,0.2,0.1,-0.04,0.06,0.75,1.88,0.0,-0.0,-0.36,-0.0,-0.0,-0.06,173.22,194.0,0.0,0.0,0.0,0.0
1776452891519630093,21118,0.0,1.4,0.072,0.5,0.1,0.02,0.06,0.75,1.88,0.0,-0.0,-0.32,-0.0,-0.12,-0.06,173.56,193.0,0.0,0.0,0.0,0.0
1776452891622032880,21218,0.0,0.4,0.0,0.0,0.14,0.04,0.06,0.75,1.88,0.0,-0.0,-0.33,0.06,-0.0,0.0,173.73,193.0,0.0,0.0,0.0,0.0
1776452891720319801,21318,0.0,0.8,0.0,1.5,0.04,-0.06,0.06,0.75,1.88,0.01,-0.02,-0.33,-0.0,-0.0,-0.06,173.73,196.0,0.0,0.0,0.0,0.0
1776452891822720107,21419,0.088,0.5,0.0,1.6,0.16,0.02,0.06,0.75,1.88,0.01,-0.01,-0.31,-0.06,0.06,-0.06,169.61,196.0,0.0,0.0,0.0,0.0
1776452891921014860,21519,0.088,0.3,0.0,1.1,0.23,-0.14,0.06,0.75,1.88,0.0,0.01,-0.34,-0.0,-0.12,-0.06,173.04,196.0,0.0,0.0,0.0,0.0
1776452892023418554,21620,0.0,1.2,0.076,0.3,0.0,0.06,0.06,0.75,1.88,0.01,-0.02,-0.34,-0.06,-0.06,0.0,173.22,195.0,0.0,0.0,0.0,0.0
1776452892121759912,21720,0.0,0.1,0.0,0.5,-0.08,-0.1,0.06,0.75,1.88,0.0,-0.0,-0.35,-0.0,-0.12,0.12,173.22,195.0,0.0,0.0,0.0,0.0
1776452892224083492,21820,0.0,0.1,0.0,1.3,0.04,0.02,0.06,0.75,1.88,0.0,-0.0,-0.31,0.06,0.12,-0.06,173.04,193.0,0.0,0.0,0.0,0.0
1776452892322395572,21920,0.084,0.5,0.0,0.3,0.02,-0.21,0.06,0.75,1.88,0.0,-0.0,-0.34,0.12,0.12,0.0,169.61,193.0,0.0,0.0,0.0,0.0
1776452892430773084,22020,0.0,0.5,0.0,1.3,0.0,-0.16,0.06,0.75,1.88,0.0,-0.0,-0.33,0.06,-0.0,0.06,169.61,193.0,0.0,0.0,0.0,0.0
1776452892523109823,22120,0.088,0.5,0.0,1.4,-0.12,-0.06,0.06,0.75,1.88,0.0,-0.0,-0.33,-0.12,-0.0,-0.06,169.61,192.0,0.0,0.0,0.0,0.0
1776452892621402497,22219,0.0,1.1,0.0,0.4,0.0,-0.12,0.06,0.75,1.88,0.0,-0.0,-0.33,-0.12,-0.0,-0.06,169.44,194.0,0.0,0.0,0.0,0.0
1776452892723788279,22320,0.0,1.4,0.08,0.4,-0.06,-0.2,0.06,0.75,1.88,0.0,-0.0,-0.34,-0.12,-0.0,-0.06,169.61,194.0,0.0,0.0,0.0,0.0
1776452892822091082,22420,0.0,1.2,0.0,0.3,-0.06,-0.16,0.06,0.75,1.88,0.01,-0.0,-0.33,-0.0,-0.0,-0.06,169.61,195.0,0.0,0.0,0.0,0.0
1776452892920389793,22519,0.0,-0.2,0.0,1.6,0.18,-0.14,0.06,0.75,1.88,0.01,-0.0,-0.34,0.12,-0.06,0.0,169.61,195.0,0.0,0.0,0.0,0.0
1776452893022797278,22619,0.084,0.3,0.0,1.5,0.06,-0.14,0.06,0.75,1.88,0.01,-0.0,-0.35,-0.0,0.19,0.0,169.61,194.0,0.0,0.0,0.0,0.0
1776452893121079039,22719,0.0,1.1,0.076,0.1,0.02,-0.04,0.06,0.75,1.88,0.0,-0.01,-0.36,-0.0,-0.0,0.12,169.44,194.0,0.0,0.0,0.0,0.0
1776452893223486796,22819,0.0,0.3,0.0,0.4,-0.08,-0.12,0.06,0.75,1.88,0.0,-0.0,-0.33,-0.06,0.06,-0.06,169.61,194.0,0.0,0.0,0.0,0.0
1776452893325831202,22920,0.0,0.2,0.0,1.3,0.0,0.02,0.06,0.75,1.88,0.0,0.01,-0.32,-0.12,-0.06,-0.06,169.61,196.0,0.0,0.0,0.0,0.0
1776452893424138370,23021,0.092,0.2,0.0,1.6,0.08,-0.12,0.06,0.75,1.88,0.0,-0.01,-0.33,0.06,-0.19,0.0,169.61,193.0,0.0,0.0,0.0,0.0
1776452893522471408,23120,0.084,0.4,0.0,0.6,0.14,-0.14,0.06,0.75,1.88,0.02,-0.01,-0.35,0.06,-0.0,0.06,169.61,193.0,0.0,0.0,0.0,0.0
1776452893624923720,23220,0.0,0.2,0.0,1.3,0.0,-0.14,0.06,0.75,1.88,0.0,-0.0,-0.37,-0.06,-0.06,-0.06,173.73,193.0,0.0,0.0,0.0,0.0
1776452893723152259,23321,0.088,0.1,0.076,0.4,0.0,-0.2,0.06,0.75,1.88,0.0,-0.0,-0.35,0.06,-0.0,0.0,173.22,193.0,0.0,0.0,0.0,0.0
1776452893825581257,23421,0.0,0.7,0.092,0.5,0.06,0.0,0.06,0.75,1.88,0.0,-0.0,-0.33,-0.06,0.06,0.06,173.04,193.0,0.0,0.0,0.0,0.0
1776452893923830221,23521,0.0,1.3,0.084,0.5,-0.12,-0.06,0.06,0.75,1.88,0.0,-0.0,-0.34,-0.0,0.06,-0.06,173.22,194.0,0.0,0.0,0.0,0.0
1776452894026259922,23622,0.0,1.3,0.084,0.1,0.06,-0.21,0.06,0.75,1.88,0.0,-0.0,-0.35,-0.06,-0.0,0.0,172.01,195.0,0.0,0.0,0.0,0.0
1776452894124551547,23721,0.0,1.2,0.0,0.3,0.1,-0.1,0.06,0.75,1.88,0.0,-0.0,-0.32,0.06,-0.0,0.06,173.73,195.0,0.0,0.0,0.0,0.0
1776452894222865672,23821,0.0,0.7,0.092,0.7,0.1,-0.2,0.06,0.75,1.88,0.02,-0.02,-0.32,-0.0,-0.0,0.0,173.22,195.0,0.0,0.0,0.0,0.0
1776452894325208961,23920,0.0,1.0,0.092,0.2,0.08,-0.14,0.06,0.75,1.88,0.0,-0.0,-0.35,-0.0,0.06,0.06,173.73,195.0,0.0,0.0,0.0,0.0
1776452894423515160,24019,0.088,0.3,0.0,0.8,0.02,-0.16,0.06,0.75,1.88,0.0,-0.0,-0.37,0.06,-0.0,0.0,169.61,195.0,0.0,0.0,0.0,0.0
1776452894525948374,24120,0.0,1.3,0.076,0.2,0.12,0.02,0.06,0.75,1.88,0.01,-0.0,-0.32,-0.0,0.06,0.06,169.61,197.0,0.0,0.0,0.0,0.0
1776452894624261314,24220,0.0,1.1,0.0,1.4,0.1,-0.08,0.06,0.75,1.88,0.01,-0.0,-0.35,-0.0,-0.12,0.06,169.61,197.0,0.0,0.0,0.0,0.0
1776452894722542236,24320,0.092,0.3,0.0,1.4,0.12,-0.02,0.06,0.75,1.88,0.01,-0.0,-0.33,-0.06,-0.06,-0.06,169.61,192.0,0.0,0.0,0.0,0.0
1776452894824936062,24420,0.0,0.0,0.0,0.4,0.06,0.04,0.06,0.75,1.88,0.0,-0.01,-0.35,0.06,-0.0,-0.06,169.61,194.0,0.0,0.0,0.0,0.0
1776452894923180484,24521,0.0,1.2,0.088,0.3,0.0,-0.12,0.06,0.75,1.88,0.01,-0.0,-0.32,0.06,-0.06,0.06,169.61,194.0,0.0,0.0,0.0,0.0
1776452895025637790,24621,0.0,1.4,0.0,1.0,0.1,-0.06,0.06,0.75,1.88,0.01,-0.01,-0.35,0.12,-0.12,-0.06,169.61,195.0,0.0,0.0,0.0,0.0
1776452895123946094,24721,0.0,0.8,0.072,0.5,0.04,-0.08,0.06,0.75,1.88,0.0,-0.0,-0.35,0.19,-0.06,0.06,169.44,195.0,0.0,0.0,0.0,0.0
1776452895226320711,24821,0.0,0.5,0.0,1.2,-0.02,0.02,0.06,0.75,1.88,0.0,-0.0,-0.34,-0.0,0.06,0.06,169.61,194.0,0.0,0.0,0.0,0.0
1776452895328685512,24922,0.092,0.4,0.0,1.2,-0.04,0.12,0.06,0.75,1.88,0.0,-0.0,-0.34,-0.0,-0.19,-0.19,169.61,193.0,0.0,0.0,0.0,0.0
1776452895427016057,25023,0.0,0.1,0.0,0.7,0.04,-0.12,0.06,0.75,1.88,0.0,-0.0,-0.33,-0.12,0.12,-0.06,173.22,193.0,0.0,0.0,0.0,0.0
1776452895529419062,25123,0.0,1.3,0.084,0.3,0.0,-0.1,0.06,0.75,1.88,0.02,-0.0,-0.33,-0.0,0.06,0.12,173.73,195.0,0.0,0.0,0.0,0.0
1776452895627698201,25224,0.0,1.3,0.088,0.6,-0.04,-0.06,0.06,0.75,1.88,0.0,-0.0,-0.34,-0.12,-0.0,0.12,173.73,197.0,0.0,0.0,0.0,0.0
1776452895736034787,25324,0.0,1.2,0.084,0.3,0.12,-0.12,0.06,0.75,1.88,-0.01,-0.0,-0.35,-0.06,-0.0,-0.12,169.61,197.0,0.0,0.0,0.0,0.0
1776452895828413288,25423,0.0,1.3,0.088,0.5,0.2,-0.12,0.06,0.75,1.88,0.01,-0.01,-0.32,-0.06,-0.0,-0.06,169.44,195.0,0.0,0.0,0.0,0.0
1776452895936764726,25523,0.0,1.1,0.0,0.6,-0.02,0.1,0.06,0.75,1.88,0.0,-0.0,-0.34,-0.06,-0.12,0.06,169.44,197.0,0.0,0.0,0.0,0.0
1776452896029102893,25624,0.0,0.3,0.0,1.4,-0.06,-0.18,0.06,0.75,1.88,0.01,0.01,-0.34,-0.0,-0.06,-0.06,173.22,197.0,0.0,0.0,0.0,0.0
1776452896127399063,25723,0.0,0.3,0.0,1.3,0.02,-0.1,0.06,0.75,1.88,0.0,-0.02,-0.33,-0.06,0.06,0.06,173.04,195.0,0.0,0.0,0.0,0.0
1776452896229764007,25824,0.088,0.0,0.0,1.1,0.08,-0.1,0.06,0.75,1.88,0.0,-0.0,-0.34,-0.06,-0.19,0.0,173.73,196.0,0.0,0.0,0.0,0.0
1776452896328055251,25925,0.088,0.4,0.0,0.5,0.0,-0.12,0.06,0.75,1.88,0.0,-0.0,-0.32,-0.19,0.06,0.0,173.73,196.0,0.0,0.0,0.0,0.0
1776452896430494805,26024,0.0,0.6,0.076,0.5,0.1,-0.16,0.06,0.75,1.88,0.0,-0.0,-0.34,0.06,0.06,0.0,173.22,194.0,0.0,0.0,0.0,0.0
1776452896528794956,26124,0.0,0.9,0.072,0.4,0.16,-0.12,0.06,0.75,1.88,0.02,-0.0,-0.36,0.12,-0.0,0.0,173.04,194.0,0.0,0.0,0.0,0.0
1776452896631186085,26224,0.0,0.9,0.084,0.3,0.08,-0.02,0.06,0.75,1.88,0.01,-0.0,-0.37,0.12,-0.0,-0.06,173.22,195.0,0.0,0.0,0.0,0.0
1776452896729476643,26324,0.0,0.7,0.072,0.2,0.08,-0.12,0.06,0.75,1.88,0.0,-0.02,-0.35,-0.0,0.06,0.0,169.61,194.0,0.0,0.0,0.0,0.0
1776452896837836686,26424,0.0,0.7,0.076,0.1,-0.02,0.04,0.06,0.75,1.88,0.0,-0.0,-0.36,-0.0,0.12,-0.06,173.73,194.0,0.0,0.0,0.0,0.0
1776452896930185219,26524,0.0,0.9,0.084,0.6,0.1,-0.06,0.06,0.75,1.88,0.0,0.02,-0.36,0.06,-0.12,0.12,173.73,197.0,0.0,0.0,0.0,0.0
1776452897028435018,26624,0.088,0.2,0.0,1.4,0.0,-0.12,0.06,0.75,1.88,0.0,-0.0,-0.35,-0.0,0.06,0.0,170.13,195.0,0.0,0.0,0.0,0.0
1776452897130880844,26725,0.076,-0.1,0.0,1.3,-0.06,-0.1,0.06,0.75,1.88,-0.01,-0.0,-0.33,0.06,0.06,0.0,173.73,195.0,0.0,0.0,0.0,0.0
1776452897229225137,26825,0.092,0.3,0.0,1.4,0.02,0.0,0.06,0.75,1.88,0.01,-0.0,-0.36,-0.0,-0.12,0.0,174.42,197.0,0.0,0.0,0.0,0.0
1776452897331530132,26925,0.096,-0.1,0.0,1.5,0.02,-0.06,0.06,0.75,1.88,0.0,-0.0,-0.35,0.12,-0.0,-0.06,170.13,197.0,0.0,0.0,0.0,0.0
1776452897429829573,27026,0.092,1.3,0.0,1.0,0.04,0.04,0.06,0.75,1.88,0.0,-0.01,-0.35,-0.06,-0.0,0.12,170.13,195.0,0.0,0.0,0.0,0.0
1776452897532268474,27125,0.0,0.9,0.084,0.0,0.1,-0.12,0.06,0.75,1.88,0.0,-0.0,-0.33,0.12,0.12,0.0,170.13,196.0,0.0,0.0,0.0,0.0
1776452897630575193,27225,0.0,1.0,0.076,0.1,0.18,-0.12,0.06,0.75,1.88,0.0,0.01,-0.35,0.12,-0.12,0.06,173.73,196.0,0.0,0.0,0.0,0.0
1776452897738921137,27325,0.0,0.6,0.0,0.7,-0.04,-0.04,0.06,0.75,1.88,0.0,-0.0,-0.35,0.06,-0.06,0.06,173.73,198.0,0.0,0.0,0.0,0.0
1776452897831300924,27424,0.0,1.3,0.0,1.3,0.0,-0.08,0.06,0.75,1.88,0.0,-0.02,-0.35,-0.0,0.12,0.06,173.73,194.0,0.0,0.0,0.0,0.0
1776452897929524756,27525,0.0,1.0,0.0,1.5,-0.08,0.0,0.06,0.75,1.88,0.02,-0.0,-0.36,0.06,-0.06,-0.06,173.73,194.0,0.0,0.0,0.0,0.0
1776452898031953896,27625,0.088,0.0,0.0,1.5,0.1,-0.04,0.06,0.75,1.88,0.0,-0.01,-0.36,-0.12,0.06,0.06,173.73,193.0,0.0,0.0,0.0,0.0
1776452898130244222,27724,0.0,1.4,0.088,0.3,0.16,-0.04,0.06,0.75,1.88,0.01,-0.0,-0.36,0.06,-0.0,0.06,173.73,192.0,0.0,0.0,0.0,0.0
1776452898232668042,27824,0.0,1.5,0.076,0.5,0.14,-0.08,0.06,0.75,1.88,0.0,-0.0,-0.36,0.06,-0.06,-0.06,170.3,192.0,0.0,0.0,0.0,0.0
1776452898330911590,27924,0.0,1.2,0.08,0.4,0.0,0.0,0.06,0.75,1.88,0.01,-0.0,-0.35,-0.0,-0.19,0.0,170.13,197.0,0.0,0.0,0.0,0.0
1776452898429199231,28023,0.0,1.3,0.088,0.2,0.14,-0.14,0.06,0.75,1.88,0.0,-0.02,-0.37,-0.19,0.19,0.06,170.13,193.0,0.0,0.0,0.0,0.0
1776452898531611014,28124,0.0,1.1,0.0,1.1,0.06,-0.02,0.06,0.75,1.88,0.0,-0.01,-0.34,0.12,-0.0,0.12,170.13,193.0,0.0,0.0,0.0,0.0
1776452898629936321,28225,0.0,0.9,0.0,1.4,0.04,-0.02,0.06,0.75,1.88,0.02,-0.02,-0.35,0.12,0.06,-0.06,170.13,195.0,0.0,0.0,0.0,0.0
1776452898732311660,28324,0.0,1.1,0.072,0.3,0.16,-0.08,0.06,0.75,1.88,0.0,-0.01,-0.34,0.12,-0.0,-0.12,170.13,195.0,0.0,0.0,0.0,0.0
1776452898830626763,28424,0.0,1.2,0.088,0.3,-0.04,-0.16,0.06,0.75,1.88,0.01,-0.01,-0.33,-0.0,-0.06,0.06,170.13,196.0,0.0,0.0,0.0,0.0
1776452898939009571,28524,0.0,1.1,0.088,0.3,0.08,-0.16,0.06,0.75,1.88,0.0,-0.01,-0.34,-0.06,-0.19,-0.06,170.13,195.0,0.0,0.0,0.0,0.0
1776452899031336019,28624,0.0,1.5,0.084,0.1,0.04,-0.06,0.06,0.75,1.88,0.0,-0.01,-0.33,-0.12,-0.0,0.0,170.13,195.0,0.0,0.0,0.0,0.0
1776452899129622821,28724,0.0,0.7,0.0,1.2,-0.04,-0.08,0.06,0.75,1.88,0.0,-0.01,-0.36,-0.12,0.19,0.0,170.13,192.0,0.0,0.0,0.0,0.0
1776452899232035136,28824,0.084,0.0,0.076,0.5,0.16,-0.06,0.06,0.75,1.88,0.01,-0.0,-0.33,-0.0,0.31,0.0,170.13,196.0,0.0,0.0,0.0,0.0
1776452899330272715,28923,0.0,1.0,0.0,0.3,0.1,0.02,0.06,0.75,1.88,0.01,-0.0,-0.34,-0.12,-0.0,0.12,170.3,196.0,0.0,0.0,0.0,0.0
1776452899432717937,29024,0.0,1.1,0.0,0.3,-0.02,-0.08,0.06,0.75,1.88,0.01,-0.0,-0.36,-0.12,-0.06,-0.06,170.13,198.0,0.0,0.0,0.0,0.0
1776452899530996091,29125,0.0,0.7,0.0,1.6,0.25,-0.06,0.06,0.75,1.88,0.0,-0.01,-0.31,-0.0,-0.0,-0.06,170.3,197.0,0.0,0.0,0.0,0.0
1776452899633426461,29225,0.092,0.2,0.0,0.3,0.02,-0.14,0.06,0.75,1.88,0.0,-0.0,-0.33,-0.12,0.12,-0.06,170.13,197.0,0.0,0.0,0.0,0.0
1776452899731705781,29325,0.0,1.1,0.0,1.3,0.04,-0.12,0.06,0.75,1.88,0.02,-0.0,-0.31,-0.06,-0.0,0.06,170.13,195.0,0.0,0.0,0.0,0.0
1776452899834105263,29425,0.0,0.2,0.08,0.6,0.12,-0.02,0.06,0.75,1.88,0.03,-0.0,-0.33,-0.06,-0.06,0.0,173.73,195.0,0.0,0.0,0.0,0.0
1776452899932395027,29524,0.0,1.2,0.072,0.2,0.12,0.0,0.06,0.75,1.88,0.0,-0.01,-0.35,0.12,-0.0,0.0,170.13,195.0,0.0,0.0,0.0,0.0
1776452900030667920,29624,0.092,0.0,0.0,1.4,0.02,0.04,0.06,0.75,1.88,0.02,-0.0,-0.36,-0.06,0.12,0.12,173.73,192.0,0.0,0.0,0.0,0.0
1776452900133099784,29725,0.0,0.6,0.076,0.3,-0.06,-0.08,0.06,0.75,1.88,0.01,-0.0,-0.34,0.12,-0.12,-0.06,173.73,192.0,0.0,0.0,0.0,0.0
1776452900231383673,29825,0.0,0.3,0.0,1.2,0.04,-0.02,0.06,0.75,1.88,-0.01,-0.0,-0.31,0.06,-0.06,0.0,173.73,194.0,0.0,0.0,0.0,0.0
1776452900333750168,29925,0.0,1.2,0.08,0.3,0.18,-0.08,0.06,0.75,1.88,-0.01,-0.0,-0.34,-0.0,-0.0,0.06,173.73,195.0,0.0,0.0,0.0,0.0
1776452900432083778,30024,0.0,1.1,0.076,0.2,0.02,0.04,0.06,0.75,1.88,0.0,0.01,-0.31,-0.0,-0.0,0.0,173.73,195.0,0.0,0.0,0.0,0.0
1776452900534484125,30125,0.0,0.3,0.0,0.3,0.08,-0.1,0.06,0.75,1.88,0.03,0.01,-0.32,-0.12,-0.06,0.12,173.73,195.0,0.0,0.0,0.0,0.0
1776452900632781587,30225,0.0,0.4,0.0,1.3,0.0,-0.08,0.06,0.75,1.88,0.01,-0.0,-0.35,-0.06,-0.06,0.12,169.61,196.0,0.0,0.0,0.0,0.0
1776452900735186193,30325,0.08,0.5,0.0,1.4,0.0,-0.2,0.06,0.75,1.88,0.01,-0.0,-0.34,-0.12,-0.06,0.12,169.61,196.0,0.0,0.0,0.0,0.0
1776452900833474396,30425,0.0,1.5,0.076,0.5,0.08,-0.12,0.06,0.75,1.88,0.01,-0.0,-0.34,-0.0,0.12,0.06,173.73,192.0,0.0,0.0,0.0,0.0
1776452900935873779,30525,0.0,0.3,0.0,1.1,0.1,-0.18,0.06,0.75,1.88,0.0,-0.01,-0.34,0.12,0.06,0.0,173.73,192.0,0.0,0.0,0.0,0.0
1776452901034170259,30625,0.0,1.2,0.084,0.5,0.12,-0.08,0.06,0.75,1.88,0.0,-0.02,-0.33,0.06,-0.12,0.06,173.73,192.0,0.0,0.0,0.0,0.0
1776452901132469253,30725,0.0,1.3,0.084,0.3,0.1,-0.12,0.06,0.75,1.88,0.0,-0.0,-0.35,0.06,-0.12,0.0,173.73,195.0,0.0,0.0,0.0,0.0
1776452901234860316,30825,0.0,1.4,0.08,0.3,-0.06,-0.18,0.06,0.75,1.88,0.02,-0.0,-0.34,0.06,0.06,0.0,173.73,195.0,0.0,0.0,0.0,0.0
1776452901333149199,30926,0.0,0.9,0.088,0.2,0.02,-0.04,0.06,0.75,1.88,0.0,-0.0,-0.32,-0.0,-0.0,0.0,173.73,194.0,0.0,0.0,0.0,0.0
1776452901435558466,31026,0.0,0.9,0.084,0.4,0.16,0.0,0.06,0.75,1.88,0.01,-0.01,-0.34,0.12,-0.12,0.0,173.73,196.0,0.0,0.0,0.0,0.0
1776452901533875145,31126,0.0,0.7,0.088,1.3,0.0,-0.14,0.06,0.75,1.88,0.01,-0.0,-0.31,-0.0,0.06,0.0,174.24,196.0,0.0,0.0,0.0,0.0
1776452901632099603,31225,0.092,0.2,0.088,0.5,0.14,-0.08,0.06,0.75,1.88,0.01,-0.0,-0.32,0.06,-0.06,0.06,173.73,193.0,0.0,0.0,0.0,0.0
1776452901734562146,31325,0.0,1.4,0.088,0.2,0.16,-0.04,0.06,0.75,1.88,0.01,-0.0,-0.32,-0.0,0.06,0.0,173.73,195.0,0.0,0.0,0.0,0.0
1776452901832849603,31425,0.0,1.2,0.0,1.4,0.0,-0.2,0.06,0.75,1.88,0.0,-0.0,-0.34,0.06,-0.06,0.12,173.73,195.0,0.0,0.0,0.0,0.0
1776452901935240426,31524,0.0,1.0,0.0,1.5,0.02,0.02,0.06,0.75,1.88,0.0,-0.0,-0.35,-0.06,-0.06,0.06,173.73,196.0,0.0,0.0,0.0,0.0
1776452902033570085,31625,0.092,1.1,0.0,1.0,0.12,-0.02,0.06,0.75,1.88,0.0,-0.0,-0.34,-0.0,-0.0,0.0,173.73,196.0,0.0,0.0,0.0,0.0
1776452902135942365,31725,0.096,0.4,0.076,0.6,-0.02,-0.06,0.06,0.75,1.88,0.0,-0.01,-0.32,-0.0,-0.19,-0.19,174.42,193.0,0.0,0.0,0.0,0.0
1776452902234256187,31825,0.0,0.7,0.0,1.3,0.04,0.02,0.06,0.75,1.88,0.0,-0.0,-0.33,0.06,-0.0,0.06,174.24,195.0,0.0,0.0,0.0,0.0
1776452902336623596,31926,0.092,0.0,0.084,0.5,0.08,-0.2,0.06,0.75,1.88,0.0,-0.0,-0.31,-0.0,0.12,0.12,173.73,195.0,0.0,0.0,0.0,0.0
1776452902434898326,32026,0.0,1.2,0.08,0.3,0.1,0.08,0.06,0.75,1.88,0.01,-0.0,-0.31,-0.19,-0.12,-0.06,173.73,197.0,0.0,0.0,0.0,0.0
1776452902533196426,32125,0.0,1.2,0.088,0.2,0.21,0.02,0.06,0.75,1.88,0.0,-0.0,-0.32,-0.06,-0.0,0.06,173.73,195.0,0.0,0.0,0.0,0.0
1776452902635622168,32225,0.0,1.4,0.068,0.0,0.14,0.08,0.06,0.75,1.88,0.0,-0.01,-0.32,-0.06,-0.0,0.0,173.73,195.0,0.0,0.0,0.0,0.0
1776452902733935360,32325,0.0,1.4,0.088,0.3,0.08,-0.04,0.06,0.75,1.88,0.0,-0.0,-0.35,-0.0,0.12,0.0,173.73,195.0,0.0,0.0,0.0,0.0
1776452902836330158,32425,0.0,1.2,0.076,0.3,0.02,-0.06,0.06,0.75,1.88,0.01,-0.0,-0.35,0.12,-0.19,-0.06,173.73,196.0,0.0,0.0,0.0,0.0
1776452902934622776,32525,0.0,1.4,0.092,0.3,0.14,-0.1,0.06,0.75,1.88,0.0,-0.01,-0.37,0.06,0.06,0.06,173.73,196.0,0.0,0.0,0.0,0.0
1776452903032875969,32625,0.0,0.8,0.0,0.6,0.06,-0.1,0.06,0.75,1.88,-0.01,-0.0,-0.34,-0.12,0.06,-0.06,173.73,196.0,0.0,0.0,0.0,0.0
1776452903135314853,32724,0.0,0.7,0.076,0.5,0.2,0.02,0.06,0.75,1.88,0.0,0.01,-0.31,0.06,-0.0,0.0,173.73,196.0,0.0,0.0,0.0,0.0
1776452903233633540,32824,0.0,0.7,0.088,0.2,0.04,-0.1,0.06,0.75,1.88,-0.01,-0.0,-0.31,0.06,-0.12,0.0,173.73,192.0,0.0,0.0,0.0,0.0
1776452903335971426,32924,0.0,0.6,0.084,0.6,0.04,-0.06,0.06,0.75,1.88,0.01,-0.01,-0.34,-0.12,-0.0,0.0,174.59,196.0,0.0,0.0,0.0,0.0
1776452903434303408,33025,0.0,0.2,0.0,1.0,0.12,-0.04,0.06,0.75,1.88,0.02,-0.0,-0.32,0.06,0.06,0.06,174.42,196.0,0.0,0.0,0.0,0.0
1776452903536700756,33125,0.0,0.3,0.0,0.3,0.14,-0.02,0.06,0.75,1.88,0.01,-0.0,-0.35,-0.0,0.19,0.12,170.13,195.0,0.0,0.0,0.0,0.0
1776452903635056202,33225,0.0,0.4,0.0,1.2,0.12,-0.02,0.06,0.75,1.88,0.0,-0.0,-0.29,0.06,0.06,0.06,173.73,194.0,0.0,0.0,0.0,0.0
1776452903743374851,33325,0.0,0.9,0.092,0.6,0.04,-0.06,0.06,0.75,1.88,0.0,-0.0,-0.33,-0.0,-0.06,0.12,173.73,194.0,0.0,0.0,0.0,0.0
1776452903835721959,33425,0.0,0.9,0.0,1.4,0.06,-0.31,0.06,0.75,1.88,0.0,-0.0,-0.33,0.06,0.06,-0.06,173.73,194.0,0.0,0.0,0.0,0.0
1776452903933992572,33524,0.088,0.2,0.0,1.7,0.06,0.04,0.06,0.75,1.88,0.0,-0.0,-0.31,0.12,0.12,0.0,169.61,192.0,0.0,0.0,0.0,0.0
1776452904036388717,33624,0.0,0.2,0.0,1.1,0.08,-0.18,0.06,0.75,1.88,0.01,-0.0,-0.33,-0.06,0.12,0.0,169.61,192.0,0.0,0.0,0.0,0.0
1776452904134694231,33725,0.0,0.7,0.072,0.5,0.08,-0.12,0.06,0.75,1.88,0.0,-0.0,-0.35,-0.12,-0.0,-0.12,169.61,195.0,0.0,0.0,0.0,0.0
1776452904233000450,33824,0.0,0.6,0.088,0.4,0.12,-0.16,0.06,0.75,1.88,0.01,-0.02,-0.32,-0.25,0.06,0.06,169.61,195.0,0.0,0.0,0.0,0.0
1776452904335350459,33924,0.0,0.7,0.08,0.5,0.04,-0.08,0.06,0.75,1.88,0.01,-0.0,-0.34,-0.0,-0.0,0.0,169.61,194.0,0.0,0.0,0.0,0.0
1776452904433673492,34024,0.0,0.9,0.08,0.5,0.25,-0.1,0.06,0.75,1.88,-0.01,-0.0,-0.31,0.06,-0.0,0.0,170.47,196.0,0.0,0.0,0.0,0.0
1776452904536083149,34124,0.0,0.2,0.0,1.4,0.21,-0.16,0.06,0.75,1.88,0.01,-0.0,-0.34,-0.06,-0.06,0.0,169.61,196.0,0.0,0.0,0.0,0.0
1776452904634374701,34224,0.092,0.3,0.0,0.5,0.14,-0.1,0.06,0.75,1.88,0.01,-0.02,-0.34,-0.0,-0.06,0.0,169.61,194.0,0.0,0.0,0.0,0.0
1776452904736772136,34325,0.0,1.5,0.084,0.3,0.08,-0.08,0.06,0.75,1.88,0.0,-0.01,-0.33,-0.0,-0.06,0.0,169.61,190.0,0.0,0.0,0.0,0.0
1776452904835077058,34424,0.0,1.2,0.08,0.2,0.1,-0.1,0.06,0.75,1.88,0.01,-0.0,-0.32,-0.0,-0.06,-0.06,169.61,190.0,0.0,0.0,0.0,0.0
1776452904937479790,34524,0.0,1.2,0.088,0.3,0.12,-0.14,0.06,0.75,1.88,0.0,0.01,-0.32,0.06,-0.06,0.0,169.61,193.0,0.0,0.0,0.0,0.0
1776452905035759914,34625,0.092,0.2,0.0,1.1,0.21,-0.04,0.06,0.75,1.88,0.0,-0.0,-0.32,-0.0,-0.0,0.06,169.61,192.0,0.0,0.0,0.0,0.0
1776452905134064238,34724,0.092,0.1,0.0,1.1,0.08,-0.2,0.06,0.75,1.88,0.0,-0.0,-0.31,-0.0,-0.0,-0.12,169.61,192.0,0.0,0.0,0.0,0.0
1776452905236429039,34824,0.0,1.0,0.0,1.7,0.02,-0.16,0.06,0.75,1.88,0.0,-0.0,-0.34,0.12,-0.06,-0.12,169.61,194.0,0.0,0.0,0.0,0.0
1776452905334725474,34924,0.088,0.1,0.0,1.0,0.0,-0.08,0.06,0.75,1.88,0.03,-0.0,-0.35,-0.0,0.06,0.0,169.61,194.0,0.0,0.0,0.0,0.0
1776452905433034279,35023,0.088,0.3,0.0,0.6,-0.08,-0.06,0.06,0.75,1.88,0.0,-0.01,-0.33,0.06,-0.0,0.0,169.61,194.0,0.0,0.0,0.0,0.0
1776452905535459097,35123,0.0,0.9,0.076,0.3,0.0,-0.02,0.06,0.75,1.88,0.0,-0.0,-0.31,-0.0,-0.06,-0.06,169.61,195.0,0.0,0.0,0.0,0.0
1776452905633777792,35223,0.0,1.2,0.0,1.5,0.04,-0.1,0.06,0.75,1.88,0.01,-0.01,-0.3,-0.06,-0.0,0.0,169.61,195.0,0.0,0.0,0.0,0.0
1776452905731974969,35322,0.088,-0.1,0.0,1.4,-0.08,-0.18,0.06,0.75,1.88,0.0,-0.0,-0.33,-0.06,-0.25,0.0,169.44,195.0,0.0,0.0,0.0,0.0
1776452905834460194,35423,0.092,0.3,0.0,1.3,0.16,-0.06,0.06,0.75,1.88,0.0,-0.0,-0.34,-0.0,0.06,0.12,169.61,193.0,0.0,0.0,0.0,0.0
1776452905932742907,35523,0.0,1.3,0.08,0.5,-0.02,-0.14,0.06,0.75,1.88,0.02,-0.01,-0.34,-0.0,-0.19,0.0,169.61,193.0,0.0,0.0,0.0,0.0
1776452906035140688,35622,0.0,1.1,0.084,0.3,-0.04,-0.06,0.06,0.75,1.88,0.02,-0.0,-0.33,-0.0,0.06,-0.06,169.61,193.0,0.0,0.0,0.0,0.0
1776452906133431600,35722,0.0,1.5,0.088,0.4,0.04,-0.02,0.06,0.75,1.88,0.03,-0.0,-0.33,0.06,0.12,-0.06,169.61,194.0,0.0,0.0,0.0,0.0
1776452906235827394,35823,0.0,1.1,0.072,0.3,0.06,-0.08,0.06,0.75,1.88,0.01,-0.0,-0.32,0.12,0.06,0.0,169.61,194.0,0.0,0.0,0.0,0.0
1776452906334105120,35922,0.0,1.1,0.084,0.8,-0.06,-0.02,0.06,0.75,1.88,0.0,-0.0,-0.34,-0.12,-0.06,-0.06,169.61,195.0,0.0,0.0,0.0,0.0
1776452906436490989,36023,0.0,0.9,0.0,1.4,0.02,-0.08,0.06,0.75,1.88,0.0,-0.0,-0.34,-0.06,0.06,0.06,169.44,195.0,0.0,0.0,0.0,0.0
1776452906534819733,36123,0.088,0.0,0.0,1.3,0.12,-0.23,0.06,0.75,1.88,0.01,-0.0,-0.33,-0.06,-0.0,-0.06,169.61,194.0,0.0,0.0,0.0,0.0
1776452906633123867,36222,0.088,0.2,0.0,1.7,0.0,-0.1,0.06,0.75,1.88,0.0,-0.0,-0.34,0.06,-0.06,0.0,169.61,192.0,0.0,0.0,0.0,0.0
1776452906735523828,36322,0.088,0.2,0.0,1.5,0.02,-0.06,0.06,0.75,1.88,0.0,-0.01,-0.34,-0.06,0.06,0.0,169.61,192.0,0.0,0.0,0.0,0.0
1776452906833828313,36422,0.084,1.2,0.0,1.4,0.1,-0.02,0.06,0.75,1.88,0.0,-0.0,-0.33,0.12,-0.06,0.0,169.61,194.0,0.0,0.0,0.0,0.0
1776452906936220348,36523,0.0,1.0,0.08,0.2,0.04,-0.06,0.06,0.75,1.88,0.0,-0.0,-0.35,0.12,-0.12,0.06,169.61,193.0,0.0,0.0,0.0,0.0
1776452907034500814,36623,0.0,0.2,0.0,1.6,0.04,-0.02,0.06,0.75,1.88,0.01,-0.0,-0.34,-0.06,-0.12,0.0,169.61,193.0,0.0,0.0,0.0,0.0
1776452907136913454,36724,0.088,0.2,0.0,1.5,0.16,-0.02,0.06,0.75,1.88,0.0,-0.01,-0.35,-0.06,-0.0,0.06,174.59,194.0,0.0,0.0,0.0,0.0
1776452907239310132,36825,0.092,1.3,0.076,0.6,0.06,0.04,0.06,0.75,1.88,0.01,-0.0,-0.34,-0.0,0.19,0.06,169.61,195.0,0.0,0.0,0.0,0.0
1776452907337563261,36925,0.0,-0.1,0.0,1.1,0.1,0.02,0.06,0.75,1.88,0.0,-0.0,-0.33,-0.06,-0.0,0.12,173.73,195.0,0.0,0.0,0.0,0.0
1776452907435837241,37025,0.0,0.9,0.08,0.4,0.12,0.02,0.06,0.75,1.88,0.0,-0.02,-0.35,-0.0,0.06,-0.06,169.61,194.0,0.0,0.0,0.0,0.0
1776452907538300140,37125,0.0,0.9,0.0,1.5,0.16,-0.04,0.06,0.75,1.88,0.01,0.01,-0.36,0.12,-0.0,0.06,168.41,196.0,0.0,0.0,0.0,0.0
1776452907640707076,37226,0.088,0.0,0.0,1.6,0.12,0.04,0.06,0.75,1.88,0.0,-0.01,-0.34,0.12,-0.0,0.0,173.73,196.0,0.0,0.0,0.0,0.0
1776452907738991649,37327,0.088,0.1,0.076,0.2,0.0,-0.04,0.06,0.75,1.88,0.02,-0.01,-0.33,0.06,0.06,-0.06,169.61,196.0,0.0,0.0,0.0,0.0
1776452907841381975,37427,0.0,1.2,0.076,0.5,0.1,0.0,0.06,0.75,1.88,0.0,-0.0,-0.33,-0.0,0.06,0.06,173.22,196.0,0.0,0.0,0.0,0.0
1776452907939684474,37527,0.0,1.2,0.0,1.1,-0.04,-0.02,0.06,0.75,1.88,0.0,-0.02,-0.34,0.06,-0.19,0.06,173.73,194.0,0.0,0.0,0.0,0.0
1776452908037934898,37627,0.08,-0.1,0.0,1.1,0.12,-0.08,0.06,0.75,1.88,0.0,-0.0,-0.34,-0.0,-0.0,0.0,173.73,192.0,0.0,0.0,0.0,0.0
1776452908140377921,37727,0.0,0.5,0.0,0.9,0.18,-0.06,0.06,0.75,1.88,0.0,-0.0,-0.34,-0.0,0.06,-0.19,173.22,192.0,0.0,0.0,0.0,0.0
1776452908238630174,37827,0.0,1.3,0.0,1.2,0.0,0.0,0.06,0.75,1.88,0.0,-0.0,-0.3,-0.0,-0.0,0.06,173.22,191.0,0.0,0.0,0.0,0.0
1776452908341023791,37927,0.0,1.0,0.08,0.3,0.16,0.0,0.06,0.75,1.88,0.0,-0.01,-0.35,0.06,-0.0,0.0,173.73,197.0,0.0,0.0,0.0,0.0
1776452908439365691,38027,0.0,0.8,0.072,0.4,-0.06,-0.02,0.06,0.75,1.88,0.01,0.01,-0.35,0.12,-0.0,-0.06,173.22,197.0,0.0,0.0,0.0,0.0
1776452908541760085,38127,0.0,0.7,0.084,0.2,0.06,-0.04,0.06,0.75,1.88,0.01,-0.01,-0.33,0.12,-0.0,0.06,173.04,191.0,0.0,0.0,0.0,0.0
1776452908640084245,38226,0.0,1.0,0.084,1.1,0.16,-0.08,0.06,0.75,1.88,0.01,-0.0,-0.36,-0.0,0.12,0.06,173.22,191.0,0.0,0.0,0.0,0.0
1776452908742454917,38327,0.0,1.1,0.084,0.3,0.06,-0.16,0.06,0.75,1.88,0.0,-0.0,-0.34,-0.06,-0.19,-0.12,173.22,195.0,0.0,0.0,0.0,0.0
1776452908840760503,38427,0.0,1.4,0.084,0.2,0.18,-0.08,0.06,0.75,1.88,0.01,-0.0,-0.33,-0.12,0.12,0.0,170.13,195.0,0.0,0.0,0.0,0.0
1776452908943151249,38528,0.0,0.1,0.0,1.3,0.14,-0.04,0.06,0.75,1.88,0.0,-0.0,-0.34,-0.0,0.06,-0.06,173.22,195.0,0.0,0.0,0.0,0.0
1776452909041443556,38628,0.088,0.6,0.0,1.6,0.16,-0.06,0.06,0.75,1.88,0.0,-0.0,-0.34,-0.0,-0.06,0.0,173.04,194.0,0.0,0.0,0.0,0.0
1776452909143855630,38728,0.0,1.3,0.08,0.5,0.02,-0.14,0.06,0.75,1.88,0.0,-0.01,-0.32,0.06,-0.0,0.06,169.61,195.0,0.0,0.0,0.0,0.0
1776452909242117285,38828,0.0,1.4,0.076,0.5,0.2,-0.1,0.06,0.75,1.88,0.0,-0.02,-0.35,0.06,-0.19,0.0,169.61,195.0,0.0,0.0,0.0,0.0
1776452909340417625,38928,0.0,1.5,0.092,0.6,0.06,-0.02,0.06,0.75,1.88,0.0,-0.0,-0.34,0.12,-0.0,0.0,168.93,194.0,0.0,0.0,0.0,0.0
1776452909448813422,39027,0.0,0.3,0.0,1.3,0.12,-0.1,0.06,0.75,1.88,0.0,-0.0,-0.35,-0.06,-0.19,0.0,168.93,197.0,0.0,0.0,0.0,0.0
1776452909541143409,39127,0.0,0.4,0.0,1.5,0.1,-0.06,0.06,0.75,1.88,0.01,-0.0,-0.36,-0.0,0.06,0.0,173.73,197.0,0.0,0.0,0.0,0.0
1776452909639422564,39227,0.088,0.7,0.072,0.3,0.04,-0.21,0.06,0.75,1.88,0.0,-0.0,-0.34,-0.0,0.06,0.06,173.22,194.0,0.0,0.0,0.0,0.0
1776452909741851618,39326,0.0,1.2,0.076,0.3,-0.02,-0.16,0.06,0.75,1.88,0.0,-0.0,-0.35,-0.06,0.12,0.0,173.04,197.0,0.0,0.0,0.0,0.0
1776452909840110403,39427,0.0,1.2,0.076,0.5,0.0,-0.18,0.06,0.75,1.88,0.0,-0.0,-0.36,0.06,-0.0,0.12,169.61,197.0,0.0,0.0,0.0,0.0
1776452909942534903,39527,0.0,1.4,0.0,0.4,0.16,-0.08,0.06,0.75,1.88,0.0,-0.03,-0.37,0.06,-0.0,0.12,169.61,192.0,0.0,0.0,0.0,0.0
1776452910040902981,39627,0.0,0.2,0.0,1.6,-0.04,0.0,0.06,0.75,1.88,0.0,-0.0,-0.36,-0.12,-0.0,0.0,173.73,192.0,0.0,0.0,0.0,0.0
1776452910143224606,39727,0.092,0.1,0.0,1.4,-0.02,-0.08,0.06,0.75,1.88,0.0,-0.0,-0.34,0.06,-0.0,0.06,173.22,194.0,0.0,0.0,0.0,0.0
1776452910241506404,39827,0.0,1.1,0.08,0.5,0.16,-0.12,0.06,0.75,1.88,0.01,-0.0,-0.36,-0.12,0.06,-0.12,173.73,194.0,0.0,0.0,0.0,0.0
1776452910343893899,39927,0.088,0.2,0.0,0.7,0.02,-0.14,0.06,0.75,1.88,0.0,-0.0,-0.36,-0.0,-0.0,0.0,169.61,194.0,0.0,0.0,0.0,0.0
1776452910442184437,40028,0.0,0.9,0.072,0.4,0.08,-0.21,0.06,0.75,1.88,0.01,-0.0,-0.36,0.12,0.12,0.06,169.61,196.0,0.0,0.0,0.0,0.0
1776452910544611116,40129,0.0,1.1,0.076,0.4,0.02,-0.02,0.06,0.75,1.88,0.0,-0.0,-0.33,0.06,-0.0,0.0,169.61,194.0,0.0,0.0,0.0,0.0
1776452910642973709,40228,0.0,1.1,0.0,1.6,0.16,-0.02,0.06,0.75,1.88,0.02,-0.0,-0.32,-0.12,-0.06,0.0,169.44,194.0,0.0,0.0,0.0,0.0
1776452910745302130,40328,0.0,0.2,0.0,0.6,0.1,-0.04,0.06,0.75,1.88,0.0,-0.0,-0.32,-0.0,-0.06,-0.06,169.61,199.0,0.0,0.0,0.0,0.0
1776452910843607780,40428,0.0,0.9,0.088,1.0,0.04,-0.14,0.06,0.75,1.88,0.0,-0.01,-0.35,-0.06,-0.0,0.06,173.73,199.0,0.0,0.0,0.0,0.0
1776452910941909003,40527,0.088,0.1,0.0,1.6,0.1,-0.14,0.06,0.75,1.88,0.01,-0.01,-0.34,0.06,-0.06,-0.06,173.73,197.0,0.0,0.0,0.0,0.0
1776452911044298940,40628,0.0,1.4,0.076,0.4,0.1,-0.08,0.06,0.75,1.88,0.0,-0.02,-0.35,-0.06,0.12,0.06,169.61,196.0,0.0,0.0,0.0,0.0
1776452911142593417,40729,0.0,1.4,0.088,0.3,0.12,0.04,0.06,0.75,1.88,0.0,-0.01,-0.34,-0.0,-0.12,0.0,169.61,196.0,0.0,0.0,0.0,0.0
1776452911245115219,40828,0.0,1.1,0.064,0.5,0.08,-0.14,0.06,0.75,1.88,0.0,-0.0,-0.37,-0.06,-0.0,0.0,169.61,195.0,0.0,0.0,0.0,0.0
1776452911343252310,40928,0.0,0.0,0.0,1.1,0.2,0.06,0.06,0.75,1.88,-0.01,-0.01,-0.3,-0.0,0.12,-0.06,169.61,195.0,0.0,0.0,0.0,0.0
1776452911451625949,41028,0.088,0.0,0.092,0.8,0.06,-0.14,0.06,0.75,1.88,0.0,-0.0,-0.35,-0.0,-0.06,-0.06,169.61,195.0,0.0,0.0,0.0,0.0
1776452911543979202,41128,0.0,0.3,0.0,1.0,0.06,-0.04,0.06,0.75,1.88,0.0,-0.0,-0.33,-0.12,-0.06,-0.06,169.61,196.0,0.0,0.0,0.0,0.0
1776452911642275958,41228,0.088,0.2,0.0,1.0,0.2,0.04,0.06,0.75,1.88,0.0,-0.0,-0.32,0.06,0.12,0.06,169.61,194.0,0.0,0.0,0.0,0.0
1776452911744679983,41328,0.092,0.1,0.0,0.2,0.06,-0.12,0.06,0.75,1.88,0.0,-0.0,-0.34,-0.19,-0.0,0.0,169.61,194.0,0.0,0.0,0.0,0.0
1776452911842978479,41427,0.0,1.3,0.08,0.2,-0.08,-0.12,0.06,0.75,1.88,0.0,-0.01,-0.32,-0.06,0.12,0.0,173.73,195.0,0.0,0.0,0.0,0.0
1776452911945370728,41528,0.0,1.3,0.08,0.5,0.06,-0.02,0.06,0.75,1.88,0.0,-0.0,-0.3,-0.12,0.19,0.0,173.22,195.0,0.0,0.0,0.0,0.0
1776452912043667907,41629,0.0,1.2,0.0,1.4,0.1,-0.12,0.06,0.75,1.88,0.0,-0.0,-0.33,-0.06,0.06,-0.06,173.04,195.0,0.0,0.0,0.0,0.0
1776452912146062094,41729,0.084,0.0,0.0,0.5,0.14,-0.1,0.06,0.75,1.88,0.0,-0.01,-0.32,-0.06,0.12,0.06,173.04,197.0,0.0,0.0,0.0,0.0
1776452912248476855,41830,0.0,1.0,0.088,0.1,0.1,-0.12,0.06,0.75,1.88,0.0,-0.02,-0.37,-0.0,-0.06,0.0,173.22,197.0,0.0,0.0,0.0,0.0
1776452912346715606,41930,0.0,0.6,0.08,0.3,0.1,-0.1,0.06,0.75,1.88,0.0,-0.01,-0.33,-0.06,0.19,0.0,173.22,195.0,0.0,0.0,0.0,0.0
1776452912445033134,42030,0.0,0.2,0.0,1.2,0.04,-0.06,0.06,0.75,1.88,0.0,-0.01,-0.34,-0.06,-0.0,-0.12,173.73,195.0,0.0,0.0,0.0,0.0
1776452912547464635,42130,0.0,1.1,0.072,0.5,-0.02,-0.04,0.06,0.75,1.88,0.01,-0.0,-0.34,-0.06,0.06,-0.06,173.73,195.0,0.0,0.0,0.0,0.0
1776452912645748163,42230,0.0,1.3,0.0,1.1,0.14,-0.21,0.06,0.75,1.88,0.0,-0.0,-0.33,-0.0,-0.06,0.0,173.73,194.0,0.0,0.0,0.0,0.0
1776452912748150350,42330,0.0,0.2,0.0,1.4,0.1,-0.1,0.06,0.75,1.88,0.0,-0.01,-0.35,-0.06,0.12,0.0,173.73,196.0,0.0,0.0,0.0,0.0
1776452912846448804,42431,0.0,1.1,0.084,0.5,0.04,-0.21,0.06,0.75,1.88,0.0,-0.01,-0.35,-0.06,0.06,-0.06,173.22,196.0,0.0,0.0,0.0,0.0
1776452912944718332,42530,0.0,0.1,0.0,0.4,0.18,-0.23,0.06,0.75,1.88,0.0,-0.02,-0.31,-0.12,0.06,-0.06,173.22,195.0,0.0,0.0,0.0,0.0
1776452913047154535,42630,0.0,0.2,0.0,1.7,-0.06,0.02,0.06,0.75,1.88,0.0,-0.01,-0.33,-0.0,0.06,0.06,173.9,196.0,0.0,0.0,0.0,0.0
1776452913149518199,42731,0.0,1.2,0.072,0.3,0.06,0.06,0.06,0.75,1.88,-0.01,-0.01,-0.33,-0.06,-0.0,0.12,173.73,196.0,0.0,0.0,0.0,0.0
1776452913247804870,42831,0.0,1.0,0.084,0.3,0.14,-0.14,0.06,0.75,1.88,0.03,-0.0,-0.31,-0.25,0.19,0.06,173.73,195.0,0.0,0.0,0.0,0.0
1776452913350190774,42932,0.0,1.4,0.076,0.3,0.23,-0.14,0.06,0.75,1.88,0.0,-0.01,-0.33,-0.0,-0.06,0.0,174.24,195.0,0.0,0.0,0.0,0.0
1776452913448497852,43032,0.0,1.2,0.072,0.3,0.04,-0.23,0.06,0.75,1.88,0.01,0.01,-0.32,-0.0,0.06,0.0,174.42,194.0,0.0,0.0,0.0,0.0
1776452913550926459,43132,0.0,0.1,0.0,1.4,0.1,-0.06,0.06,0.75,1.88,0.0,-0.0,-0.34,-0.0,0.06,0.0,174.42,194.0,0.0,0.0,0.0,0.0
1776452913649237371,43233,0.092,0.2,0.0,0.5,0.06,0.04,0.06,0.75,1.88,0.0,-0.0,-0.32,0.06,-0.06,0.06,174.42,194.0,0.0,0.0,0.0,0.0
1776452913751618978,43333,0.0,1.3,0.0,1.2,0.0,-0.06,0.06,0.75,1.88,0.0,-0.0,-0.33,0.12,-0.06,-0.06,174.24,194.0,0.0,0.0,0.0,0.0
1776452913849913557,43433,0.0,1.0,0.0,1.6,0.02,-0.06,0.06,0.75,1.88,0.0,-0.0,-0.34,-0.0,-0.06,0.0,173.73,194.0,0.0,0.0,0.0,0.0
1776452913952290665,43533,0.084,0.2,0.0,0.3,0.04,-0.2,0.06,0.75,1.88,-0.01,-0.0,-0.33,-0.12,0.06,-0.06,173.73,194.0,0.0,0.0,0.0,0.0
1776452914050615148,43633,0.0,0.4,0.0,1.3,0.1,-0.04,0.06,0.75,1.88,0.0,0.01,-0.31,0.06,-0.06,0.0,173.9,196.0,0.0,0.0,0.0,0.0
1776452914153005528,43734,0.0,0.9,0.072,0.7,0.0,-0.08,0.06,0.75,1.88,0.0,-0.0,-0.33,-0.0,0.06,0.0,173.73,193.0,0.0,0.0,0.0,0.0
1776452914251279046,43834,0.0,0.9,0.08,0.5,0.14,-0.14,0.06,0.75,1.88,0.01,-0.0,-0.32,0.06,-0.25,-0.06,173.73,193.0,0.0,0.0,0.0,0.0
1776452914353684111,43934,0.0,0.1,0.08,0.3,0.2,-0.04,0.06,0.75,1.88,0.0,-0.0,-0.35,-0.06,-0.0,-0.06,173.73,195.0,0.0,0.0,0.0,0.0
1776452914451981202,44035,0.0,1.3,0.064,0.0,0.1,-0.02,0.06,0.75,1.88,0.01,-0.0,-0.34,0.06,-0.19,-0.06,173.73,198.0,0.0,0.0,0.0,0.0
1776452914554375731,44135,0.056,0.2,0.0,1.3,0.0,-0.04,0.06,0.75,1.88,0.01,-0.0,-0.34,-0.06,0.06,0.06,173.73,198.0,0.0,0.0,0.0,0.0
1776452914652696877,44235,0.0,0.9,0.088,0.4,0.1,-0.12,0.06,0.75,1.88,0.0,-0.0,-0.33,-0.06,-0.0,0.06,173.73,194.0,0.0,0.0,0.0,0.0
1776452914755094961,44336,0.0,0.4,0.0,1.5,0.08,-0.04,0.06,0.75,1.88,0.0,-0.02,-0.32,-0.25,-0.0,-0.06,169.44,194.0,0.0,0.0,0.0,0.0
1776452914853393256,44436,0.088,0.1,0.0,1.4,0.04,-0.02,0.06,0.75,1.88,-0.01,0.01,-0.31,-0.06,-0.0,0.12,169.61,193.0,0.0,0.0,0.0,0.0
1776452914951694514,44535,0.0,1.3,0.0,1.4,0.08,-0.06,0.06,0.75,1.88,-0.01,-0.0,-0.34,-0.06,-0.06,0.06,169.61,194.0,0.0,0.0,0.0,0.0
1776452915054080096,44635,0.088,0.3,0.0,1.0,0.04,-0.02,0.06,0.75,1.88,0.01,-0.0,-0.33,-0.12,0.12,0.0,169.61,194.0,0.0,0.0,0.0,0.0
1776452915152394830,44735,0.092,0.1,0.0,1.0,0.08,-0.08,0.06,0.75,1.88,0.0,-0.01,-0.33,-0.06,0.12,0.06,169.61,194.0,0.0,0.0,0.0,0.0
1776452915250612381,44834,0.088,0.7,0.084,0.5,0.02,-0.02,0.06,0.75,1.88,0.0,-0.0,-0.32,-0.06,-0.06,-0.06,169.61,192.0,0.0,0.0,0.0,0.0
1776452915353067902,44935,0.0,0.9,0.076,0.5,0.04,0.02,0.06,0.75,1.88,0.01,-0.01,-0.31,-0.0,-0.06,0.0,169.61,192.0,0.0,0.0,0.0,0.0
1776452915461438721,45035,0.0,0.8,0.08,0.3,0.14,-0.08,0.06,0.75,1.88,0.0,0.01,-0.31,-0.0,0.06,0.06,169.44,191.0,0.0,0.0,0.0,0.0
1776452915553778734,45135,0.0,0.9,0.076,0.6,0.0,-0.06,0.06,0.75,1.88,-0.01,-0.0,-0.33,-0.0,0.06,0.0,169.61,191.0,0.0,0.0,0.0,0.0
1776452915652029191,45235,0.0,0.6,0.0,1.2,0.21,-0.16,0.06,0.75,1.88,0.0,-0.0,-0.33,0.06,-0.12,0.0,169.61,193.0,0.0,0.0,0.0,0.0
1776452915754468695,45335,0.0,0.9,0.0,1.2,-0.04,0.08,0.06,0.75,1.88,0.0,-0.01,-0.34,-0.0,-0.06,0.0,169.61,196.0,0.0,0.0,0.0,0.0
1776452915852771948,45434,0.092,0.2,0.0,1.1,-0.06,-0.02,0.06,0.75,1.88,0.0,-0.01,-0.32,0.12,0.06,0.0,169.61,196.0,0.0,0.0,0.0,0.0
1776452915951029423,45534,0.0,1.0,0.0,0.5,-0.08,-0.02,0.06,0.75,1.88,0.0,-0.0,-0.31,-0.06,-0.06,0.0,169.61,194.0,0.0,0.0,0.0,0.0
1776452916053449702,45634,0.0,1.0,0.0,1.6,0.1,-0.02,0.06,0.75,1.88,0.0,-0.0,-0.32,-0.06,-0.06,-0.06,169.61,195.0,0.0,0.0,0.0,0.0
1776452916151744673,45733,0.0,0.7,0.084,0.6,0.1,-0.08,0.06,0.75,1.88,0.01,-0.0,-0.32,0.12,0.06,0.0,169.44,195.0,0.0,0.0,0.0,0.0
1776452916254157005,45833,0.0,1.3,0.072,0.1,0.08,-0.1,0.06,0.75,1.88,0.01,-0.0,-0.33,0.06,-0.12,0.0,169.61,194.0,0.0,0.0,0.0,0.0
1776452916352415772,45934,0.0,0.3,0.0,1.2,-0.04,-0.04,0.06,0.75,1.88,0.0,-0.0,-0.35,-0.0,0.06,0.06,169.44,194.0,0.0,0.0,0.0,0.0
1776452916454835863,46034,0.076,0.1,0.092,0.5,0.04,0.0,0.06,0.75,1.88,0.0,-0.0,-0.33,-0.06,0.06,0.06,169.61,194.0,0.0,0.0,0.0,0.0
1776452916553139092,46134,0.0,0.8,0.084,0.2,0.0,0.04,0.06,0.75,1.88,0.01,-0.01,-0.34,0.12,-0.12,0.0,169.61,195.0,0.0,0.0,0.0,0.0
1776452916655540795,46235,0.0,0.9,0.08,0.1,0.1,-0.04,0.06,0.75,1.88,0.0,-0.01,-0.31,0.06,-0.0,0.06,169.61,195.0,0.0,0.0,0.0,0.0
1776452916753840079,46334,0.0,0.7,0.088,0.5,0.04,-0.02,0.06,0.75,1.88,0.0,-0.0,-0.3,0.06,-0.06,0.06,169.61,195.0,0.0,0.0,0.0,0.0
1776452916856227708,46435,0.0,0.1,0.0,0.3,0.14,0.0,0.06,0.75,1.88,0.0,-0.01,-0.33,-0.06,-0.06,-0.06,169.44,194.0,0.0,0.0,0.0,0.0
1776452916954537308,46535,0.0,1.3,0.088,0.2,0.1,-0.1,0.06,0.75,1.88,0.0,-0.0,-0.32,-0.0,0.06,0.0,170.64,194.0,0.0,0.0,0.0,0.0
1776452917056925082,46636,0.0,0.1,0.0,0.3,0.1,-0.14,0.06,0.75,1.88,-0.01,-0.01,-0.31,-0.06,-0.06,0.0,169.44,194.0,0.0,0.0,0.0,0.0
1776452917155239824,46736,0.0,0.0,0.0,1.7,0.08,-0.02,0.06,0.75,1.88,0.0,-0.01,-0.32,-0.0,0.12,0.12,173.73,195.0,0.0,0.0,0.0,0.0
1776452917253474938,46836,0.096,0.0,0.072,0.4,0.08,-0.1,0.06,0.75,1.88,0.0,-0.0,-0.33,0.12,-0.0,0.0,169.61,195.0,0.0,0.0,0.0,0.0
1776452917355877876,46936,0.0,1.2,0.08,0.7,0.06,-0.08,0.06,0.75,1.88,0.01,-0.02,-0.32,-0.06,0.06,0.06,173.73,198.0,0.0,0.0,0.0,0.0
1776452917454205415,47037,0.0,1.0,0.084,0.4,0.16,-0.08,0.06,0.75,1.88,0.0,-0.0,-0.31,-0.0,-0.19,0.12,173.73,193.0,0.0,0.0,0.0,0.0
1776452917556616575,47136,0.0,1.3,0.08,0.3,0.25,-0.12,0.06,0.75,1.88,0.0,-0.02,-0.33,0.12,-0.0,0.0,174.24,193.0,0.0,0.0,0.0,0.0
1776452917654921391,47236,0.0,1.2,0.092,0.4,-0.04,-0.1,0.06,0.75,1.88,0.0,-0.0,-0.33,0.06,-0.06,0.12,170.13,192.0,0.0,0.0,0.0,0.0
1776452917753140469,47336,0.0,1.4,0.08,0.3,0.08,-0.08,0.06,0.75,1.88,0.0,-0.0,-0.31,-0.0,-0.06,-0.06,169.1,193.0,0.0,0.0,0.0,0.0
1776452917855596017,47435,0.0,0.1,0.0,1.2,0.1,-0.02,0.06,0.75,1.88,0.0,-0.0,-0.31,-0.0,-0.06,-0.06,174.42,193.0,0.0,0.0,0.0,0.0
1776452917953921944,47535,0.088,0.3,0.088,0.3,0.0,0.02,0.06,0.75,1.88,0.0,-0.0,-0.33,-0.06,-0.0,0.0,170.13,193.0,0.0,0.0,0.0,0.0
1776452918056307695,47635,0.0,0.7,0.088,0.3,0.06,-0.12,0.06,0.75,1.88,0.0,-0.01,-0.33,-0.0,-0.0,0.0,170.13,193.0,0.0,0.0,0.0,0.0
1776452918154597081,47735,0.0,0.6,0.076,0.4,0.06,-0.16,0.06,0.75,1.88,-0.01,-0.01,-0.31,-0.0,-0.12,0.0,174.42,194.0,0.0,0.0,0.0,0.0
1776452918257006013,47835,0.0,1.0,0.0,1.2,0.08,-0.06,0.06,0.75,1.88,0.0,-0.01,-0.32,-0.06,0.06,0.0,173.73,195.0,0.0,0.0,0.0,0.0
1776452918355258251,47935,0.076,1.0,0.084,0.0,0.14,-0.12,0.06,0.75,1.88,0.0,-0.01,-0.33,-0.19,-0.0,0.0,173.73,195.0,0.0,0.0,0.0,0.0
1776452918453576026,48034,0.0,0.3,0.0,1.3,0.02,0.02,0.06,0.75,1.88,0.0,-0.01,-0.32,0.06,-0.06,0.0,173.73,194.0,0.0,0.0,0.0,0.0
1776452918555998273,48135,0.084,0.0,0.08,0.6,0.04,0.02,0.06,0.75,1.88,0.0,-0.03,-0.32,0.06,0.19,0.12,169.61,196.0,0.0,0.0,0.0,0.0
1776452918654290826,48235,0.0,0.7,0.0,1.4,0.06,-0.18,0.06,0.75,1.88,-0.01,-0.0,-0.33,0.06,0.06,0.12,173.73,196.0,0.0,0.0,0.0,0.0
1776452918762641406,48334,0.0,0.3,0.0,1.2,0.16,-0.2,0.06,0.75,1.88,0.0,-0.0,-0.3,-0.06,0.06,0.06,173.73,197.0,0.0,0.0,0.0,0.0
1776452918855035865,48434,0.092,0.2,0.0,1.2,0.04,-0.06,0.06,0.75,1.88,-0.03,0.01,-0.33,0.06,0.06,0.06,169.61,197.0,0.0,0.0,0.0,0.0
1776452918953283493,48534,0.092,0.1,0.0,0.5,0.06,-0.02,0.06,0.75,1.88,0.01,-0.0,-0.33,0.06,-0.12,0.06,173.73,197.0,0.0,0.0,0.0,0.0
1776452919051551544,48633,0.0,0.1,0.0,1.3,0.14,-0.12,0.06,0.75,1.88,-0.01,-0.0,-0.3,-0.06,0.06,-0.06,173.73,192.0,0.0,0.0,0.0,0.0
1776452919153976045,48733,0.088,0.1,0.0,1.3,0.21,-0.12,0.06,0.75,1.88,0.0,-0.0,-0.33,0.06,0.06,0.06,173.73,192.0,0.0,0.0,0.0,0.0
1776452919256327824,48834,0.0,1.2,0.088,0.2,0.04,0.14,0.06,0.75,1.88,0.0,-0.0,-0.33,0.06,0.25,-0.06,170.13,195.0,0.0,0.0,0.0,0.0
1776452919354627205,48933,0.0,1.3,0.076,0.5,0.06,-0.06,0.06,0.75,1.88,0.0,-0.0,-0.32,-0.0,-0.12,0.0,170.3,196.0,0.0,0.0,0.0,0.0
1776452919457121557,49034,0.0,0.5,0.0,1.3,0.04,-0.1,0.06,0.75,1.88,0.0,-0.0,-0.33,0.12,-0.06,-0.06,174.42,196.0,0.0,0.0,0.0,0.0
1776452919555355346,49135,0.0,1.1,0.0,1.5,0.14,-0.18,0.06,0.75,1.88,0.0,-0.0,-0.31,-0.06,0.12,0.06,174.42,192.0,0.0,0.0,0.0,0.0
1776452919653656986,49234,0.0,1.2,0.084,0.3,0.1,-0.2,0.06,0.75,1.88,-0.01,-0.0,-0.33,0.12,0.12,0.0,170.3,193.0,0.0,0.0,0.0,0.0
1776452919756054895,49334,0.0,1.3,0.084,0.3,0.14,-0.1,0.06,0.75,1.88,-0.01,-0.0,-0.35,-0.06,-0.0,-0.06,170.13,193.0,0.0,0.0,0.0,0.0
1776452919854355164,49434,0.0,1.3,0.088,0.3,0.12,-0.04,0.06,0.75,1.88,0.01,-0.0,-0.33,-0.0,-0.0,0.06,170.13,193.0,0.0,0.0,0.0,0.0
1776452919956752684,49534,0.0,1.2,0.084,0.3,-0.02,-0.1,0.06,0.75,1.88,0.02,-0.0,-0.32,0.06,-0.06,0.06,173.73,196.0,0.0,0.0,0.0,0.0
1776452920055063210,49634,0.0,1.2,0.0,1.4,0.02,-0.14,0.06,0.75,1.88,0.0,-0.0,-0.33,0.06,-0.06,-0.06,173.73,196.0,0.0,0.0,0.0,0.0
1776452920153323309,49734,0.1,0.2,0.0,0.7,0.16,-0.06,0.06,0.75,1.88,0.0,0.01,-0.32,-0.06,-0.0,0.0,173.73,198.0,0.0,0.0,0.0,0.0
1776452920255769045,49833,0.0,0.9,0.068,0.1,0.0,-0.02,0.06,0.75,1.88,0.0,-0.0,-0.33,0.12,-0.25,0.0,170.64,198.0,0.0,0.0,0.0,0.0
1776452920353994496,49934,0.0,1.0,0.0,0.3,0.16,0.0,0.06,0.75,1.88,0.0,0.01,-0.34,0.06,-0.0,0.12,169.61,194.0,0.0,0.0,0.0,0.0
1776452920456403584,50033,0.0,1.4,0.088,0.7,0.04,-0.21,0.06,0.75,1.88,0.0,-0.01,-0.34,0.12,-0.06,0.06,169.61,196.0,0.0,0.0,0.0,0.0
1776452920554740219,50132,0.088,0.0,0.0,1.0,0.12,-0.1,0.06,0.75,1.88,0.0,-0.0,-0.33,0.19,-0.19,-0.12,174.07,196.0,0.0,0.0,0.0,0.0
1776452920653030039,50232,0.0,1.0,0.0,1.3,0.1,-0.08,0.06,0.75,1.88,0.0,0.01,-0.34,-0.06,0.06,-0.06,169.61,195.0,0.0,0.0,0.0,0.0
1776452920755424665,50332,0.088,0.3,0.08,0.3,0.02,0.02,0.06,0.75,1.88,0.0,-0.0,-0.33,0.06,-0.0,-0.06,173.73,193.0,0.0,0.0,0.0,0.0
1776452920853728670,50432,0.08,0.4,0.072,0.4,0.0,-0.18,0.06,0.75,1.88,0.0,-0.0,-0.32,0.06,-0.0,0.0,169.61,193.0,0.0,0.0,0.0,0.0
1776452920952017620,50532,0.0,0.0,0.0,0.3,0.1,-0.1,0.06,0.75,1.88,0.01,-0.0,-0.35,-0.06,0.12,0.0,169.61,194.0,0.0,0.0,0.0,0.0
1776452921054423095,50631,0.0,0.7,0.08,0.0,0.04,-0.16,0.06,0.75,1.88,0.0,-0.0,-0.32,-0.0,-0.0,0.0,169.61,194.0,0.0,0.0,0.0,0.0
1776452921152739465,50732,0.0,0.9,0.096,0.7,0.08,-0.06,0.06,0.75,1.88,0.01,-0.0,-0.32,0.12,-0.06,-0.06,169.61,194.0,0.0,0.0,0.0,0.0
1776452921255113345,50832,0.0,0.1,0.0,1.4,-0.06,-0.1,0.06,0.75,1.88,0.0,-0.0,-0.31,-0.06,0.12,0.06,169.61,194.0,0.0,0.0,0.0,0.0
1776452921353376216,50932,0.092,0.1,0.0,1.6,0.08,-0.33,0.06,0.75,1.88,0.0,-0.0,-0.34,-0.06,-0.06,0.0,169.61,194.0,0.0,0.0,0.0,0.0
1776452921455805022,51032,0.02,1.6,0.084,0.5,0.02,0.0,0.06,0.75,1.88,0.0,-0.0,-0.32,0.06,-0.12,0.06,169.44,197.0,0.0,0.0,0.0,0.0
1776452921554109170,51132,0.088,0.0,0.0,1.1,0.02,0.02,0.06,0.75,1.88,0.0,0.02,-0.37,-0.0,-0.0,-0.06,169.61,195.0,0.0,0.0,0.0,0.0
1776452921652406448,51231,0.0,1.0,0.0,0.3,0.1,-0.02,0.06,0.75,1.88,0.0,-0.0,-0.32,0.06,-0.12,0.0,169.61,195.0,0.0,0.0,0.0,0.0
1776452921754791550,51331,0.0,0.9,0.0,1.1,0.08,-0.16,0.06,0.75,1.88,0.0,-0.0,-0.36,-0.0,0.12,-0.06,169.61,196.0,0.0,0.0,0.0,0.0
1776452921853097365,51431,0.0,1.1,0.0,1.5,0.18,-0.06,0.06,0.75,1.88,0.01,-0.0,-0.34,-0.0,0.06,-0.12,169.61,197.0,0.0,0.0,0.0,0.0
1776452921951430457,51530,0.0,1.4,0.084,0.3,0.1,-0.02,0.06,0.75,1.88,0.02,0.01,-0.37,-0.0,-0.06,0.06,169.61,197.0,0.0,0.0,0.0,0.0
1776452922053804576,51630,0.0,1.2,0.076,0.2,0.08,-0.14,0.06,0.75,1.88,0.0,-0.0,-0.36,-0.0,-0.0,0.0,169.61,196.0,0.0,0.0,0.0,0.0
1776452922152093478,51730,0.0,1.4,0.0,0.9,0.0,-0.12,0.06,0.75,1.88,0.0,-0.01,-0.31,-0.0,-0.0,0.0,169.61,193.0,0.0,0.0,0.0,0.0
1776452922250369418,51829,0.0,0.8,0.072,0.3,0.21,-0.08,0.06,0.75,1.88,-0.03,-0.0,-0.37,-0.06,-0.0,0.0,169.61,193.0,0.0,0.0,0.0,0.0
1776452922352744441,51929,0.0,0.7,0.072,1.5,0.23,-0.2,0.06,0.75,1.88,0.0,-0.01,-0.36,0.06,-0.0,0.0,169.61,193.0,0.0,0.0,0.0,0.0
1776452922451053751,52029,0.088,0.5,0.0,1.5,0.1,-0.08,0.06,0.75,1.88,0.02,-0.0,-0.36,-0.0,-0.0,0.0,169.61,193.0,0.0,0.0,0.0,0.0
1776452922553507273,52129,0.096,0.2,0.0,1.3,-0.04,-0.08,0.06,0.75,1.88,0.01,-0.02,-0.34,-0.0,-0.06,0.12,169.61,195.0,0.0,0.0,0.0,0.0
1776452922661866905,52230,0.088,0.3,0.0,1.3,0.14,-0.04,0.06,0.75,1.88,0.0,-0.01,-0.36,-0.0,-0.0,0.0,169.61,193.0,0.0,0.0,0.0,0.0
1776452922754170384,52331,0.096,0.2,0.0,1.0,0.1,-0.12,0.06,0.75,1.88,0.01,-0.0,-0.35,-0.0,0.12,0.06,173.73,193.0,0.0,0.0,0.0,0.0
1776452922862536201,52431,0.0,0.9,0.08,0.2,0.04,-0.12,0.06,0.75,1.88,0.0,0.01,-0.35,-0.12,-0.06,0.0,173.9,193.0,0.0,0.0,0.0,0.0
1776452922954868735,52531,0.0,0.1,0.0,1.5,0.12,0.04,0.06,0.75,1.88,0.0,-0.01,-0.37,-0.19,-0.0,0.06,169.61,193.0,0.0,0.0,0.0,0.0
1776452923053169524,52631,0.0,1.3,0.0,1.1,0.02,-0.06,0.06,0.75,1.88,0.0,-0.0,-0.34,0.06,-0.06,0.06,169.61,193.0,0.0,0.0,0.0,0.0
1776452923155601689,52730,0.0,0.7,0.08,0.5,0.02,0.0,0.06,0.75,1.88,0.0,-0.0,-0.35,-0.12,0.12,0.12,169.61,196.0,0.0,0.0,0.0,0.0
1776452923253850550,52831,0.0,0.6,0.076,0.3,0.12,-0.12,0.06,0.75,1.88,0.0,-0.0,-0.35,-0.0,-0.06,0.0,169.61,196.0,0.0,0.0,0.0,0.0
1776452923356226531,52931,0.0,0.7,0.084,0.5,0.02,-0.1,0.06,0.75,1.88,0.0,-0.02,-0.35,-0.06,0.06,0.06,173.73,196.0,0.0,0.0,0.0,0.0
1776452923454542873,53030,0.0,0.7,0.072,0.3,0.12,0.0,0.06,0.75,1.88,0.0,-0.0,-0.34,0.12,0.06,-0.06,173.73,194.0,0.0,0.0,0.0,0.0
1776452923552847048,53130,0.0,1.0,0.0,1.3,0.02,-0.04,0.06,0.75,1.88,0.0,-0.01,-0.36,-0.0,-0.12,0.0,173.73,194.0,0.0,0.0,0.0,0.0
1776452923655267695,53230,0.0,1.2,0.08,0.3,0.18,-0.06,0.06,0.75,1.88,-0.01,-0.01,-0.34,-0.0,-0.06,-0.06,173.73,194.0,0.0,0.0,0.0,0.0
1776452923753582981,53330,0.0,0.2,0.0,0.3,0.1,-0.14,0.06,0.75,1.88,0.0,-0.0,-0.38,-0.06,0.19,0.0,170.13,195.0,0.0,0.0,0.0,0.0
1776452923855943129,53430,0.0,0.7,0.092,0.4,0.1,-0.08,0.06,0.75,1.88,0.0,-0.0,-0.33,-0.06,-0.0,-0.06,170.13,195.0,0.0,0.0,0.0,0.0
1776452923954244582,53530,0.088,1.4,0.0,1.2,-0.04,-0.08,0.06,0.75,1.88,0.0,-0.0,-0.31,0.12,-0.06,-0.06,173.73,197.0,0.0,0.0,0.0,0.0
1776452924052540070,53629,0.088,0.0,0.0,0.2,0.04,0.0,0.06,0.75,1.88,0.0,-0.01,-0.33,0.06,-0.0,0.0,173.73,194.0,0.0,0.0,0.0,0.0
1776452924154965489,53730,0.0,0.6,0.088,0.7,0.08,-0.02,0.06,0.75,1.88,0.01,-0.02,-0.33,-0.0,0.19,0.06,173.73,194.0,0.0,0.0,0.0,0.0
1776452924253189420,53830,0.092,0.2,0.0,1.5,0.06,0.08,0.06,0.75,1.88,0.01,-0.02,-0.34,0.12,0.12,0.06,173.9,195.0,0.0,0.0,0.0,0.0
1776452924355585006,53929,0.088,0.5,0.076,0.1,0.06,-0.14,0.06,0.75,1.88,0.0,-0.01,-0.33,-0.0,0.12,-0.06,173.73,194.0,0.0,0.0,0.0,0.0
1776452924453936083,54029,0.0,0.4,0.0,0.3,-0.02,-0.14,0.06,0.75,1.88,0.0,-0.0,-0.32,0.12,-0.0,0.0,173.73,194.0,0.0,0.0,0.0,0.0
1776452924552245253,54129,0.0,1.4,0.068,0.2,0.2,0.04,0.06,0.75,1.88,0.0,-0.0,-0.34,-0.0,-0.06,0.12,173.73,192.0,0.0,0.0,0.0,0.0
1776452924654634340,54230,0.0,0.1,0.0,0.1,0.0,-0.04,0.06,0.75,1.88,0.01,-0.01,-0.32,-0.06,-0.0,0.0,173.73,192.0,0.0,0.0,0.0,0.0
1776452924752924788,54330,0.0,0.7,0.0,0.7,-0.12,-0.08,0.06,0.75,1.88,-0.01,-0.0,-0.31,-0.0,0.06,-0.12,173.73,196.0,0.0,0.0,0.0,0.0
1776452924851165163,54429,0.0,1.4,0.08,0.1,0.08,-0.04,0.06,0.75,1.88,0.01,-0.01,-0.31,0.06,-0.0,0.06,173.73,196.0,0.0,0.0,0.0,0.0
1776452924953617915,54529,0.0,1.2,0.084,0.2,0.14,-0.12,0.06,0.75,1.88,0.0,-0.0,-0.33,-0.0,0.06,0.06,173.73,196.0,0.0,0.0,0.0,0.0
1776452925051915009,54629,0.0,1.2,0.076,1.1,-0.02,-0.14,0.06,0.75,1.88,-0.01,-0.0,-0.35,-0.06,0.06,0.0,169.61,195.0,0.0,0.0,0.0,0.0
1776452925154323146,54728,0.092,0.1,0.0,0.3,0.14,-0.08,0.06,0.75,1.88,0.0,-0.0,-0.3,0.19,0.06,0.06,169.61,197.0,0.0,0.0,0.0,0.0
1776452925252567942,54829,0.0,0.4,0.0,1.4,0.16,0.04,0.06,0.75,1.88,0.0,-0.0,-0.33,0.19,-0.06,0.0,169.61,197.0,0.0,0.0,0.0,0.0
1776452925354958338,54929,0.0,1.2,0.092,0.3,0.02,-0.1,0.06,0.75,1.88,0.0,-0.0,-0.33,-0.12,-0.12,0.0,169.61,194.0,0.0,0.0,0.0,0.0
1776452925453292169,55029,0.0,1.4,0.08,0.3,0.02,-0.14,0.06,0.75,1.88,0.0,-0.02,-0.33,-0.0,-0.06,0.12,170.64,198.0,0.0,0.0,0.0,0.0
1776452925555695158,55130,0.0,1.4,0.084,0.4,0.02,0.04,0.06,0.75,1.88,0.0,-0.0,-0.34,-0.0,0.19,0.12,169.61,198.0,0.0,0.0,0.0,0.0
1776452925653987842,55231,0.0,1.1,0.0,1.3,-0.04,-0.08,0.06,0.75,1.88,0.0,-0.01,-0.32,0.06,-0.06,0.12,169.61,193.0,0.0,0.0,0.0,0.0
1776452925756393719,55330,0.0,0.7,0.088,0.5,0.02,-0.1,0.06,0.75,1.88,0.01,-0.02,-0.35,-0.06,0.06,0.06,169.61,193.0,0.0,0.0,0.0,0.0
1776452925854694940,55430,0.0,0.7,0.0,1.5,0.1,-0.21,0.06,0.75,1.88,0.01,-0.0,-0.34,0.06,-0.06,0.0,169.61,193.0,0.0,0.0,0.0,0.0
1776452925957092706,55530,0.084,0.9,0.084,0.2,0.06,0.16,0.06,0.75,1.88,0.03,-0.0,-0.35,-0.0,-0.0,0.0,173.73,194.0,0.0,0.0,0.0,0.0
1776452926055392907,55630,0.0,1.5,0.0,1.2,0.1,-0.1,0.06,0.75,1.88,0.02,-0.01,-0.36,-0.0,-0.0,0.0,173.73,194.0,0.0,0.0,0.0,0.0
1776452926163760035,55730,0.0,0.6,0.076,0.3,0.14,-0.08,0.06,0.75,1.88,0.0,-0.0,-0.35,-0.06,0.19,0.12,169.44,196.0,0.0,0.0,0.0,0.0
1776452926256118957,55830,0.0,0.2,0.0,1.4,0.12,0.0,0.06,0.75,1.88,0.0,-0.0,-0.31,-0.0,-0.12,0.06,169.61,194.0,0.0,0.0,0.0,0.0
1776452926354342452,55929,0.084,0.4,0.0,1.3,0.08,-0.12,0.06,0.75,1.88,0.0,-0.0,-0.31,0.06,-0.12,0.06,169.61,194.0,0.0,0.0,0.0,0.0
1776452926456767380,56030,0.088,0.4,0.088,0.0,0.02,0.16,0.06,0.75,1.88,-0.01,-0.0,-0.34,0.06,-0.06,0.06,169.61,195.0,0.0,0.0,0.0,0.0
1776452926555068429,56130,0.0,1.3,0.088,0.4,0.02,-0.16,0.06,0.75,1.88,0.0,-0.0,-0.3,-0.12,-0.0,0.06,169.61,192.0,0.0,0.0,0.0,0.0
1776452926657470301,56230,0.0,1.4,0.08,0.3,0.06,-0.02,0.06,0.75,1.88,0.01,-0.02,-0.31,0.06,0.06,0.0,169.61,192.0,0.0,0.0,0.0,0.0
1776452926755719425,56331,0.0,0.3,0.0,1.4,0.08,-0.08,0.06,0.75,1.88,0.0,0.02,-0.35,0.06,0.19,0.0,169.61,196.0,0.0,0.0,0.0,0.0
1776452926858176649,56432,0.092,0.0,0.08,0.5,-0.02,-0.23,0.06,0.75,1.88,0.0,-0.0,-0.33,-0.0,-0.0,0.0,169.61,196.0,0.0,0.0,0.0,0.0
1776452926956471439,56531,0.0,1.3,0.088,0.2,-0.12,-0.06,0.06,0.75,1.88,0.0,-0.01,-0.33,0.12,-0.06,-0.06,169.61,196.0,0.0,0.0,0.0,0.0
1776452927058857605,56632,0.0,0.1,0.0,0.6,0.14,0.08,0.06,0.75,1.88,0.0,-0.0,-0.33,0.06,-0.0,-0.12,169.61,197.0,0.0,0.0,0.0,0.0
1776452927161301749,56733,0.0,0.6,0.076,0.2,0.08,-0.08,0.06,0.75,1.88,0.0,-0.01,-0.35,-0.12,-0.0,0.0,169.61,197.0,0.0,0.0,0.0,0.0
1776452927259510184,56833,0.0,0.8,0.076,0.2,0.1,-0.2,0.06,0.75,1.88,0.0,-0.01,-0.35,-0.0,-0.0,0.06,169.61,195.0,0.0,0.0,0.0,0.0
1776452927357804654,56933,0.0,1.3,0.072,0.1,0.04,-0.12,0.06,0.75,1.88,0.01,-0.0,-0.34,-0.06,0.06,0.0,169.61,200.0,0.0,0.0,0.0,0.0
1776452927460256891,57032,0.0,1.3,0.088,0.1,0.08,-0.08,0.06,0.75,1.88,0.0,-0.0,-0.32,0.06,-0.0,-0.06,169.61,200.0,0.0,0.0,0.0,0.0
1776452927558538047,57132,0.0,1.5,0.088,0.6,0.02,0.0,0.06,0.75,1.88,0.0,-0.0,-0.3,0.06,-0.0,0.06,169.61,192.0,0.0,0.0,0.0,0.0
1776452927656807851,57232,0.0,1.3,0.084,0.2,0.04,-0.1,0.06,0.75,1.88,-0.01,-0.01,-0.33,-0.0,-0.06,0.0,169.61,195.0,0.0,0.0,0.0,0.0
1776452927759233440,57332,0.0,1.0,0.084,0.5,0.02,-0.12,0.06,0.75,1.88,0.0,-0.01,-0.3,-0.06,-0.06,0.0,170.13,195.0,0.0,0.0,0.0,0.0
1776452927861622492,57433,0.0,1.2,0.084,0.3,0.14,-0.04,0.06,0.75,1.88,0.0,0.01,-0.35,-0.12,-0.12,-0.12,169.44,194.0,0.0,0.0,0.0,0.0
1776452927959924666,57533,0.0,1.4,0.0,1.2,0.06,0.06,0.06,0.75,1.88,0.01,-0.0,-0.3,-0.0,-0.06,0.0,169.61,192.0,0.0,0.0,0.0,0.0
1776452928058219319,57633,0.0,0.0,0.0,1.5,-0.02,-0.06,0.06,0.75,1.88,-0.01,-0.01,-0.32,-0.12,0.06,0.0,169.61,192.0,0.0,0.0,0.0,0.0
1776452928160622514,57734,0.0,1.5,0.088,0.1,0.06,0.0,0.06,0.75,1.88,0.0,-0.0,-0.32,0.06,-0.0,0.0,169.61,193.0,0.0,0.0,0.0,0.0
1776452928262988136,57834,0.0,1.3,0.092,0.3,-0.06,-0.2,0.06,0.75,1.88,0.0,-0.01,-0.33,-0.06,0.06,0.0,173.9,193.0,0.0,0.0,0.0,0.0
1776452928361275787,57934,0.0,1.2,0.084,0.3,-0.04,-0.02,0.06,0.75,1.88,0.0,-0.0,-0.36,-0.06,-0.06,0.19,169.61,193.0,0.0,0.0,0.0,0.0
1776452928459603141,58034,0.0,1.3,0.0,1.1,0.06,-0.18,0.06,0.75,1.88,0.0,-0.0,-0.35,-0.0,-0.06,-0.06,173.73,197.0,0.0,0.0,0.0,0.0
1776452928562005114,58134,0.0,0.7,0.0,1.4,-0.1,-0.12,0.06,0.75,1.88,0.01,-0.0,-0.33,0.06,-0.19,-0.06,169.61,197.0,0.0,0.0,0.0,0.0
1776452928660309505,58233,0.0,1.3,0.084,0.0,0.1,-0.16,0.06,0.75,1.88,0.0,-0.0,-0.32,-0.0,0.12,0.06,170.64,193.0,0.0,0.0,0.0,0.0
1776452928762703941,58334,0.0,1.3,0.0,0.3,0.08,-0.06,0.06,0.75,1.88,0.02,-0.0,-0.31,-0.0,-0.0,0.0,169.61,195.0,0.0,0.0,0.0,0.0
1776452928861004499,58434,0.0,1.0,0.08,0.4,0.1,-0.14,0.06,0.75,1.88,0.0,-0.0,-0.33,0.06,-0.06,0.0,170.13,195.0,0.0,0.0,0.0,0.0
1776452928963409676,58534,0.0,0.8,0.092,0.2,0.06,0.1,0.06,0.75,1.88,0.0,-0.0,-0.33,-0.0,0.06,0.06,169.61,196.0,0.0,0.0,0.0,0.0
1776452929061714046,58634,0.0,1.1,0.08,0.3,0.18,-0.06,0.06,0.75,1.88,0.01,-0.0,-0.34,-0.0,0.06,-0.06,169.61,196.0,0.0,0.0,0.0,0.0
1776452929159996747,58734,0.0,0.9,0.084,0.5,0.06,-0.06,0.06,0.75,1.88,-0.01,-0.02,-0.3,0.06,-0.06,0.06,169.61,198.0,0.0,0.0,0.0,0.0
1776452929262361216,58834,0.0,0.9,0.088,0.2,0.06,-0.02,0.06,0.75,1.88,0.0,-0.02,-0.32,-0.19,0.12,0.0,169.61,196.0,0.0,0.0,0.0,0.0
1776452929360651917,58934,0.0,0.7,0.076,0.2,-0.02,-0.1,0.06,0.75,1.88,0.0,-0.0,-0.34,0.12,0.06,-0.06,169.61,196.0,0.0,0.0,0.0,0.0
1776452929463094440,59034,0.0,0.3,0.0,1.6,0.23,-0.12,0.06,0.75,1.88,0.0,-0.01,-0.32,-0.06,-0.06,0.12,173.73,196.0,0.0,0.0,0.0,0.0
1776452929561416641,59133,0.088,0.9,0.0,1.2,0.08,0.02,0.06,0.75,1.88,0.0,-0.01,-0.31,0.06,-0.06,-0.06,173.73,198.0,0.0,0.0,0.0,0.0
1776452929669718532,59233,0.092,-0.2,0.076,0.3,0.04,-0.06,0.06,0.75,1.88,0.0,0.01,-0.35,-0.0,-0.25,0.0,173.73,198.0,0.0,0.0,0.0,0.0
1776452929762086089,59334,0.0,0.7,0.0,1.2,-0.08,-0.12,0.06,0.75,1.88,0.0,-0.0,-0.34,-0.0,-0.06,-0.06,170.13,194.0,0.0,0.0,0.0,0.0
1776452929864472760,59435,0.0,0.3,0.0,1.3,0.06,-0.12,0.06,0.75,1.88,0.0,-0.02,-0.34,0.06,0.06,0.06,170.13,193.0,0.0,0.0,0.0,0.0
1776452929962791758,59535,0.092,0.3,0.0,1.4,-0.04,-0.1,0.06,0.75,1.88,0.0,-0.01,-0.33,-0.06,-0.19,0.0,174.42,193.0,0.0,0.0,0.0,0.0
1776452930061050549,59635,0.0,0.0,0.0,0.4,0.06,-0.08,0.06,0.75,1.88,0.0,-0.0,-0.32,-0.12,0.06,0.0,174.24,194.0,0.0,0.0,0.0,0.0
1776452930163506419,59735,0.0,0.7,0.096,0.3,0.08,-0.1,0.06,0.75,1.88,0.01,-0.01,-0.34,-0.06,-0.0,0.06,174.42,195.0,0.0,0.0,0.0,0.0
1776452930261739339,59835,0.0,0.6,0.084,0.2,0.02,-0.06,0.06,0.75,1.88,0.0,-0.0,-0.3,-0.06,-0.12,0.0,170.3,195.0,0.0,0.0,0.0,0.0
1776452930364117154,59935,0.0,1.2,0.084,0.4,0.12,0.0,0.06,0.75,1.88,0.0,-0.01,-0.33,0.06,0.12,0.0,170.13,195.0,0.0,0.0,0.0,0.0
1776452930462421091,60035,0.0,0.9,0.0,1.4,-0.04,-0.06,0.06,0.75,1.88,0.01,-0.01,-0.34,-0.06,-0.12,-0.06,174.42,195.0,0.0,0.0,0.0,0.0
1776452930564844442,60136,0.088,0.6,0.084,0.7,0.23,0.08,0.06,0.75,1.88,0.0,0.01,-0.33,-0.0,-0.12,0.12,174.24,194.0,0.0,0.0,0.0,0.0
1776452930663147731,60235,0.0,1.3,0.076,0.2,0.04,-0.08,0.06,0.75,1.88,0.0,0.01,-0.31,-0.06,-0.0,-0.12,170.13,194.0,0.0,0.0,0.0,0.0
1776452930771523134,60335,0.0,1.3,0.084,0.3,0.12,-0.04,0.06,0.75,1.88,0.0,-0.0,-0.33,-0.06,0.06,0.0,170.13,194.0,0.0,0.0,0.0,0.0
1776452930863848816,60435,0.0,0.3,0.0,0.2,0.0,0.02,0.06,0.75,1.88,0.0,-0.0,-0.32,-0.06,0.12,-0.06,174.42,191.0,0.0,0.0,0.0,0.0
1776452930962140272,60534,0.0,-0.1,0.056,0.3,0.0,-0.02,0.06,0.75,1.88,-0.01,-0.0,-0.33,-0.06,0.12,-0.06,174.24,194.0,0.0,0.0,0.0,0.0
1776452931064519918,60635,0.0,0.9,0.0,1.5,0.04,0.06,0.06,0.75,1.88,0.01,-0.0,-0.33,0.19,-0.0,0.0,174.42,194.0,0.0,0.0,0.0,0.0
1776452931162850423,60735,0.084,0.1,0.0,0.5,0.08,-0.06,0.06,0.75,1.88,0.0,-0.0,-0.3,-0.0,0.19,0.06,174.42,195.0,0.0,0.0,0.0,0.0
1776452931265223678,60835,0.0,1.3,0.0,1.1,0.04,-0.12,0.06,0.75,1.88,0.0,-0.01,-0.32,-0.06,-0.06,0.0,174.42,195.0,0.0,0.0,0.0,0.0
1776452931363491407,60935,0.088,0.1,0.0,1.1,0.08,0.0,0.06,0.75,1.88,0.0,-0.0,-0.31,-0.12,-0.0,0.0,174.42,195.0,0.0,0.0,0.0,0.0
1776452931465912642,61036,0.088,0.1,0.08,0.2,0.2,-0.14,0.06,0.75,1.88,0.0,-0.01,-0.33,-0.12,-0.0,0.0,174.24,196.0,0.0,0.0,0.0,0.0
1776452931564228630,61135,0.0,0.3,0.0,1.5,-0.02,0.1,0.06,0.75,1.88,0.0,0.01,-0.33,-0.12,-0.0,0.06,174.42,196.0,0.0,0.0,0.0,0.0
1776452931666688124,61235,0.0,1.0,0.0,1.2,0.08,-0.12,0.06,0.75,1.88,0.0,-0.02,-0.32,0.06,-0.06,-0.06,174.42,197.0,0.0,0.0,0.0,0.0
1776452931764916742,61335,0.084,0.4,0.0,0.8,-0.02,-0.12,0.06,0.75,1.88,-0.01,-0.01,-0.34,-0.06,-0.0,0.0,174.42,197.0,0.0,0.0,0.0,0.0
1776452931863218119,61435,0.0,0.5,0.0,1.6,-0.08,0.02,0.06,0.75,1.88,0.01,-0.0,-0.3,-0.06,0.12,0.12,174.42,197.0,0.0,0.0,0.0,0.0
1776452931965612836,61535,0.096,0.3,0.0,1.0,0.04,0.0,0.06,0.75,1.88,0.0,-0.01,-0.33,-0.12,-0.0,0.12,170.13,194.0,0.0,0.0,0.0,0.0
1776452932063917266,61635,0.0,0.8,0.0,1.5,0.08,0.0,0.06,0.75,1.88,-0.01,-0.0,-0.36,0.06,-0.06,-0.12,174.42,196.0,0.0,0.0,0.0,0.0
1776452932166324644,61734,0.0,1.3,0.088,0.3,0.14,0.0,0.06,0.75,1.88,0.0,-0.0,-0.34,-0.0,-0.0,0.12,174.42,196.0,0.0,0.0,0.0,0.0
1776452932264623609,61835,0.084,0.5,0.0,1.2,-0.04,0.02,0.06,0.75,1.88,0.01,-0.0,-0.33,0.12,-0.06,0.0,174.42,193.0,0.0,0.0,0.0,0.0
1776452932366965951,61936,0.0,1.0,0.084,0.5,0.08,-0.08,0.06,0.75,1.88,0.0,-0.0,-0.34,-0.06,0.06,-0.06,170.3,195.0,0.0,0.0,0.0,0.0
1776452932465292397,62035,0.0,1.0,0.084,0.2,0.16,0.0,0.06,0.75,1.88,0.0,-0.0,-0.33,-0.0,-0.12,-0.19,170.13,195.0,0.0,0.0,0.0,0.0
1776452932563571343,62135,0.0,0.7,0.076,0.3,0.14,-0.08,0.06,0.75,1.88,-0.02,0.01,-0.35,-0.06,0.06,0.0,170.3,195.0,0.0,0.0,0.0,0.0
1776452932665995870,62235,0.0,1.1,0.08,0.5,0.0,0.1,0.06,0.75,1.88,0.0,-0.01,-0.33,0.12,0.06,0.0,170.3,195.0,0.0,0.0,0.0,0.0
1776452932764294482,62334,0.0,0.2,0.084,0.5,0.06,0.12,0.06,0.75,1.88,-0.01,-0.0,-0.33,0.06,0.06,0.06,170.13,194.0,0.0,0.0,0.0,0.0
1776452932866698657,62434,0.0,0.3,0.0,1.1,-0.12,-0.2,0.06,0.75,1.88,-0.01,-0.02,-0.34,-0.0,0.06,0.0,170.13,195.0,0.0,0.0,0.0,0.0
1776452932964990085,62534,0.088,0.2,0.0,1.3,-0.08,-0.04,0.06,0.75,1.88,0.01,-0.01,-0.35,0.06,0.19,-0.06,170.13,195.0,0.0,0.0,0.0,0.0
1776452933063281121,62633,0.088,0.1,0.0,1.2,-0.06,-0.16,0.06,0.75,1.88,0.0,0.01,-0.33,-0.06,-0.06,0.06,174.42,195.0,0.0,0.0,0.0,0.0
1776452933165684643,62733,0.096,0.1,0.0,1.4,0.06,0.06,0.06,0.75,1.88,0.0,-0.0,-0.33,0.06,-0.06,0.0,174.42,195.0,0.0,0.0,0.0,0.0
1776452933263968066,62833,0.092,0.1,0.0,1.2,-0.04,-0.04,0.06,0.75,1.88,0.0,-0.0,-0.33,0.06,0.06,0.12,174.42,195.0,0.0,0.0,0.0,0.0
1776452933362245433,62932,0.0,0.5,0.0,1.5,0.08,-0.12,0.06,0.75,1.88,0.01,-0.0,-0.37,-0.0,0.19,-0.12,174.42,196.0,0.0,0.0,0.0,0.0
1776452933464652529,63032,0.092,0.0,0.0,1.6,0.06,-0.04,0.06,0.75,1.88,0.0,-0.0,-0.32,0.12,-0.0,-0.12,174.24,196.0,0.0,0.0,0.0,0.0
1776452933562979062,63132,0.0,1.2,0.0,0.3,0.04,-0.2,0.06,0.75,1.88,0.01,-0.01,-0.3,0.19,-0.12,-0.06,174.24,195.0,0.0,0.0,0.0,0.0
1776452933661266615,63232,0.0,0.8,0.076,0.3,0.04,-0.12,0.06,0.75,1.88,0.01,-0.01,-0.32,-0.06,-0.0,-0.06,174.42,195.0,0.0,0.0,0.0,0.0
1776452933763664581,63332,0.0,0.8,0.08,0.1,0.1,-0.08,0.06,0.75,1.88,0.01,-0.0,-0.35,0.06,-0.0,0.0,174.42,195.0,0.0,0.0,0.0,0.0
1776452933861972226,63432,0.08,0.3,0.0,1.5,0.06,0.0,0.06,0.75,1.88,0.0,-0.02,-0.35,-0.0,0.06,0.06,174.42,191.0,0.0,0.0,0.0,0.0
1776452933964360970,63532,0.084,0.4,0.0,1.5,0.16,-0.06,0.06,0.75,1.88,0.0,-0.01,-0.36,0.12,-0.12,0.0,174.24,195.0,0.0,0.0,0.0,0.0
1776452934062640779,63633,0.084,0.0,0.0,1.7,0.06,-0.1,0.06,0.75,1.88,-0.01,-0.0,-0.35,-0.0,0.06,0.0,174.42,195.0,0.0,0.0,0.0,0.0
1776452934165056851,63733,0.092,0.1,0.0,0.3,-0.06,0.0,0.06,0.75,1.88,0.0,-0.02,-0.33,0.12,-0.12,0.06,174.24,195.0,0.0,0.0,0.0,0.0
1776452934263366435,63833,0.0,0.9,0.096,0.3,0.06,-0.12,0.06,0.75,1.88,0.01,-0.0,-0.33,0.06,-0.0,-0.06,174.42,192.0,0.0,0.0,0.0,0.0
1776452934365700065,63933,0.0,1.1,0.08,0.4,0.06,-0.06,0.06,0.75,1.88,0.01,-0.0,-0.35,0.06,0.06,-0.06,174.42,192.0,0.0,0.0,0.0,0.0
1776452934464037019,64033,0.0,1.0,0.0,1.6,-0.04,-0.08,0.06,0.75,1.88,0.0,0.01,-0.33,-0.0,-0.06,-0.06,174.42,196.0,0.0,0.0,0.0,0.0
1776452934566437239,64134,0.0,1.3,0.076,0.6,0.08,0.04,0.06,0.75,1.88,0.0,-0.01,-0.38,-0.0,-0.19,0.0,174.24,196.0,0.0,0.0,0.0,0.0
1776452934664731565,64235,0.0,0.3,0.0,1.2,0.06,0.02,0.06,0.75,1.88,0.01,-0.01,-0.34,0.12,-0.06,0.0,174.42,196.0,0.0,0.0,0.0,0.0
1776452934767134785,64334,0.084,0.1,0.0,0.2,0.08,0.06,0.06,0.75,1.88,-0.02,-0.0,-0.37,-0.12,-0.06,0.12,174.42,195.0,0.0,0.0,0.0,0.0
1776452934865434555,64434,0.0,0.8,0.08,0.3,0.04,-0.06,0.06,0.75,1.88,-0.01,-0.0,-0.34,0.12,0.06,0.06,174.59,195.0,0.0,0.0,0.0,0.0
1776452934967825202,64535,0.0,1.0,0.088,0.1,-0.04,0.0,0.06,0.75,1.88,-0.01,-0.0,-0.35,-0.0,-0.12,-0.06,170.3,195.0,0.0,0.0,0.0,0.0
1776452935066135283,64634,0.0,1.1,0.0,1.4,-0.02,0.02,0.06,0.75,1.88,0.0,-0.0,-0.35,-0.06,-0.0,-0.06,170.13,195.0,0.0,0.0,0.0,0.0
1776452935164445400,64734,0.0,0.2,0.0,1.4,0.12,-0.02,0.06,0.75,1.88,0.0,-0.0,-0.34,0.06,-0.06,0.06,170.13,195.0,0.0,0.0,0.0,0.0
1776452935266822079,64834,0.088,0.1,0.0,1.1,0.02,-0.12,0.06,0.75,1.88,0.0,-0.01,-0.37,0.06,-0.0,0.12,170.3,193.0,0.0,0.0,0.0,0.0
1776452935365121769,64933,0.092,0.3,0.0,0.6,0.18,0.04,0.06,0.75,1.88,0.0,-0.0,-0.35,-0.06,-0.0,0.0,170.13,194.0,0.0,0.0,0.0,0.0
1776452935467506263,65034,0.0,0.5,0.076,0.1,0.12,0.06,0.06,0.75,1.88,0.0,-0.0,-0.36,-0.0,0.12,0.06,170.3,194.0,0.0,0.0,0.0,0.0
1776452935565813565,65134,0.088,0.6,0.076,0.1,0.08,-0.06,0.06,0.75,1.88,0.02,-0.0,-0.35,-0.06,-0.06,-0.06,170.13,192.0,0.0,0.0,0.0,0.0
1776452935664107441,65233,0.0,1.2,0.084,0.2,-0.06,-0.04,0.06,0.75,1.88,0.0,-0.02,-0.36,0.06,-0.0,-0.06,170.13,194.0,0.0,0.0,0.0,0.0
1776452935766505027,65333,0.0,0.3,0.0,1.2,0.06,-0.02,0.06,0.75,1.88,0.0,-0.02,-0.34,-0.0,-0.0,-0.06,170.13,194.0,0.0,0.0,0.0,0.0
1776452935864813588,65433,0.0,1.0,0.0,1.4,0.14,-0.16,0.06,0.75,1.88,0.0,-0.0,-0.34,-0.0,-0.0,0.0,170.13,193.0,0.0,0.0,0.0,0.0
1776452935963116797,65532,0.0,1.3,0.088,0.2,0.06,-0.08,0.06,0.75,1.88,0.0,-0.0,-0.36,-0.0,-0.0,0.06,170.13,193.0,0.0,0.0,0.0,0.0
1776452936065506047,65632,0.0,1.2,0.084,0.1,0.0,-0.14,0.06,0.75,1.88,0.01,-0.0,-0.36,0.06,-0.12,0.0,170.13,195.0,0.0,0.0,0.0,0.0
1776452936163800622,65732,0.0,0.1,0.076,0.5,0.06,-0.1,0.06,0.75,1.88,0.0,-0.01,-0.33,-0.06,-0.0,0.0,170.13,194.0,0.0,0.0,0.0,0.0
1776452936262024217,65831,0.0,1.0,0.0,1.5,0.06,-0.14,0.06,0.75,1.88,0.0,-0.01,-0.32,0.06,0.12,0.0,170.13,194.0,0.0,0.0,0.0,0.0
1776452936364453519,65932,0.084,1.3,0.084,0.2,-0.06,-0.1,0.06,0.75,1.88,0.02,-0.0,-0.31,0.12,-0.0,-0.06,170.3,194.0,0.0,0.0,0.0,0.0
1776452936466854138,66032,0.0,1.2,0.08,0.6,0.06,0.06,0.06,0.75,1.88,0.01,-0.0,-0.32,0.19,-0.06,0.0,170.13,193.0,0.0,0.0,0.0,0.0
1776452936565195675,66132,0.0,0.9,0.076,0.3,0.08,-0.12,0.06,0.75,1.88,0.0,-0.01,-0.33,-0.0,0.12,0.12,174.42,193.0,0.0,0.0,0.0,0.0
1776452936673537639,66233,0.0,0.9,0.084,0.6,0.1,-0.12,0.06,0.75,1.88,0.0,-0.03,-0.34,-0.0,-0.0,-0.12,173.73,195.0,0.0,0.0,0.0,0.0
1776452936765887794,66333,0.0,0.9,0.0,1.5,0.1,-0.04,0.06,0.75,1.88,0.02,-0.0,-0.33,-0.0,-0.0,-0.06,173.73,193.0,0.0,0.0,0.0,0.0
1776452936868263875,66434,0.088,0.4,0.0,1.2,0.12,-0.06,0.06,0.75,1.88,0.0,-0.0,-0.33,-0.06,0.12,-0.12,173.73,193.0,0.0,0.0,0.0,0.0
1776452936966574265,66535,0.0,1.2,0.076,0.2,0.18,0.0,0.06,0.75,1.88,-0.01,0.01,-0.29,-0.0,0.12,-0.06,173.73,196.0,0.0,0.0,0.0,0.0
1776452937064821467,66634,0.0,1.5,0.0,1.4,0.12,-0.06,0.06,0.75,1.88,0.0,-0.0,-0.34,-0.12,0.19,-0.06,172.7,193.0,0.0,0.0,0.0,0.0
1776452937167281024,66734,0.0,0.3,0.0,1.3,0.06,-0.21,0.06,0.75,1.88,0.0,-0.0,-0.34,-0.0,0.19,0.12,170.13,193.0,0.0,0.0,0.0,0.0
1776452937265533280,66834,0.084,0.2,0.0,1.6,0.04,-0.1,0.06,0.75,1.88,0.01,-0.01,-0.35,0.19,0.06,-0.06,174.24,194.0,0.0,0.0,0.0,0.0
1776452937367956763,66934,0.084,0.1,0.0,0.1,0.08,0.06,0.06,0.75,1.88,-0.01,-0.0,-0.32,0.12,0.06,0.06,174.42,194.0,0.0,0.0,0.0,0.0
1776452937466267555,67034,0.084,0.5,0.0,1.0,0.12,0.1,0.06,0.75,1.88,0.0,-0.0,-0.34,0.12,-0.0,0.0,174.42,195.0,0.0,0.0,0.0,0.0
1776452937568655835,67134,0.092,0.3,0.0,1.3,0.14,0.06,0.06,0.75,1.88,-0.01,-0.0,-0.33,-0.06,-0.19,0.0,174.42,195.0,0.0,0.0,0.0,0.0
1776452937666970387,67234,0.0,0.2,0.076,0.1,0.0,-0.08,0.06,0.75,1.88,0.0,-0.0,-0.34,0.19,-0.0,-0.06,174.42,195.0,0.0,0.0,0.0,0.0
1776452937769356130,67334,0.0,1.5,0.0,1.2,0.1,0.0,0.06,0.75,1.88,0.0,-0.01,-0.31,0.12,0.06,0.12,174.42,195.0,0.0,0.0,0.0,0.0
1776452937867649922,67434,0.092,0.4,0.0,1.4,0.1,0.0,0.06,0.75,1.88,0.0,-0.0,-0.33,-0.0,-0.19,0.06,174.42,193.0,0.0,0.0,0.0,0.0
1776452937965955233,67533,0.088,-0.1,0.0,1.3,-0.08,-0.1,0.06,0.75,1.88,0.0,-0.0,-0.3,0.06,-0.12,0.12,174.42,193.0,0.0,0.0,0.0,0.0
1776452938068338177,67633,0.092,0.3,0.0,0.5,-0.04,-0.14,0.06,0.75,1.88,0.0,-0.0,-0.34,-0.12,-0.0,0.06,174.42,195.0,0.0,0.0,0.0,0.0
1776452938166648742,67733,0.0,0.5,0.0,1.6,0.14,-0.1,0.06,0.75,1.88,0.0,-0.0,-0.35,0.06,0.12,0.0,174.42,195.0,0.0,0.0,0.0,0.0
1776452938264955585,67832,0.0,1.2,0.084,0.5,-0.18,-0.16,0.06,0.75,1.88,0.0,-0.0,-0.36,-0.06,-0.0,0.12,170.13,194.0,0.0,0.0,0.0,0.0
1776452938367298398,67932,0.0,1.3,0.08,0.2,0.06,0.1,0.06,0.75,1.88,-0.01,-0.0,-0.32,-0.12,0.12,0.0,170.13,194.0,0.0,0.0,0.0,0.0
1776452938465624241,68032,0.0,1.4,0.08,0.2,0.18,0.06,0.06,0.75,1.88,0.0,-0.02,-0.32,-0.0,0.19,0.06,174.42,194.0,0.0,0.0,0.0,0.0
1776452938563915195,68131,0.0,1.3,0.084,0.3,-0.08,-0.06,0.06,0.75,1.88,0.0,-0.0,-0.35,-0.0,0.12,0.0,174.24,195.0,0.0,0.0,0.0,0.0
1776452938666323729,68232,0.0,1.1,0.072,0.3,-0.02,0.08,0.06,0.75,1.88,-0.01,0.01,-0.33,-0.06,0.06,0.0,170.13,195.0,0.0,0.0,0.0,0.0
1776452938764629424,68332,0.088,0.5,0.0,1.4,-0.04,-0.12,0.06,0.75,1.88,-0.02,-0.0,-0.34,0.06,0.06,0.06,170.3,195.0,0.0,0.0,0.0,0.0
1776452938867020662,68431,0.088,0.2,0.084,0.3,0.0,-0.08,0.06,0.75,1.88,0.01,0.01,-0.34,-0.0,-0.0,0.0,170.13,196.0,0.0,0.0,0.0,0.0
1776452938965327190,68531,0.084,0.1,0.084,0.2,0.12,-0.1,0.06,0.75,1.88,0.0,-0.01,-0.36,-0.0,-0.0,-0.06,170.13,194.0,0.0,0.0,0.0,0.0
1776452939067721222,68632,0.0,0.1,0.0,1.8,0.16,-0.02,0.06,0.75,1.88,0.01,-0.0,-0.33,-0.06,-0.0,-0.06,170.13,194.0,0.0,0.0,0.0,0.0
1776452939166038097,68731,0.0,1.3,0.088,0.3,0.2,0.04,0.06,0.75,1.88,0.0,0.01,-0.34,0.12,0.12,-0.06,170.3,195.0,0.0,0.0,0.0,0.0
1776452939268391664,68831,0.084,0.1,0.0,1.1,0.18,-0.1,0.06,0.75,1.88,0.01,-0.0,-0.32,-0.06,-0.0,0.0,174.24,195.0,0.0,0.0,0.0,0.0
1776452939366660281,68932,0.088,0.6,0.084,0.2,0.0,-0.06,0.06,0.75,1.88,0.0,-0.0,-0.34,0.12,-0.12,0.0,174.42,195.0,0.0,0.0,0.0,0.0
1776452939465003248,69031,0.0,0.7,0.084,0.5,-0.02,-0.02,0.06,0.75,1.88,0.0,-0.0,-0.32,0.06,-0.06,0.0,170.13,194.0,0.0,0.0,0.0,0.0
1776452939567402166,69131,0.0,0.7,0.084,0.1,0.04,-0.02,0.06,0.75,1.88,0.0,-0.0,-0.31,-0.06,0.06,0.0,170.13,194.0,0.0,0.0,0.0,0.0
1776452939665716023,69231,0.0,1.1,0.088,0.3,0.1,-0.16,0.06,0.75,1.88,0.0,-0.0,-0.33,-0.06,-0.06,0.12,170.13,195.0,0.0,0.0,0.0,0.0
1776452939763997695,69330,0.0,0.8,0.084,0.1,0.21,-0.08,0.06,0.75,1.88,0.0,-0.0,-0.34,-0.06,0.12,0.06,170.13,193.0,0.0,0.0,0.0,0.0
1776452939866400669,69431,0.0,0.8,0.084,0.2,0.04,0.16,0.06,0.75,1.88,-0.01,-0.01,-0.32,0.12,-0.06,0.0,170.3,193.0,0.0,0.0,0.0,0.0
1776452939964660804,69531,0.0,0.7,0.0,1.2,-0.1,-0.16,0.06,0.75,1.88,0.0,-0.0,-0.33,-0.0,-0.0,0.0,170.13,193.0,0.0,0.0,0.0,0.0
1776452940067086941,69632,0.0,0.0,0.084,0.3,0.12,-0.02,0.06,0.75,1.88,0.01,-0.0,-0.32,-0.0,-0.06,0.0,170.13,195.0,0.0,0.0,0.0,0.0
1776452940165350220,69732,0.0,0.8,0.08,0.2,0.08,-0.08,0.06,0.75,1.88,-0.02,-0.02,-0.34,0.06,-0.12,0.06,170.13,195.0,0.0,0.0,0.0,0.0
1776452940267794299,69832,0.0,0.8,0.08,0.6,0.12,-0.14,0.06,0.75,1.88,0.0,-0.0,-0.32,-0.0,0.12,0.12,170.13,193.0,0.0,0.0,0.0,0.0
1776452940370150398,69933,0.0,0.9,0.096,0.2,0.16,-0.08,0.06,0.75,1.88,0.01,-0.0,-0.33,-0.12,-0.0,0.0,174.42,193.0,0.0,0.0,0.0,0.0
1776452940468444843,70034,0.0,0.9,0.0,1.5,0.18,0.0,0.06,0.75,1.88,0.0,-0.01,-0.33,-0.06,-0.0,0.06,170.13,196.0,0.0,0.0,0.0,0.0
1776452940576824119,70133,0.0,0.5,0.084,0.3,0.06,-0.08,0.06,0.75,1.88,0.01,-0.0,-0.34,0.12,0.06,0.12,170.13,194.0,0.0,0.0,0.0,0.0
1776452940669173516,70234,0.0,0.6,0.076,0.6,-0.12,-0.12,0.06,0.75,1.88,0.0,-0.01,-0.3,-0.0,-0.06,0.0,170.13,194.0,0.0,0.0,0.0,0.0
1776452940771564096,70334,0.0,1.2,0.088,0.3,0.08,-0.14,0.06,0.75,1.88,0.0,-0.0,-0.32,-0.06,-0.0,0.0,173.73,194.0,0.0,0.0,0.0,0.0
1776452940869875485,70434,0.0,0.0,0.0,0.8,0.02,-0.1,0.06,0.75,1.88,0.0,-0.0,-0.33,-0.06,-0.0,0.0,174.42,192.0,0.0,0.0,0.0,0.0
1776452940972265028,70535,0.088,0.3,0.076,0.2,0.12,-0.02,0.06,0.75,1.88,0.01,-0.0,-0.33,-0.0,-0.12,0.06,174.42,192.0,0.0,0.0,0.0,0.0
1776452941070550600,70635,0.0,0.1,0.084,0.5,0.1,-0.18,0.06,0.75,1.88,0.0,-0.0,-0.33,-0.0,-0.0,0.06,170.13,193.0,0.0,0.0,0.0,0.0
1776452941168910317,70734,0.088,0.3,0.092,0.2,0.12,0.04,0.06,0.75,1.88,0.0,-0.0,-0.32,0.06,-0.0,0.0,170.3,195.0,0.0,0.0,0.0,0.0
1776452941271249486,70834,0.0,0.7,0.084,0.5,-0.02,0.06,0.06,0.75,1.88,0.0,-0.0,-0.36,0.06,-0.0,0.06,170.3,195.0,0.0,0.0,0.0,0.0
1776452941369513538,70934,0.0,0.1,0.0,1.6,0.0,-0.2,0.06,0.75,1.88,0.0,-0.0,-0.32,-0.0,-0.19,-0.06,170.13,197.0,0.0,0.0,0.0,0.0
1776452941467810330,71033,0.084,0.0,0.0,0.3,0.08,0.02,0.06,0.75,1.88,0.0,-0.0,-0.34,-0.06,-0.06,0.0,170.13,196.0,0.0,0.0,0.0,0.0
1776452941570240441,71134,0.0,1.1,0.084,0.5,0.08,-0.1,0.06,0.75,1.88,0.0,-0.01,-0.31,-0.0,-0.0,0.06,174.42,196.0,0.0,0.0,0.0,0.0
1776452941668515716,71234,0.0,1.3,0.084,0.1,0.1,-0.08,0.06,0.75,1.88,0.0,-0.03,-0.3,-0.0,-0.12,-0.06,170.13,194.0,0.0,0.0,0.0,0.0
1776452941770987863,71333,0.0,0.1,0.076,0.7,-0.08,-0.1,0.06,0.75,1.88,0.0,-0.01,-0.34,0.19,-0.12,-0.06,174.42,194.0,0.0,0.0,0.0,0.0
1776452941869233805,71433,0.0,0.9,0.0,1.5,0.04,-0.08,0.06,0.75,1.88,0.0,-0.0,-0.32,-0.06,-0.0,0.12,170.13,195.0,0.0,0.0,0.0,0.0
1776452941971638509,71534,0.092,0.1,0.0,0.2,-0.02,-0.16,0.06,0.75,1.88,0.01,-0.0,-0.34,0.12,-0.0,0.0,170.3,193.0,0.0,0.0,0.0,0.0
1776452942069922465,71633,0.0,0.4,0.0,1.2,-0.06,-0.06,0.06,0.75,1.88,0.0,-0.0,-0.33,0.12,0.06,-0.06,170.13,193.0,0.0,0.0,0.0,0.0
1776452942172342480,71734,0.088,0.7,0.088,0.2,0.04,-0.02,0.06,0.75,1.88,0.0,-0.0,-0.34,-0.06,0.06,0.12,170.13,192.0,0.0,0.0,0.0,0.0
1776452942270625582,71834,0.0,0.7,0.092,0.5,0.02,0.02,0.06,0.75,1.88,0.0,-0.01,-0.32,-0.06,-0.0,0.12,170.13,192.0,0.0,0.0,0.0,0.0
1776452942368883759,71933,0.0,0.7,0.08,0.2,0.14,-0.08,0.06,0.75,1.88,0.0,-0.0,-0.32,-0.0,0.06,0.0,173.73,192.0,0.0,0.0,0.0,0.0
1776452942471337236,72033,0.0,0.6,0.08,0.6,0.18,-0.02,0.06,0.75,1.88,0.0,-0.0,-0.33,0.06,-0.12,0.0,174.42,194.0,0.0,0.0,0.0,0.0
1776452942569626672,72133,0.0,0.9,0.0,1.5,0.0,-0.06,0.06,0.75,1.88,0.0,-0.01,-0.33,0.12,0.12,0.06,173.73,194.0,0.0,0.0,0.0,0.0
1776452942667877719,72233,0.088,0.0,0.0,1.2,0.1,0.04,0.06,0.75,1.88,0.0,-0.01,-0.33,0.06,0.12,0.0,170.3,191.0,0.0,0.0,0.0,0.0
1776452942770311752,72333,0.08,0.1,0.088,0.7,0.06,-0.08,0.06,0.75,1.88,0.0,-0.0,-0.32,-0.0,0.19,0.06,173.73,196.0,0.0,0.0,0.0,0.0
1776452942878658296,72434,0.0,1.5,0.084,0.5,0.02,0.04,0.06,0.75,1.88,0.02,-0.0,-0.33,-0.0,0.06,0.0,173.73,196.0,0.0,0.0,0.0,0.0
1776452942971000647,72534,0.0,1.2,0.076,0.2,0.08,-0.08,0.06,0.75,1.88,0.0,-0.0,-0.31,-0.0,0.06,0.06,173.73,195.0,0.0,0.0,0.0,0.0
1776452943069298431,72634,0.0,1.2,0.08,0.5,0.12,-0.04,0.06,0.75,1.88,0.01,-0.0,-0.33,0.06,-0.06,-0.06,173.73,194.0,0.0,0.0,0.0,0.0
1776452943171706978,72733,0.0,0.2,0.0,0.2,0.12,-0.18,0.06,0.75,1.88,0.0,-0.0,-0.33,0.06,0.06,-0.06,173.73,194.0,0.0,0.0,0.0,0.0
1776452943269956261,72834,0.0,0.2,0.0,1.6,0.08,-0.06,0.06,0.75,1.88,0.0,-0.01,-0.32,0.06,0.19,0.06,173.73,192.0,0.0,0.0,0.0,0.0
1776452943372354086,72934,0.084,0.1,0.0,1.3,0.02,-0.08,0.06,0.75,1.88,0.0,-0.0,-0.33,0.06,-0.0,0.06,169.61,192.0,0.0,0.0,0.0,0.0
1776452943470691016,73034,0.0,0.6,0.0,0.3,-0.02,-0.1,0.06,0.75,1.88,0.0,0.01,-0.33,-0.0,-0.0,0.0,169.61,192.0,0.0,0.0,0.0,0.0
1776452943573096156,73134,0.088,0.1,0.0,1.1,0.08,-0.12,0.06,0.75,1.88,0.01,-0.0,-0.34,-0.0,0.06,0.0,169.61,193.0,0.0,0.0,0.0,0.0
1776452943671379680,73234,0.084,0.0,0.0,1.0,0.14,-0.25,0.06,0.75,1.88,0.0,-0.0,-0.33,-0.06,-0.0,0.0,169.61,192.0,0.0,0.0,0.0,0.0
1776452943769676037,73333,0.088,0.2,0.0,0.6,0.1,-0.06,0.06,0.75,1.88,0.0,-0.0,-0.34,0.12,-0.0,0.0,169.61,192.0,0.0,0.0,0.0,0.0
1776452943872079602,73433,0.0,1.1,0.08,0.4,0.12,0.0,0.06,0.75,1.88,0.0,0.01,-0.32,-0.06,-0.0,0.06,169.61,193.0,0.0,0.0,0.0,0.0
1776452943970378848,73533,0.0,0.7,0.0,0.0,0.02,-0.16,0.06,0.75,1.88,0.0,-0.01,-0.3,-0.12,0.06,0.06,173.73,193.0,0.0,0.0,0.0,0.0
1776452944072782095,73634,0.0,1.6,0.084,0.2,0.04,0.0,0.06,0.75,1.88,0.0,-0.0,-0.33,-0.06,-0.0,0.0,173.73,193.0,0.0,0.0,0.0,0.0
1776452944171067151,73734,0.0,1.0,0.092,0.3,0.06,-0.08,0.06,0.75,1.88,-0.01,-0.02,-0.35,0.12,-0.12,0.0,173.73,195.0,0.0,0.0,0.0,0.0
1776452944273463693,73835,0.0,-0.2,0.0,1.3,0.06,-0.04,0.06,0.75,1.88,0.0,-0.0,-0.33,0.06,-0.06,0.12,173.73,195.0,0.0,0.0,0.0,0.0
1776452944371697047,73935,0.092,0.1,0.0,0.2,0.18,-0.08,0.06,0.75,1.88,0.0,-0.0,-0.34,-0.06,0.25,0.12,173.73,195.0,0.0,0.0,0.0,0.0
1776452944474155051,74036,0.0,0.9,0.0,1.5,0.08,-0.1,0.06,0.75,1.88,0.0,-0.0,-0.32,0.06,0.06,0.0,169.61,193.0,0.0,0.0,0.0,0.0
1776452944576563389,74137,0.088,0.3,0.0,0.2,-0.02,0.0,0.06,0.75,1.88,-0.02,-0.0,-0.33,-0.0,-0.12,0.0,169.61,193.0,0.0,0.0,0.0,0.0
1776452944674866797,74236,0.0,1.2,0.0,1.2,0.0,-0.02,0.06,0.75,1.88,0.02,-0.03,-0.34,-0.06,-0.06,0.19,169.61,195.0,0.0,0.0,0.0,0.0
1776452944773105391,74336,0.0,0.7,0.0,1.4,0.16,-0.16,0.06,0.75,1.88,-0.01,-0.0,-0.34,0.06,0.12,0.06,169.61,197.0,0.0,0.0,0.0,0.0
1776452944875553877,74437,0.084,0.3,0.0,0.3,0.16,-0.12,0.06,0.75,1.88,-0.01,-0.0,-0.33,-0.0,-0.0,0.06,169.61,197.0,0.0,0.0,0.0,0.0
1776452944973845914,74536,0.0,1.3,0.084,0.5,0.02,-0.2,0.06,0.75,1.88,0.01,0.01,-0.32,-0.0,0.06,0.0,169.61,197.0,0.0,0.0,0.0,0.0
1776452945076206676,74637,0.0,1.3,0.072,0.5,0.0,-0.12,0.06,0.75,1.88,0.0,-0.0,-0.33,-0.06,0.12,0.12,169.61,197.0,0.0,0.0,0.0,0.0
1776452945174526357,74737,0.0,1.2,0.084,0.1,-0.02,-0.16,0.06,0.75,1.88,0.0,-0.01,-0.33,0.06,0.06,0.0,169.61,193.0,0.0,0.0,0.0,0.0
1776452945276894080,74838,0.0,1.3,0.084,0.2,0.1,0.04,0.06,0.75,1.88,0.01,-0.0,-0.35,-0.06,-0.06,-0.06,169.61,195.0,0.0,0.0,0.0,0.0
1776452945375191742,74938,0.0,1.3,0.084,0.3,0.2,-0.16,0.06,0.75,1.88,0.0,-0.0,-0.32,-0.06,0.12,-0.12,169.61,195.0,0.0,0.0,0.0,0.0
1776452945477635038,75038,0.0,1.4,0.088,0.3,0.0,0.0,0.06,0.75,1.88,0.0,-0.01,-0.34,-0.0,0.06,-0.12,169.61,191.0,0.0,0.0,0.0,0.0
1776452945575922497,75138,0.0,1.3,0.0,1.1,0.14,0.02,0.06,0.75,1.88,0.0,-0.01,-0.34,0.06,0.06,0.06,169.61,194.0,0.0,0.0,0.0,0.0
1776452945678346423,75238,0.0,0.8,0.076,0.7,0.04,-0.1,0.06,0.75,1.88,0.01,-0.0,-0.32,0.06,-0.12,0.06,169.61,194.0,0.0,0.0,0.0,0.0
1776452945776629697,75338,0.0,0.0,0.0,1.5,0.06,0.12,0.06,0.75,1.88,0.0,-0.0,-0.32,-0.0,-0.0,0.0,169.61,195.0,0.0,0.0,0.0,0.0
1776452945879023179,75438,0.088,0.3,0.0,0.8,0.29,0.02,0.06,0.75,1.88,-0.02,-0.0,-0.3,0.12,0.06,0.0,170.64,194.0,0.0,0.0,0.0,0.0
1776452945977306304,75539,0.0,1.3,0.0,1.1,0.1,0.06,0.06,0.75,1.88,0.01,-0.01,-0.32,0.12,0.06,0.06,169.79,194.0,0.0,0.0,0.0,0.0
1776452946079710968,75639,0.096,-0.2,0.0,1.4,0.12,0.08,0.06,0.75,1.88,0.0,-0.0,-0.34,-0.06,-0.0,0.0,169.61,195.0,0.0,0.0,0.0,0.0
1776452946177979404,75739,0.0,0.4,0.076,0.2,0.0,0.04,0.06,0.75,1.88,-0.01,-0.01,-0.33,0.12,-0.06,0.19,170.81,195.0,0.0,0.0,0.0,0.0
1776452946280352566,75840,0.0,0.2,0.0,1.3,0.14,-0.02,0.06,0.75,1.88,-0.01,0.01,-0.36,-0.0,0.12,0.19,169.79,195.0,0.0,0.0,0.0,0.0
1776452946378666428,75939,0.088,0.6,0.088,0.3,0.04,-0.06,0.06,0.75,1.88,-0.01,-0.0,-0.33,-0.0,0.06,-0.06,169.61,194.0,0.0,0.0,0.0,0.0
1776452946487087191,76039,0.0,0.2,0.0,1.6,0.08,-0.06,0.06,0.75,1.88,-0.01,0.01,-0.34,0.12,-0.0,-0.06,169.61,194.0,0.0,0.0,0.0,0.0
1776452946579393821,76139,0.0,1.1,0.0,1.1,-0.04,-0.04,0.06,0.75,1.88,0.0,0.01,-0.34,0.12,0.06,0.0,169.61,195.0,0.0,0.0,0.0,0.0
1776452946677695424,76238,0.088,0.1,0.0,0.6,-0.06,-0.08,0.06,0.75,1.88,0.0,-0.0,-0.33,-0.0,-0.0,0.06,169.61,195.0,0.0,0.0,0.0,0.0
1776452946786059336,76338,0.0,0.9,0.08,0.2,0.12,-0.08,0.06,0.75,1.88,0.0,-0.0,-0.32,-0.0,0.06,0.0,169.61,195.0,0.0,0.0,0.0,0.0
1776452946878394725,76438,0.0,0.0,0.0,1.1,0.1,-0.12,0.06,0.75,1.88,-0.02,-0.0,-0.33,-0.06,-0.06,0.0,169.61,195.0,0.0,0.0,0.0,0.0
1776452946976685235,76538,0.0,1.3,0.084,0.1,0.14,-0.04,0.06,0.75,1.88,0.02,-0.02,-0.32,-0.0,-0.06,0.0,169.61,195.0,0.0,0.0,0.0,0.0
1776452947079085505,76638,0.0,0.5,0.088,0.4,0.1,-0.1,0.06,0.75,1.88,0.0,-0.0,-0.36,-0.12,-0.06,-0.06,173.73,195.0,0.0,0.0,0.0,0.0
1776452947177360214,76739,0.0,1.3,0.0,1.1,0.21,-0.04,0.06,0.75,1.88,0.0,0.01,-0.35,0.06,-0.0,0.06,173.73,192.0,0.0,0.0,0.0,0.0
1776452947279743002,76839,0.092,0.3,0.0,1.3,0.0,-0.06,0.06,0.75,1.88,0.0,0.01,-0.33,-0.0,0.06,0.0,173.73,192.0,0.0,0.0,0.0,0.0
1776452947382132585,76940,0.0,0.2,0.0,1.5,-0.06,-0.12,0.06,0.75,1.88,0.0,-0.0,-0.37,0.12,-0.06,0.06,174.42,190.0,0.0,0.0,0.0,0.0
1776452947480476201,77041,0.084,0.0,0.0,1.5,-0.02,0.04,0.06,0.75,1.88,0.01,-0.0,-0.37,-0.19,-0.0,0.0,170.3,192.0,0.0,0.0,0.0,0.0
1776452947578807594,77140,0.0,1.3,0.088,0.2,-0.02,-0.12,0.06,0.75,1.88,0.0,-0.0,-0.35,-0.0,-0.06,0.06,170.13,192.0,0.0,0.0,0.0,0.0
1776452947681165697,77240,0.0,1.3,0.084,0.3,0.18,0.02,0.06,0.75,1.88,0.0,-0.02,-0.34,0.06,-0.12,0.0,170.3,193.0,0.0,0.0,0.0,0.0
1776452947779466350,77340,0.0,1.2,0.08,0.6,0.0,-0.12,0.06,0.75,1.88,0.0,-0.0,-0.33,-0.0,0.06,-0.06,170.3,195.0,0.0,0.0,0.0,0.0
1776452947881854804,77441,0.0,0.4,0.0,1.2,-0.02,-0.12,0.06,0.75,1.88,0.01,-0.0,-0.34,-0.06,0.12,0.06,170.13,195.0,0.0,0.0,0.0,0.0
1776452947980164661,77541,0.084,0.0,0.0,1.3,0.12,-0.1,0.06,0.75,1.88,0.0,-0.01,-0.36,0.06,-0.12,-0.06,170.13,194.0,0.0,0.0,0.0,0.0
1776452948082546593,77641,0.084,0.8,0.072,0.6,0.16,-0.12,0.06,0.75,1.88,0.01,-0.0,-0.36,-0.06,0.25,0.0,170.3,191.0,0.0,0.0,0.0,0.0
1776452948180875908,77741,0.0,0.9,0.092,0.2,-0.06,-0.16,0.06,0.75,1.88,0.0,-0.0,-0.36,0.06,0.06,-0.06,170.3,191.0,0.0,0.0,0.0,0.0
1776452948283227117,77841,0.0,0.8,0.08,0.2,0.08,-0.06,0.06,0.75,1.88,0.0,-0.01,-0.35,0.06,0.06,-0.06,170.13,195.0,0.0,0.0,0.0,0.0
1776452948381501970,77940,0.0,1.0,0.0,1.7,0.06,-0.12,0.06,0.75,1.88,0.02,-0.01,-0.35,-0.06,0.25,-0.06,170.3,195.0,0.0,0.0,0.0,0.0
1776452948479847433,78041,0.092,0.5,0.0,1.7,0.1,0.0,0.06,0.75,1.88,0.0,-0.0,-0.33,0.12,0.06,0.06,170.13,195.0,0.0,0.0,0.0,0.0
1776452948582247493,78141,0.084,0.2,0.0,0.2,0.23,-0.02,0.06,0.75,1.88,0.0,-0.0,-0.37,-0.0,0.12,0.06,170.13,192.0,0.0,0.0,0.0,0.0
1776452948680536271,78240,0.0,1.5,0.0,1.0,0.06,-0.16,0.06,0.75,1.88,0.01,-0.0,-0.35,0.06,-0.19,-0.12,170.13,192.0,0.0,0.0,0.0,0.0
1776452948782932832,78340,0.0,0.7,0.08,0.3,0.12,-0.02,0.06,0.75,1.88,0.0,0.01,-0.36,-0.12,-0.0,0.06,170.13,190.0,0.0,0.0,0.0,0.0
1776452948881229943,78441,0.0,0.7,0.0,1.6,0.12,-0.08,0.06,0.75,1.88,0.01,-0.0,-0.36,0.06,0.12,-0.12,170.3,192.0,0.0,0.0,0.0,0.0
1776452948979522111,78540,0.08,0.3,0.0,1.6,0.06,-0.14,0.06,0.75,1.88,0.01,-0.0,-0.37,0.19,-0.0,0.06,170.3,192.0,0.0,0.0,0.0,0.0
1776452949081927834,78640,0.088,0.2,0.0,0.2,0.18,-0.12,0.06,0.75,1.88,0.0,-0.0,-0.37,0.06,-0.19,-0.06,173.73,195.0,0.0,0.0,0.0,0.0
1776452949180217626,78741,0.0,1.4,0.088,0.2,0.0,-0.06,0.06,0.75,1.88,0.01,-0.0,-0.35,-0.0,0.06,0.19,170.13,193.0,0.0,0.0,0.0,0.0
1776452949282573479,78840,0.0,1.0,0.088,0.3,-0.06,0.04,0.06,0.75,1.88,0.0,-0.0,-0.36,0.06,-0.0,0.0,173.73,193.0,0.0,0.0,0.0,0.0
1776452949380924548,78940,0.0,1.1,0.0,1.3,-0.02,-0.14,0.06,0.75,1.88,0.0,-0.0,-0.38,0.12,-0.0,0.0,173.73,193.0,0.0,0.0,0.0,0.0
1776452949479176490,79040,0.0,0.6,0.076,0.1,0.14,0.02,0.06,0.75,1.88,0.0,-0.0,-0.33,-0.0,-0.12,0.12,173.73,193.0,0.0,0.0,0.0,0.0
1776452949581636155,79139,0.0,0.9,0.088,0.5,0.16,0.0,0.06,0.75,1.88,0.0,-0.0,-0.35,-0.0,0.06,0.06,169.79,195.0,0.0,0.0,0.0,0.0
1776452949684014711,79240,0.0,0.4,0.0,1.2,0.27,-0.1,0.06,0.75,1.88,0.01,-0.0,-0.32,-0.0,-0.06,-0.12,169.61,194.0,0.0,0.0,0.0,0.0
1776452949782313022,79340,0.0,1.2,0.084,0.7,0.08,-0.1,0.06,0.75,1.88,0.0,-0.0,-0.36,-0.06,-0.0,0.06,169.61,194.0,0.0,0.0,0.0,0.0
1776452949880606888,79439,0.0,1.4,0.0,1.2,-0.04,-0.21,0.06,0.75,1.88,0.0,-0.01,-0.34,-0.0,-0.0,0.0,169.61,195.0,0.0,0.0,0.0,0.0
1776452949983044017,79539,0.088,0.2,0.088,0.5,0.2,-0.02,0.06,0.75,1.88,0.0,-0.0,-0.36,0.19,0.06,-0.06,169.61,196.0,0.0,0.0,0.0,0.0
1776452950081294196,79640,0.084,0.3,0.0,1.5,0.08,-0.1,0.06,0.75,1.88,0.0,-0.02,-0.32,-0.06,-0.19,-0.12,169.61,196.0,0.0,0.0,0.0,0.0
1776452950179611613,79739,0.0,1.2,0.072,0.2,0.12,-0.14,0.06,0.75,1.88,0.02,-0.0,-0.35,-0.06,0.12,0.12,169.61,195.0,0.0,0.0,0.0,0.0
1776452950281940998,79839,0.0,1.3,0.0,1.0,0.14,-0.1,0.06,0.75,1.88,0.0,-0.01,-0.32,0.06,0.12,0.0,169.61,188.0,0.0,0.0,0.0,0.0
1776452950380288619,79939,0.088,0.4,0.0,1.2,0.06,-0.27,0.06,0.75,1.88,0.0,-0.0,-0.33,-0.25,0.19,-0.06,169.61,188.0,0.0,0.0,0.0,0.0
1776452950482680743,80039,0.0,1.0,0.092,0.5,0.23,-0.06,0.06,0.75,1.88,0.0,-0.0,-0.33,0.06,-0.0,0.0,173.73,188.0,0.0,0.0,0.0,0.0
1776452950580998105,80139,0.0,0.7,0.0,1.6,0.1,0.02,0.06,0.75,1.88,0.01,-0.0,-0.34,-0.06,-0.0,0.06,173.22,195.0,0.0,0.0,0.0,0.0
1776452950689345998,80239,0.092,0.4,0.0,0.4,0.12,-0.14,0.06,0.75,1.88,0.0,-0.02,-0.32,-0.0,0.06,0.12,173.22,195.0,0.0,0.0,0.0,0.0
1776452950781682092,80339,0.0,1.6,0.088,0.3,0.04,-0.12,0.06,0.75,1.88,0.0,-0.0,-0.32,0.06,0.12,0.06,173.22,199.0,0.0,0.0,0.0,0.0
1776452950884062662,80439,0.0,1.4,0.088,0.2,0.2,-0.02,0.06,0.75,1.88,0.0,-0.0,-0.33,0.06,-0.06,0.19,173.9,199.0,0.0,0.0,0.0,0.0
1776452950982374505,80540,0.0,1.5,0.084,0.2,0.16,-0.1,0.06,0.75,1.88,0.0,-0.01,-0.35,0.19,0.12,-0.06,173.22,195.0,0.0,0.0,0.0,0.0
1776452951084771256,80641,0.0,1.0,0.0,0.4,0.08,0.0,0.06,0.75,1.88,0.0,0.01,-0.36,0.12,-0.12,0.06,169.61,193.0,0.0,0.0,0.0,0.0
1776452951183066039,80741,0.0,1.1,0.0,1.4,0.02,0.0,0.06,0.75,1.88,0.0,0.01,-0.36,-0.0,-0.06,-0.12,169.61,193.0,0.0,0.0,0.0,0.0
1776452951281323379,80841,0.084,0.0,0.0,1.3,0.12,-0.06,0.06,0.75,1.88,-0.01,-0.0,-0.31,-0.0,0.19,0.0,169.44,191.0,0.0,0.0,0.0,0.0
1776452951383704777,80941,0.0,1.1,0.08,1.0,-0.06,-0.04,0.06,0.75,1.88,0.0,-0.01,-0.3,0.12,-0.0,0.06,173.22,197.0,0.0,0.0,0.0,0.0
1776452951486141637,81042,0.092,0.2,0.0,1.0,0.1,-0.06,0.06,0.75,1.88,0.0,-0.0,-0.33,0.12,-0.06,-0.06,173.73,197.0,0.0,0.0,0.0,0.0
1776452951584452995,81142,0.0,0.7,0.076,0.5,0.12,0.06,0.06,0.75,1.88,0.02,-0.01,-0.35,0.06,0.06,0.0,173.04,200.0,0.0,0.0,0.0,0.0
1776452951686849707,81242,0.0,0.7,0.08,0.0,0.23,0.04,0.06,0.75,1.88,0.0,-0.02,-0.32,-0.0,0.19,0.19,173.73,200.0,0.0,0.0,0.0,0.0
1776452951785150750,81342,0.0,0.8,0.0,0.3,0.06,0.04,0.06,0.75,1.88,0.02,-0.0,-0.33,-0.06,0.12,0.0,169.61,196.0,0.0,0.0,0.0,0.0
1776452951883427886,81441,0.0,1.3,0.0,1.1,0.1,-0.08,0.06,0.75,1.88,0.02,-0.0,-0.35,-0.06,-0.06,0.0,173.9,199.0,0.0,0.0,0.0,0.0
1776452951985838617,81541,0.088,0.1,0.0,1.3,0.1,-0.1,0.06,0.75,1.88,0.02,0.01,-0.35,-0.0,-0.0,0.0,169.61,199.0,0.0,0.0,0.0,0.0
1776452952084135471,81641,0.0,0.3,0.0,1.6,0.04,0.02,0.06,0.75,1.88,0.0,-0.01,-0.31,-0.06,-0.0,0.06,169.61,196.0,0.0,0.0,0.0,0.0
1776452952182455823,81740,0.0,1.3,0.076,0.4,-0.02,0.04,0.06,0.75,1.88,-0.01,0.01,-0.32,-0.0,-0.12,0.0,169.61,195.0,0.0,0.0,0.0,0.0
1776452952284831106,81841,0.0,1.3,0.076,0.5,0.16,-0.14,0.06,0.75,1.88,-0.01,-0.0,-0.31,-0.06,-0.06,0.12,173.22,195.0,0.0,0.0,0.0,0.0
1776452952383060201,81942,0.0,1.1,0.084,0.3,-0.04,-0.04,0.06,0.75,1.88,0.0,-0.0,-0.35,-0.0,-0.12,0.06,169.61,197.0,0.0,0.0,0.0,0.0
1776452952485517908,82041,0.0,1.5,0.08,0.0,0.04,0.0,0.06,0.75,1.88,0.0,0.01,-0.35,-0.0,-0.0,-0.06,169.61,204.0,0.0,0.0,0.0,0.0
1776452952583791835,82142,0.0,1.4,0.084,0.2,0.04,0.04,0.06,0.75,1.88,0.0,0.01,-0.33,-0.12,0.12,-0.06,169.61,204.0,0.0,0.0,0.0,0.0
1776452952686221358,82242,0.0,1.2,0.08,0.5,0.08,-0.02,0.06,0.75,1.88,0.02,-0.0,-0.33,-0.0,-0.06,0.06,169.61,194.0,0.0,0.0,0.0,0.0
1776452952784480508,82342,0.0,1.4,0.084,0.3,0.21,-0.04,0.06,0.75,1.88,0.0,-0.0,-0.32,0.06,-0.0,0.0,169.61,198.0,0.0,0.0,0.0,0.0
1776452952886916159,82443,0.0,1.2,0.088,0.4,0.18,0.02,0.06,0.75,1.88,0.0,-0.0,-0.33,0.06,-0.06,0.0,169.61,198.0,0.0,0.0,0.0,0.0
1776452952989299127,82544,0.0,1.4,0.0,1.3,0.2,0.0,0.06,0.75,1.88,0.0,-0.0,-0.35,-0.0,0.06,0.0,173.73,201.0,0.0,0.0,0.0,0.0
1776452953087605291,82643,0.0,0.7,0.08,0.2,-0.08,-0.06,0.06,0.75,1.88,0.01,-0.0,-0.32,-0.0,-0.06,0.0,173.73,201.0,0.0,0.0,0.0,0.0
1776452953185876344,82743,0.0,0.7,0.084,0.2,0.14,-0.14,0.06,0.75,1.88,0.01,-0.0,-0.33,0.06,-0.06,0.0,173.22,196.0,0.0,0.0,0.0,0.0
1776452953288252399,82843,0.0,0.7,0.08,0.4,-0.06,0.04,0.06,0.75,1.88,0.01,0.02,-0.31,-0.06,-0.0,-0.12,169.61,193.0,0.0,0.0,0.0,0.0
1776452953386512360,82944,0.0,0.9,0.088,0.3,0.12,-0.1,0.06,0.75,1.88,-0.01,-0.0,-0.34,0.06,0.06,0.06,169.61,193.0,0.0,0.0,0.0,0.0
1776452953488990025,83044,0.0,0.6,0.088,0.6,-0.06,0.0,0.06,0.75,1.88,0.02,-0.0,-0.32,0.12,-0.0,0.0,169.61,198.0,0.0,0.0,0.0,0.0
1776452953587330224,83144,0.0,0.8,0.076,0.6,0.2,-0.14,0.06,0.75,1.88,0.0,-0.0,-0.31,-0.12,0.12,0.06,169.61,195.0,0.0,0.0,0.0,0.0
1776452953689672558,83245,0.0,0.3,0.0,1.6,0.06,0.0,0.06,0.75,1.88,0.01,-0.0,-0.32,0.12,-0.12,0.0,169.61,195.0,0.0,0.0,0.0,0.0
1776452953787983444,83345,0.0,1.3,0.084,0.1,-0.04,-0.04,0.06,0.75,1.88,0.0,-0.01,-0.34,0.12,-0.0,0.0,169.61,202.0,0.0,0.0,0.0,0.0
1776452953890373240,83444,0.0,0.1,0.08,0.3,-0.1,-0.2,0.06,0.75,1.88,-0.01,-0.0,-0.34,0.06,-0.06,0.12,169.61,201.0,0.0,0.0,0.0,0.0
1776452953988678533,83544,0.0,0.7,0.0,1.6,0.14,0.02,0.06,0.75,1.88,0.0,-0.0,-0.31,0.12,0.06,0.06,169.61,201.0,0.0,0.0,0.0,0.0
1776452954086968007,83644,0.088,0.1,0.088,0.5,0.12,0.02,0.06,0.75,1.88,0.01,-0.02,-0.33,-0.06,-0.06,-0.06,169.61,194.0,0.0,0.0,0.0,0.0
1776452954189371058,83743,0.0,1.3,0.088,0.5,0.16,-0.18,0.06,0.75,1.88,0.0,-0.01,-0.32,0.06,-0.12,0.0,169.61,194.0,0.0,0.0,0.0,0.0
1776452954287655162,83843,0.0,1.4,0.076,0.5,0.12,0.04,0.06,0.75,1.88,0.01,0.01,-0.32,-0.0,-0.12,0.0,169.61,191.0,0.0,0.0,0.0,0.0
1776452954390020250,83944,0.0,1.3,0.084,0.4,0.12,-0.2,0.06,0.75,1.88,0.0,-0.0,-0.31,-0.06,-0.12,0.06,169.61,194.0,0.0,0.0,0.0,0.0
1776452954488362945,84043,0.0,1.2,0.072,0.2,0.04,-0.1,0.06,0.75,1.88,0.01,-0.0,-0.32,-0.06,-0.06,0.0,169.61,194.0,0.0,0.0,0.0,0.0
1776452954590758496,84144,0.0,0.9,0.092,0.6,0.06,0.02,0.06,0.75,1.88,0.01,-0.02,-0.31,-0.06,0.06,0.06,169.61,198.0,0.0,0.0,0.0,0.0
1776452954689050840,84244,0.0,0.8,0.072,0.3,0.0,-0.12,0.06,0.75,1.88,0.0,-0.0,-0.31,-0.06,-0.0,0.0,169.61,198.0,0.0,0.0,0.0,0.0
1776452954787353462,84344,0.0,0.5,0.0,1.6,0.12,-0.23,0.06,0.75,1.88,0.0,-0.01,-0.32,-0.0,0.06,-0.06,169.61,198.0,0.0,0.0,0.0,0.0
1776452954889751827,84444,0.092,0.2,0.0,0.5,0.14,-0.04,0.06,0.75,1.88,0.0,-0.0,-0.33,-0.06,-0.25,0.06,169.61,192.0,0.0,0.0,0.0,0.0
1776452954988047598,84545,0.0,1.4,0.088,0.5,0.0,-0.08,0.06,0.75,1.88,0.02,-0.0,-0.33,0.19,-0.0,0.0,169.61,197.0,0.0,0.0,0.0,0.0
1776452955090446626,84644,0.096,0.4,0.0,1.5,0.16,-0.14,0.06,0.75,1.88,-0.01,-0.0,-0.34,-0.06,-0.12,-0.12,169.61,197.0,0.0,0.0,0.0,0.0
1776452955192835931,84745,0.088,0.6,0.0,1.6,0.0,-0.04,0.06,0.75,1.88,0.0,0.01,-0.35,0.06,-0.12,0.06,169.61,196.0,0.0,0.0,0.0,0.0
1776452955291129845,84846,0.0,0.3,0.0,1.3,0.08,-0.04,0.06,0.75,1.88,0.0,-0.01,-0.34,0.06,0.19,0.0,169.61,199.0,0.0,0.0,0.0,0.0
1776452955389392815,84945,0.0,1.0,0.072,0.3,0.06,-0.06,0.06,0.75,1.88,0.0,-0.02,-0.34,-0.0,0.06,0.0,170.64,199.0,0.0,0.0,0.0,0.0
1776452955491817509,85046,0.0,0.6,0.08,0.2,0.06,-0.14,0.06,0.75,1.88,0.0,-0.0,-0.33,0.06,0.06,0.0,169.79,196.0,0.0,0.0,0.0,0.0
1776452955600197728,85147,0.0,1.0,0.084,0.5,0.18,0.04,0.06,0.75,1.88,0.0,-0.01,-0.3,0.06,0.06,-0.06,169.61,196.0,0.0,0.0,0.0,0.0
1776452955692525505,85246,0.0,1.0,0.0,1.6,0.14,-0.04,0.06,0.75,1.88,0.0,-0.01,-0.33,0.12,-0.12,0.06,169.61,186.0,0.0,0.0,0.0,0.0
1776452955790821845,85346,0.0,1.3,0.08,0.2,0.18,0.02,0.06,0.75,1.88,0.0,-0.0,-0.34,-0.19,-0.0,0.06,173.73,191.0,0.0,0.0,0.0,0.0
1776452955893220502,85446,0.0,1.1,0.084,0.3,0.14,-0.08,0.06,0.75,1.88,0.0,-0.01,-0.34,-0.0,0.06,-0.06,173.22,191.0,0.0,0.0,0.0,0.0
1776452955991520120,85547,0.0,1.3,0.0,0.4,-0.02,-0.12,0.06,0.75,1.88,-0.01,-0.0,-0.32,-0.0,-0.12,0.0,168.93,201.0,0.0,0.0,0.0,0.0
1776452956093906977,85647,0.0,0.2,0.0,1.4,-0.06,-0.04,0.06,0.75,1.88,0.0,-0.0,-0.31,-0.06,0.06,0.06,173.73,199.0,0.0,0.0,0.0,0.0
1776452956192216571,85747,0.088,0.2,0.0,1.4,0.16,-0.02,0.06,0.75,1.88,0.0,-0.0,-0.31,-0.0,-0.0,0.12,169.61,199.0,0.0,0.0,0.0,0.0
1776452956294603983,85847,0.092,0.2,0.0,0.5,0.08,-0.12,0.06,0.75,1.88,0.0,-0.0,-0.34,-0.0,-0.0,-0.06,173.73,191.0,0.0,0.0,0.0,0.0
1776452956392864875,85947,0.0,0.9,0.084,0.4,0.04,-0.04,0.06,0.75,1.88,0.0,-0.0,-0.34,-0.12,0.12,0.06,173.73,191.0,0.0,0.0,0.0,0.0
1776452956501249885,86047,0.0,1.0,0.084,0.6,0.16,-0.06,0.06,0.75,1.88,0.02,-0.0,-0.34,-0.12,-0.0,0.0,169.61,196.0,0.0,0.0,0.0,0.0
1776452956593622806,86147,0.0,0.9,0.084,0.3,0.23,0.08,0.06,0.75,1.88,0.0,-0.0,-0.35,-0.12,-0.06,-0.06,169.61,195.0,0.0,0.0,0.0,0.0
1776452956695989570,86247,0.0,0.2,0.0,1.6,0.18,-0.08,0.06,0.75,1.88,0.01,-0.0,-0.34,-0.06,-0.06,0.0,173.73,195.0,0.0,0.0,0.0,0.0
1776452956794287183,86347,0.0,1.4,0.08,0.1,0.08,-0.06,0.06,0.75,1.88,0.0,-0.03,-0.33,0.12,-0.06,0.0,174.24,196.0,0.0,0.0,0.0,0.0
1776452956896690095,86448,0.0,1.3,0.0,1.2,0.0,-0.1,0.06,0.75,1.88,0.0,-0.0,-0.33,-0.06,0.06,0.06,173.04,203.0,0.0,0.0,0.0,0.0
1776452956994987727,86549,0.0,0.7,0.084,0.0,0.14,0.0,0.06,0.75,1.88,0.0,-0.0,-0.32,0.12,0.06,-0.06,173.22,203.0,0.0,0.0,0.0,0.0
1776452957093257225,86648,0.0,0.9,0.084,0.2,0.06,-0.02,0.06,0.75,1.88,0.0,-0.02,-0.32,0.12,-0.12,0.06,173.22,189.0,0.0,0.0,0.0,0.0
1776452957195681373,86749,0.0,0.7,0.088,0.2,0.0,-0.1,0.06,0.75,1.88,0.0,-0.0,-0.33,-0.0,-0.06,0.0,169.61,191.0,0.0,0.0,0.0,0.0
1776452957298042892,86850,0.0,0.0,0.0,1.5,0.08,-0.06,0.06,0.75,1.88,0.02,-0.0,-0.31,-0.06,-0.0,0.0,169.61,191.0,0.0,0.0,0.0,0.0
1776452957396328815,86950,0.096,0.2,0.0,1.2,0.12,-0.14,0.06,0.75,1.88,0.0,0.01,-0.34,0.06,-0.12,0.0,169.61,195.0,0.0,0.0,0.0,0.0
1776452957498761018,87050,0.096,0.1,0.0,1.4,0.18,-0.14,0.06,0.75,1.88,0.0,-0.0,-0.35,-0.0,0.06,0.0,173.73,194.0,0.0,0.0,0.0,0.0
1776452957597078349,87151,0.092,0.0,0.0,1.4,0.12,0.12,0.06,0.75,1.88,-0.02,-0.01,-0.35,-0.06,-0.0,0.0,173.73,194.0,0.0,0.0,0.0,0.0
1776452957699446479,87251,0.092,0.0,0.0,1.6,0.2,-0.04,0.06,0.75,1.88,0.0,-0.0,-0.33,-0.0,-0.0,0.0,169.61,197.0,0.0,0.0,0.0,0.0
1776452957797761180,87351,0.0,1.3,0.08,0.1,0.06,-0.12,0.06,0.75,1.88,-0.01,-0.0,-0.32,-0.12,-0.06,0.0,169.61,197.0,0.0,0.0,0.0,0.0
1776452957900158309,87452,0.0,-0.2,0.0,0.7,0.21,-0.1,0.06,0.75,1.88,0.01,-0.01,-0.35,-0.0,-0.06,-0.06,169.61,194.0,0.0,0.0,0.0,0.0
1776452957998421141,87553,0.0,0.1,0.0,1.3,0.06,-0.16,0.06,0.75,1.88,0.0,-0.0,-0.33,0.12,-0.0,0.0,169.61,191.0,0.0,0.0,0.0,0.0
1776452958100840599,87653,0.0,0.8,0.0,1.3,-0.02,-0.14,0.06,0.75,1.88,0.0,-0.0,-0.34,-0.06,-0.06,0.0,169.61,191.0,0.0,0.0,0.0,0.0
1776452958199120963,87753,0.088,0.2,0.0,1.7,0.02,-0.12,0.06,0.75,1.88,-0.01,-0.01,-0.34,-0.12,-0.0,0.0,169.61,192.0,0.0,0.0,0.0,0.0
1776452958301522310,87854,0.092,0.3,0.0,0.2,0.0,-0.1,0.06,0.75,1.88,0.0,-0.0,-0.32,-0.12,-0.0,-0.12,169.61,199.0,0.0,0.0,0.0,0.0
1776452958403898694,87954,0.084,0.1,0.0,1.1,0.14,-0.14,0.06,0.75,1.88,0.0,-0.0,-0.33,-0.06,-0.0,0.06,169.61,199.0,0.0,0.0,0.0,0.0
1776452958502238798,88054,0.0,0.1,0.0,1.6,0.14,0.04,0.06,0.75,1.88,0.0,-0.0,-0.33,-0.12,0.06,-0.12,173.22,201.0,0.0,0.0,0.0,0.0
1776452958600528292,88154,0.092,0.3,0.0,0.5,0.14,-0.06,0.06,0.75,1.88,0.0,-0.0,-0.34,0.06,-0.0,0.0,173.04,200.0,0.0,0.0,0.0,0.0
1776452958702926787,88254,0.088,0.5,0.092,0.6,0.0,-0.16,0.06,0.75,1.88,-0.01,-0.0,-0.33,-0.0,-0.06,0.12,168.93,200.0,0.0,0.0,0.0,0.0
1776452958801235484,88354,0.0,0.1,0.0,0.0,0.02,-0.1,0.06,0.75,1.88,0.0,-0.0,-0.33,-0.06,-0.12,-0.12,173.04,188.0,0.0,0.0,0.0,0.0
1776452958903628090,88455,0.0,1.1,0.088,0.5,0.06,0.02,0.06,0.75,1.88,0.0,0.01,-0.35,-0.06,0.06,0.0,173.22,188.0,0.0,0.0,0.0,0.0
1776452959001924343,88555,0.0,1.0,0.0,0.5,0.02,-0.16,0.06,0.75,1.88,0.0,-0.01,-0.33,0.06,-0.0,0.0,173.22,197.0,0.0,0.0,0.0,0.0
1776452959104314259,88655,0.0,0.3,0.0,0.2,0.18,-0.06,0.06,0.75,1.88,0.0,-0.0,-0.31,-0.0,-0.06,0.0,173.22,192.0,0.0,0.0,0.0,0.0
1776452959202619637,88755,0.0,1.6,0.084,0.4,0.2,-0.14,0.06,0.75,1.88,0.0,-0.0,-0.35,-0.12,-0.0,-0.12,173.22,192.0,0.0,0.0,0.0,0.0
1776452959304965425,88856,0.0,0.6,0.0,1.5,0.08,0.02,0.06,0.75,1.88,0.0,-0.01,-0.34,-0.06,0.06,-0.06,169.44,193.0,0.0,0.0,0.0,0.0
1776452959403291617,88955,0.092,0.1,0.0,1.2,0.14,0.04,0.06,0.75,1.88,0.0,0.01,-0.32,0.06,0.06,0.0,169.61,194.0,0.0,0.0,0.0,0.0
1776452959501606087,89055,0.096,0.0,0.0,1.1,0.02,-0.02,0.06,0.75,1.88,0.0,0.01,-0.31,0.06,-0.19,0.12,173.22,194.0,0.0,0.0,0.0,0.0
1776452959604025152,89155,0.08,0.2,0.0,0.2,-0.02,-0.06,0.06,0.75,1.88,0.0,-0.0,-0.31,0.06,-0.0,0.06,169.1,195.0,0.0,0.0,0.0,0.0
1776452959702293882,89254,0.0,0.1,0.0,1.4,0.1,0.04,0.06,0.75,1.88,0.0,-0.0,-0.32,0.06,-0.12,0.0,173.22,202.0,0.0,0.0,0.0,0.0
1776452959804686243,89355,0.096,0.3,0.0,1.1,0.08,0.0,0.06,0.75,1.88,0.0,-0.0,-0.32,0.12,-0.06,-0.12,173.22,202.0,0.0,0.0,0.0,0.0
1776452959903001176,89455,0.092,0.1,0.064,0.5,0.0,0.0,0.06,0.75,1.88,0.0,-0.01,-0.33,-0.0,-0.0,-0.12,169.61,196.0,0.0,0.0,0.0,0.0
1776452960001322942,89554,0.0,0.8,0.08,0.5,0.08,-0.06,0.06,0.75,1.88,-0.03,-0.01,-0.35,-0.0,0.19,-0.12,172.7,194.0,0.0,0.0,0.0,0.0
1776452960103691244,89654,0.0,1.1,0.092,0.1,-0.04,-0.16,0.06,0.75,1.88,0.0,-0.0,-0.33,0.06,-0.06,-0.06,173.73,194.0,0.0,0.0,0.0,0.0
1776452960201991506,89755,0.0,1.0,0.088,0.3,-0.02,-0.08,0.06,0.75,1.88,0.0,-0.0,-0.34,0.06,-0.12,-0.12,173.22,194.0,0.0,0.0,0.0,0.0
1776452960304372308,89854,0.0,0.9,0.088,0.6,0.08,0.02,0.06,0.75,1.88,-0.02,-0.0,-0.33,-0.0,0.06,0.06,173.22,194.0,0.0,0.0,0.0,0.0
1776452960402596201,89955,0.092,0.3,0.076,0.2,0.12,-0.04,0.06,0.75,1.88,-0.01,-0.0,-0.32,-0.06,-0.0,0.06,173.22,193.0,0.0,0.0,0.0,0.0
1776452960505085908,90055,0.0,1.5,0.084,0.4,0.16,-0.1,0.06,0.75,1.88,-0.01,-0.02,-0.36,-0.06,-0.0,0.0,169.61,198.0,0.0,0.0,0.0,0.0
1776452960607479857,90156,0.0,1.2,0.084,0.7,0.08,-0.12,0.06,0.75,1.88,0.01,0.01,-0.3,-0.0,0.12,0.06,169.61,198.0,0.0,0.0,0.0,0.0
1776452960705791267,90257,0.0,1.2,0.0,1.4,0.1,0.0,0.06,0.75,1.88,0.01,-0.02,-0.34,-0.0,-0.06,-0.06,169.61,192.0,0.0,0.0,0.0,0.0
1776452960804069271,90356,0.092,0.1,0.084,0.5,0.12,-0.1,0.06,0.75,1.88,0.0,-0.0,-0.35,0.12,-0.12,0.06,170.64,196.0,0.0,0.0,0.0,0.0
1776452960906460720,90457,0.0,0.7,0.084,0.3,0.06,-0.16,0.06,0.75,1.88,0.0,-0.0,-0.33,-0.0,-0.0,0.12,169.61,196.0,0.0,0.0,0.0,0.0
1776452961014846193,90558,0.0,1.2,0.084,0.3,-0.1,-0.1,0.06,0.75,1.88,0.01,-0.0,-0.34,-0.0,-0.19,-0.12,169.61,194.0,0.0,0.0,0.0,0.0
1776452961107147520,90657,0.0,1.1,0.084,0.5,0.16,-0.04,0.06,0.75,1.88,0.0,-0.0,-0.35,-0.0,0.12,0.12,169.61,194.0,0.0,0.0,0.0,0.0
1776452961205465518,90757,0.0,1.2,0.08,0.5,-0.12,-0.12,0.06,0.75,1.88,0.0,-0.03,-0.33,-0.0,-0.06,0.0,169.61,196.0,0.0,0.0,0.0,0.0
1776452961307832315,90857,0.0,1.2,0.084,0.3,0.16,-0.02,0.06,0.75,1.88,0.01,-0.01,-0.34,-0.0,-0.0,0.0,169.61,197.0,0.0,0.0,0.0,0.0
1776452961406108092,90957,0.0,1.3,0.084,0.3,0.02,0.0,0.06,0.75,1.88,0.01,-0.0,-0.35,-0.12,-0.06,0.0,173.73,197.0,0.0,0.0,0.0,0.0
1776452961508542759,91057,0.0,0.1,0.0,0.2,-0.06,-0.21,0.06,0.75,1.88,0.01,-0.0,-0.32,-0.06,-0.0,0.0,173.73,196.0,0.0,0.0,0.0,0.0
1776452961606848961,91157,0.0,1.6,0.092,0.1,0.08,0.02,0.06,0.75,1.88,0.0,-0.0,-0.33,-0.0,-0.12,0.0,174.42,196.0,0.0,0.0,0.0,0.0
1776452961705143552,91256,0.0,1.6,0.0,1.3,-0.02,0.02,0.06,0.75,1.88,-0.02,-0.02,-0.34,0.06,-0.12,-0.06,170.3,196.0,0.0,0.0,0.0,0.0
1776452961807553090,91357,0.088,0.2,0.0,0.4,0.02,-0.02,0.06,0.75,1.88,0.0,-0.01,-0.34,-0.06,-0.0,-0.06,170.13,197.0,0.0,0.0,0.0,0.0
1776452961905836385,91457,0.0,0.7,0.0,1.2,0.06,-0.06,0.06,0.75,1.88,0.01,-0.0,-0.35,0.06,0.06,0.06,170.3,191.0,0.0,0.0,0.0,0.0
1776452962008215830,91557,0.0,0.2,0.0,1.2,0.06,-0.12,0.06,0.75,1.88,0.01,-0.01,-0.33,-0.0,-0.12,-0.06,170.13,191.0,0.0,0.0,0.0,0.0
1776452962110623955,91658,0.092,-0.1,0.0,1.1,0.18,0.08,0.06,0.75,1.88,0.0,-0.0,-0.32,-0.0,-0.0,-0.06,170.13,193.0,0.0,0.0,0.0,0.0
1776452962208928820,91759,0.0,1.0,0.0,0.6,0.06,0.02,0.06,0.75,1.88,0.0,-0.01,-0.35,-0.06,0.06,0.06,170.3,194.0,0.0,0.0,0.0,0.0
1776452962307205833,91858,0.0,1.5,0.092,0.3,0.12,-0.2,0.06,0.75,1.88,0.01,-0.0,-0.31,-0.06,0.12,0.0,173.73,194.0,0.0,0.0,0.0,0.0
1776452962409588996,91958,0.0,1.3,0.1,0.5,0.18,0.02,0.06,0.75,1.88,0.01,-0.0,-0.33,0.12,-0.06,0.06,173.73,194.0,0.0,0.0,0.0,0.0
1776452962507913953,92058,0.0,1.2,0.0,0.6,0.2,-0.06,0.06,0.75,1.88,-0.01,-0.0,-0.33,-0.0,0.12,-0.06,173.73,194.0,0.0,0.0,0.0,0.0
1776452962610308893,92158,0.0,0.1,0.076,0.1,0.21,0.02,0.06,0.75,1.88,0.0,-0.0,-0.33,0.12,-0.0,0.06,173.9,201.0,0.0,0.0,0.0,0.0
1776452962708665146,92258,0.0,1.4,0.084,0.3,0.12,-0.06,0.06,0.75,1.88,0.0,-0.0,-0.35,-0.0,-0.0,0.0,173.73,195.0,0.0,0.0,0.0,0.0
1776452962806884919,92358,0.0,1.0,0.096,0.2,0.04,-0.21,0.06,0.75,1.88,-0.01,0.01,-0.31,-0.06,0.06,0.0,173.9,195.0,0.0,0.0,0.0,0.0
1776452962909302767,92459,0.0,1.3,0.084,0.3,-0.08,-0.1,0.06,0.75,1.88,-0.02,-0.01,-0.32,0.06,-0.06,-0.06,173.9,199.0,0.0,0.0,0.0,0.0
1776452963007601650,92559,0.0,0.1,0.0,0.8,0.08,0.04,0.06,0.75,1.88,0.0,-0.01,-0.35,0.06,-0.0,0.06,173.73,192.0,0.0,0.0,0.0,0.0
1776452963109994475,92658,0.0,0.8,0.0,1.4,0.1,0.02,0.06,0.75,1.88,0.0,-0.01,-0.34,0.06,-0.06,0.0,174.24,192.0,0.0,0.0,0.0,0.0
1776452963208292798,92758,0.092,0.8,0.088,0.6,0.1,-0.02,0.06,0.75,1.88,-0.01,-0.0,-0.35,0.06,-0.0,0.0,170.13,195.0,0.0,0.0,0.0,0.0
1776452963306508456,92858,0.0,0.8,0.088,0.2,0.1,-0.04,0.06,0.75,1.88,-0.01,-0.01,-0.31,-0.12,0.06,0.12,174.42,195.0,0.0,0.0,0.0,0.0
1776452963408986372,92957,0.0,0.1,0.0,1.6,0.14,-0.04,0.06,0.75,1.88,0.01,0.01,-0.33,-0.06,0.06,0.06,173.73,195.0,0.0,0.0,0.0,0.0
1776452963517353442,93058,0.092,0.1,0.0,1.5,0.12,-0.14,0.06,0.75,1.88,0.0,-0.01,-0.32,-0.0,-0.06,-0.06,173.73,191.0,0.0,0.0,0.0,0.0
1776452963609688372,93158,0.08,0.2,0.0,1.5,-0.12,-0.1,0.06,0.75,1.88,0.01,-0.0,-0.31,-0.12,0.06,0.06,174.42,191.0,0.0,0.0,0.0,0.0
1776452963707981140,93258,0.084,0.1,0.0,1.4,0.14,-0.02,0.06,0.75,1.88,0.0,-0.0,-0.33,-0.12,0.06,-0.06,174.24,194.0,0.0,0.0,0.0,0.0
1776452963810373854,93359,0.0,1.2,0.088,0.3,-0.04,0.0,0.06,0.75,1.88,0.01,-0.0,-0.32,-0.12,-0.0,0.0,170.13,192.0,0.0,0.0,0.0,0.0
1776452963918719054,93459,0.0,1.3,0.084,0.3,-0.14,-0.06,0.06,0.75,1.88,0.0,-0.0,-0.33,-0.06,0.12,0.0,170.3,192.0,0.0,0.0,0.0,0.0
1776452964011071224,93559,0.0,1.3,0.0,0.3,0.2,-0.08,0.06,0.75,1.88,0.0,0.01,-0.31,0.06,-0.0,0.06,170.3,191.0,0.0,0.0,0.0,0.0
1776452964113469896,93660,0.0,0.5,0.0,1.7,0.0,-0.06,0.06,0.75,1.88,0.0,-0.0,-0.32,-0.0,0.12,0.12,170.3,188.0,0.0,0.0,0.0,0.0
1776452964211734864,93761,0.092,0.1,0.084,0.2,0.16,-0.04,0.06,0.75,1.88,0.0,-0.01,-0.32,0.06,-0.12,0.06,170.13,188.0,0.0,0.0,0.0,0.0
1776452964310055312,93860,0.0,1.3,0.076,0.2,0.2,-0.06,0.06,0.75,1.88,0.0,0.01,-0.32,0.06,0.12,0.19,170.3,192.0,0.0,0.0,0.0,0.0
1776452964412437596,93960,0.0,0.7,0.084,0.3,0.08,-0.12,0.06,0.75,1.88,0.01,-0.01,-0.36,-0.0,0.06,0.12,173.73,194.0,0.0,0.0,0.0,0.0
1776452964510749063,94060,0.0,1.2,0.076,0.3,0.14,-0.16,0.06,0.75,1.88,0.0,0.01,-0.35,0.12,-0.0,0.12,170.99,194.0,0.0,0.0,0.0,0.0
1776452964613160735,94160,0.0,1.0,0.0,1.6,0.14,-0.12,0.06,0.75,1.88,-0.01,-0.02,-0.36,0.06,-0.06,0.0,174.42,195.0,0.0,0.0,0.0,0.0
1776452964711449406,94260,0.088,0.2,0.0,1.4,0.1,-0.16,0.06,0.75,1.88,0.0,0.01,-0.33,-0.0,-0.06,0.0,174.42,195.0,0.0,0.0,0.0,0.0
1776452964809705504,94360,0.1,0.1,0.0,1.5,0.0,-0.27,0.06,0.75,1.88,0.0,-0.0,-0.34,-0.0,-0.0,0.06,174.42,196.0,0.0,0.0,0.0,0.0
