timestamp_ns,time_ms,voltage_left,current_left_ma,voltage_right,current_right_ma,motor_current_left,motor_current_right,euler_x,euler_y,euler_z,acc_lin_x,acc_lin_y,acc_lin_z,gyro_x,gyro_y,gyro_z,sonar_mm,tof_mm,rpm_left,rpm_right,rotations_left,rotations_right
1776370303046349693,49415,0.0,0.6,0.02,0.6,-0.04,-0.08,175.94,-0.0,10.81,0.0,-0.14,-0.14,-0.94,-0.5,-0.69,791.47,1167.0,0.0,0.0,0.0,
1776370303142531148,1904,0.0,0.9,0.0,0.1,-0.08,-0.14,-0.06,-0.31,9.94,0.03,0.01,-0.05,-0.0,-0.31,0.56,11935.2,796.0,0.0,0.0,0.0,0.0
1776370303240813805,2004,0.0,1.0,0.028,0.9,-0.04,-0.1,-0.06,-0.31,9.94,0.0,-0.0,-0.02,0.12,0.12,0.12,11934.86,1009.0,0.0,0.0,0.0,0.0
1776370303331212922,2104,0.0,0.5,0.0,1.3,-0.1,-0.08,-0.06,-0.37,9.94,0.05,-0.01,0.05,-0.88,1.19,-1.0,11935.71,957.0,0.0,0.0,0.0,0.0
1776370303433585223,2204,0.016,0.1,0.0,1.2,-0.08,-0.04,-0.19,-0.44,9.75,0.0,-0.03,-0.06,-1.56,-0.19,-1.31,11936.91,957.0,0.0,0.0,0.0,0.0
1776370303537880722,2305,0.0,0.9,0.0,0.1,-0.02,-0.14,-0.37,-0.44,9.63,0.05,-0.02,-0.09,-0.75,-1.5,-2.5,11934.17,778.0,0.0,0.0,0.0,0.0
1776370303642206851,2405,0.0,0.4,0.0,0.9,0.04,0.0,-0.69,-0.37,9.63,0.02,0.02,0.04,0.12,-0.44,-3.44,11933.48,814.0,0.0,0.0,0.0,0.0
1776370303734609206,2505,0.0,0.3,0.0,0.6,-0.1,-0.06,-0.94,-0.44,9.56,0.01,0.06,-0.11,-0.94,0.19,-2.06,11935.37,814.0,0.0,0.0,0.0,0.0
1776370303842936347,2606,0.0,0.6,0.0,0.2,0.0,-0.1,-0.94,-0.63,9.56,0.16,0.05,0.0,0.5,3.25,2.69,11934.17,752.0,0.0,0.0,0.0,0.0
1776370303935226181,2706,0.0,0.4,0.0,1.2,0.02,-0.02,-0.56,-0.69,9.5,0.43,0.06,-0.3,0.75,-0.37,4.06,11932.45,843.0,0.0,0.0,0.0,0.0
1776370304043627213,2806,0.0,0.6,0.0,0.8,-0.12,-0.18,-0.12,-0.94,10.0,0.12,-0.07,0.91,9.0,6.25,8.19,11931.08,843.0,0.0,0.0,0.0,0.0
1776370304133961439,2907,0.0,0.4,0.0,1.1,-0.18,-0.16,0.63,-1.5,10.88,0.21,-0.73,0.76,8.25,7.0,8.13,825.94,843.0,0.0,0.0,0.0,0.0
1776370304236404703,3007,0.052,0.1,0.0,1.3,0.1,-0.1,1.56,-1.69,11.75,-0.21,-0.27,0.68,5.25,3.06,12.31,797.47,1032.0,0.0,0.0,0.0,0.0
1776370304334693490,3106,0.044,0.0,0.0,0.3,-0.04,0.02,2.69,-2.56,11.88,-0.13,-0.25,0.25,-4.44,20.06,7.31,837.26,864.0,0.0,0.0,0.0,0.0
1776370304437065864,3206,0.0,0.7,0.032,0.2,-0.06,-0.08,3.5,-4.0,10.88,0.31,-0.6,0.25,-17.06,10.94,7.19,929.7,864.0,0.0,0.0,0.0,0.0
1776370304535364336,3306,0.0,0.3,0.012,0.5,0.1,-0.1,4.56,-4.31,9.19,0.58,-0.64,-0.4,-13.69,1.63,11.81,902.95,927.0,0.0,0.0,0.0,0.0
1776370304635633675,3405,0.012,0.2,0.0,0.9,-0.08,-0.18,5.88,-4.13,8.63,0.75,0.27,-0.6,0.06,-0.94,14.0,11933.31,978.0,0.0,0.0,0.0,0.0
1776370304736112351,3505,0.008,0.2,0.0,0.8,0.16,-0.08,7.19,-3.69,9.0,0.64,0.32,-1.06,5.25,-0.94,9.31,900.72,978.0,0.0,0.0,0.0,0.0
1776370304834397156,3605,0.008,0.2,0.012,0.2,-0.02,-0.12,7.44,-3.13,9.13,0.39,0.14,-0.52,-0.75,-4.5,-3.5,917.35,994.0,0.0,0.0,0.0,0.0
1776370304932702276,3704,0.0,0.2,0.0,1.0,0.04,-0.04,6.63,-2.81,8.94,0.78,0.44,0.03,0.5,-1.37,-11.19,927.47,994.0,0.0,0.0,0.0,0.0
1776370305035104984,3804,0.0,0.4,0.0,1.0,-0.02,-0.14,5.31,-2.88,8.75,0.22,0.12,0.12,5.0,4.63,-15.94,898.83,755.0,0.0,0.0,0.0,0.0
1776370305133431234,3904,0.0,0.0,0.0,1.3,0.02,-0.06,3.69,-3.0,8.94,-0.2,-0.9,1.5,7.06,-3.0,-15.63,864.7,1344.0,0.0,0.0,0.0,0.0
1776370305233657498,4004,0.056,0.1,0.0,0.4,-0.1,-0.12,2.25,-2.56,9.25,-0.88,-0.49,0.31,0.25,-2.75,-13.25,11933.31,1060.0,0.0,0.0,0.0,0.0
1776370305334112858,4104,0.0,0.2,0.0,0.9,0.1,-0.08,1.25,-2.63,9.0,-0.93,-0.9,-0.12,-3.5,-1.44,-9.06,933.3,1060.0,0.0,0.0,0.0,0.0
1776370305432403478,4204,0.028,0.4,0.0,0.8,-0.04,-0.04,0.69,-2.5,8.44,-0.25,-0.67,-0.33,-6.44,0.44,-3.19,921.98,1280.0,0.0,0.0,0.0,0.0
1776370305534773666,4303,0.016,0.4,0.0,0.8,0.02,-0.12,0.5,-2.69,7.81,-0.07,-0.43,-0.83,-5.19,4.56,-3.31,973.78,1280.0,0.0,0.0,0.0,0.0
1776370305633121380,4404,0.02,0.1,0.0,0.5,0.0,-0.23,0.37,-3.13,7.06,0.01,-0.58,-0.85,-9.25,2.63,-0.19,965.54,849.0,0.0,0.0,0.0,0.0
1776370305735499958,4504,0.0,0.6,0.0,0.3,-0.18,-0.08,0.5,-3.44,6.44,0.79,-0.55,-0.38,-1.0,0.56,2.19,983.72,1822.0,0.0,0.0,0.0,0.0
1776370305833809522,4603,0.0,0.3,0.008,0.9,0.1,-0.08,0.75,-3.56,6.31,0.94,-0.08,-0.13,5.94,-0.56,4.56,930.73,1822.0,0.0,0.0,0.0,0.0
1776370305934017082,4704,0.004,-0.1,0.0,1.1,0.06,-0.1,1.63,-3.31,6.44,-0.54,-0.39,0.35,-2.31,-2.5,13.75,11932.28,905.0,0.0,0.0,0.0,0.0
1776370306034502794,4803,0.008,0.2,0.0,0.2,0.04,-0.1,2.94,-2.94,5.88,-1.35,-0.01,0.87,-8.88,-3.06,10.06,960.4,1985.0,0.0,0.0,0.0,0.0
1776370306132823229,4903,0.0,0.3,0.0,0.7,0.02,-0.04,3.56,-2.75,5.5,-0.63,0.36,0.26,0.56,2.44,5.38,966.23,1985.0,0.0,0.0,0.0,0.0
1776370306231075774,5003,0.052,0.3,0.0,0.5,-0.02,-0.08,4.38,-2.94,6.38,-0.56,0.11,-0.04,6.81,4.0,9.81,1035.0,1264.0,0.0,0.0,0.0,0.0
1776370306333518668,5103,0.0,1.0,0.0,0.9,-0.08,0.02,5.0,-3.06,7.13,-0.13,0.09,-0.26,1.31,1.06,2.5,950.45,1264.0,0.0,0.0,0.0,0.0
1776370306431819621,5202,0.0,0.1,0.0,1.0,-0.1,-0.04,4.94,-3.13,6.38,0.42,-0.02,-0.74,-13.38,-3.44,-0.5,976.18,683.0,0.0,0.0,0.0,0.0
1776370306530045962,5302,0.02,0.5,0.0,1.3,-0.04,-0.18,5.19,-2.5,5.06,0.42,0.08,-0.78,-9.81,-5.44,4.06,995.39,1075.0,0.0,0.0,0.0,0.0
1776370306632488633,5401,0.0,0.9,0.0,1.0,-0.04,0.06,5.5,-2.0,4.25,0.16,0.19,-0.28,-2.81,0.5,0.56,1041.86,1075.0,0.0,0.0,0.0,0.0
1776370306730831365,5500,0.004,0.2,0.0,0.6,0.04,0.06,5.06,-2.56,3.94,0.0,-0.13,0.23,-5.88,8.5,-10.81,987.67,1088.0,0.0,0.0,0.0,0.0
1776370306829119447,5600,0.012,0.7,0.0,0.3,0.0,0.02,3.44,-3.06,2.75,-0.92,-0.28,0.71,-8.19,-2.81,-18.75,1021.63,1142.0,0.0,0.0,0.0,0.0
1776370306927399289,5699,0.0,0.1,0.0,0.3,0.04,-0.08,2.13,-2.44,2.75,-1.31,-0.23,0.18,7.44,-10.0,-7.56,957.31,1142.0,0.0,0.0,0.0,0.0
1776370307029822145,5798,0.0,0.3,0.0,0.1,0.02,-0.04,1.75,-1.81,4.25,-0.86,-0.16,-0.16,15.94,-1.31,-2.75,986.98,1070.0,0.0,0.0,0.0,0.0
1776370307130061260,5899,0.004,0.2,0.0,1.4,-0.04,-0.04,1.25,-2.31,6.19,-0.18,-0.14,-0.54,13.81,6.81,-6.69,11931.08,1259.0,0.0,0.0,0.0,0.0
1776370307230539213,5999,0.056,0.4,0.048,0.5,-0.04,-0.04,0.75,-3.0,7.0,0.04,-0.24,-0.21,1.5,3.31,-3.5,992.13,1259.0,0.0,0.0,0.0,0.0
1776370307330766643,6098,0.0,0.1,0.0,1.2,0.0,0.02,0.5,-3.25,7.0,0.42,-0.08,-0.17,1.19,1.81,-1.19,11931.6,1141.0,0.0,0.0,0.0,0.0
1776370307431234558,6198,0.0,1.1,0.028,0.2,0.0,-0.02,0.19,-3.5,6.81,0.62,-0.17,-0.52,3.19,-0.0,-3.88,950.45,1141.0,0.0,0.0,0.0,0.0
1776370307529483936,6299,0.0,0.6,0.016,0.4,-0.02,-0.18,0.06,-3.5,6.31,0.56,-0.11,-0.24,-4.13,-4.94,2.38,943.94,1360.0,0.0,0.0,0.0,0.0
1776370307633845140,6400,0.0,0.2,0.0,1.0,-0.04,-0.02,0.56,-3.0,5.06,0.64,-0.0,-0.01,-6.88,-8.13,9.31,11932.28,1392.0,0.0,0.0,0.0,0.0
1776370307730240727,6500,0.0,0.4,0.0,1.0,-0.14,0.08,1.56,-2.38,4.38,-0.44,0.08,0.65,-5.88,-2.31,14.31,973.78,1392.0,0.0,0.0,0.0,0.0
1776370307840501289,6599,0.008,0.3,0.0,0.8,-0.04,-0.1,3.13,-2.63,4.38,-0.82,-0.07,0.89,-1.94,9.0,17.0,11932.63,1069.0,0.0,0.0,0.0,0.0
1776370307930926073,6700,0.004,0.1,0.0,1.2,0.02,-0.23,4.75,-3.31,5.0,-0.88,-0.15,0.56,-0.56,5.25,16.31,967.43,1127.0,0.0,0.0,0.0,0.0
1776370308039278454,6800,0.0,0.2,0.0,0.5,-0.02,-0.1,6.0,-2.94,5.38,-0.01,-0.0,-0.28,0.69,-12.38,5.75,1074.1,1127.0,0.0,0.0,0.0,0.0
1776370308131624325,6900,0.0,0.3,0.0,1.0,-0.14,-0.02,5.13,-2.06,4.75,-0.34,0.52,-0.97,-11.94,-3.38,-15.13,979.09,1238.0,0.0,0.0,0.0,0.0
1776370308229892481,7000,0.0,0.9,0.052,1.0,-0.1,-0.08,4.38,-1.88,3.75,-0.15,0.2,-0.46,-12.25,2.0,-0.37,1068.79,1428.0,0.0,0.0,0.0,0.0
1776370308332340837,7100,0.04,0.7,0.048,0.3,0.0,0.08,4.94,-2.44,2.94,0.36,-0.31,-0.68,-7.19,7.0,5.88,1007.39,1428.0,0.0,0.0,0.0,0.0
1776370308430619864,7199,0.0,0.1,0.0,0.9,0.12,-0.14,4.69,-2.5,1.69,0.58,0.27,-0.83,-14.88,-0.94,-8.75,1027.46,1078.0,0.0,0.0,0.0,0.0
1776370308533037997,7300,0.02,0.3,0.0,0.9,-0.08,-0.04,3.81,-2.81,0.63,1.15,-0.0,0.02,-6.06,7.81,-8.94,999.5,1078.0,0.0,0.0,0.0,0.0
1776370308631341413,7401,0.0,0.3,0.0,0.5,-0.16,-0.08,2.31,-3.19,1.69,-0.3,-0.38,0.74,28.06,-5.25,-23.19,974.46,879.0,0.0,0.0,0.0,0.0
1776370308741745940,7500,0.0,0.1,0.0,0.6,-0.08,-0.14,-0.06,-2.69,4.13,-1.47,0.18,0.34,18.31,-0.19,-20.62,11935.03,1241.0,0.0,0.0,0.0,0.0
1776370308832043240,7600,0.008,0.4,0.0,0.3,0.04,-0.04,-1.44,-3.5,4.5,-0.98,-0.15,0.88,-3.0,12.0,-8.81,942.22,1241.0,0.0,0.0,0.0,0.0
1776370308930334618,7700,0.0,1.0,0.0,0.6,0.06,-0.06,-1.25,-4.5,4.25,0.97,-0.1,-0.63,-3.0,5.81,8.13,976.69,1028.0,0.0,0.0,0.0,0.0
1776370309032741807,7799,0.0,0.7,0.004,0.5,0.1,-0.14,-0.25,-4.75,3.94,0.62,-0.12,-0.28,6.38,1.37,11.0,983.55,1221.0,0.0,0.0,0.0,0.0
1776370309131039574,7900,0.0,0.5,0.0,1.2,0.08,-0.18,0.5,-4.75,4.63,0.0,-0.21,-0.33,7.19,-1.31,3.88,957.31,1221.0,0.0,0.0,0.0,0.0
1776370309233438466,8000,0.052,-0.1,0.0,1.2,-0.02,0.1,0.37,-4.56,4.63,0.13,-0.31,-0.48,-5.69,-4.31,-3.06,973.09,674.0,0.0,0.0,0.0,0.0
1776370309331753308,8099,0.044,0.1,0.0,1.1,0.06,-0.08,0.31,-4.19,3.94,0.87,-0.18,-0.71,-7.25,-5.56,3.06,988.18,674.0,0.0,0.0,0.0,0.0
1776370309430053372,8199,0.0,1.0,0.0,1.0,0.16,-0.04,0.94,-3.81,2.75,0.55,-0.13,-0.49,0.81,-8.75,9.81,11932.45,980.0,0.0,0.0,0.0,0.0
1776370309532403930,8299,0.024,0.1,0.0,1.0,-0.16,-0.18,2.06,-2.88,2.75,-1.03,0.07,1.08,-1.06,-6.31,14.13,931.42,916.0,0.0,0.0,0.0,0.0
1776370309630762402,8399,0.0,0.3,0.0,0.8,0.0,-0.16,3.25,-2.81,2.81,-0.72,0.07,0.77,2.69,0.63,9.13,929.87,916.0,0.0,0.0,0.0,0.0
1776370309733136757,8499,0.008,0.3,0.0,0.9,-0.12,-0.14,4.13,-2.56,3.88,-1.04,-0.03,0.7,6.38,-4.63,11.06,949.25,1088.0,0.0,0.0,0.0,0.0
1776370309831444617,8600,0.0,0.6,0.0,0.5,0.02,-0.1,5.0,-1.81,4.69,-0.2,0.34,-0.67,0.37,-7.13,1.88,972.06,2820.0,0.0,0.0,0.0,0.0
1776370309933850361,8699,0.0,0.3,0.0,0.7,-0.18,-0.1,4.44,-1.37,4.19,-0.43,0.25,-0.99,-15.0,-1.75,-7.94,1005.16,2820.0,0.0,0.0,0.0,0.0
1776370310032136684,8799,0.0,0.8,0.0,1.2,-0.08,-0.04,4.25,-1.25,2.88,0.05,0.09,-0.88,-12.75,1.5,5.19,978.75,1350.0,0.0,0.0,0.0,0.0
1776370310130437914,8899,0.0,0.2,0.0,1.2,-0.02,-0.08,4.88,-1.5,2.13,0.62,0.06,-0.72,-2.25,3.81,5.0,1020.25,1260.0,0.0,0.0,0.0,0.0
1776370310232900585,8999,0.0,0.4,0.0,0.8,0.08,-0.1,4.88,-2.13,1.44,0.76,0.03,-0.31,2.38,10.75,-4.5,964.86,1260.0,0.0,0.0,0.0,0.0
1776370310331118221,9099,0.0,0.3,0.0,1.1,-0.02,-0.18,4.06,-3.06,1.63,-0.68,-0.2,0.96,6.31,6.44,-12.75,1003.79,1066.0,0.0,0.0,0.0,0.0
1776370310433507094,9199,0.032,0.1,0.0,1.1,-0.04,0.04,2.88,-3.0,3.13,-0.78,0.08,1.11,22.37,-4.56,-9.13,932.27,1066.0,0.0,0.0,0.0,0.0
1776370310531797509,9299,0.02,0.0,0.0,0.1,0.08,-0.08,2.19,-2.88,4.81,-0.94,-0.13,-0.43,11.31,-1.63,-7.75,935.88,817.0,0.0,0.0,0.0,0.0
1776370310634210402,9400,0.0,0.4,0.0,0.5,0.04,-0.06,1.44,-2.56,5.63,-0.7,0.03,0.28,1.81,-5.25,-4.94,944.79,943.0,0.0,0.0,0.0,0.0
1776370310734480609,9500,0.0,0.9,0.004,0.5,-0.02,-0.16,1.56,-2.81,5.63,0.02,-0.14,-0.11,-2.38,9.13,5.75,11931.77,821.0,0.0,0.0,0.0,0.0
1776370310834991710,9600,0.0,0.7,0.0,0.3,-0.1,-0.14,2.13,-3.69,5.25,0.09,-0.4,-0.82,-4.88,6.44,3.06,982.18,821.0,0.0,0.0,0.0,0.0
1776370310933258607,9701,0.0,0.6,0.0,0.3,-0.2,-0.16,2.19,-4.0,4.75,0.09,-0.3,-0.72,-7.5,-5.56,-1.69,1034.83,1220.0,0.0,0.0,0.0,0.0
1776370311041612414,9800,0.0,0.1,0.0,1.1,-0.02,0.0,1.81,-3.38,4.13,0.59,0.03,-0.62,-3.63,-7.63,-4.88,1008.42,1220.0,0.0,0.0,0.0,0.0
1776370311133928210,9901,0.004,0.4,0.0,1.2,0.06,-0.08,1.69,-2.81,3.75,-0.19,0.17,0.03,1.88,-3.25,3.44,930.9,927.0,0.0,0.0,0.0,0.0
1776370311232221754,10001,0.0,0.9,0.0,0.6,0.02,0.0,1.63,-3.25,3.88,-1.06,-0.15,1.03,-0.19,8.31,-3.75,1025.57,973.0,0.0,0.0,0.0,0.0
1776370311334656369,10100,0.044,0.3,0.0,0.3,0.06,-0.06,1.5,-3.63,3.81,-0.92,-0.29,0.82,-0.06,-2.25,3.38,1001.22,973.0,0.0,0.0,0.0,0.0
1776370311432972581,10200,0.0,0.9,0.0,0.3,-0.12,-0.06,2.38,-2.94,4.38,-0.91,0.36,-0.21,3.0,-7.69,10.63,978.41,1238.0,0.0,0.0,0.0,0.0
1776370311535315546,10301,0.0,0.3,0.0,1.2,-0.02,-0.14,2.81,-2.63,4.56,-0.51,0.21,-0.85,-2.38,0.12,-1.5,990.07,1238.0,0.0,0.0,0.0,0.0
1776370311633641924,10400,0.02,0.5,0.0,0.5,0.02,-0.12,2.38,-2.31,4.5,-0.26,0.11,-0.56,-6.13,-6.19,-4.31,1002.93,1047.0,0.0,0.0,0.0,0.0
1776370311736051112,10501,0.0,0.2,0.0,0.6,0.16,0.0,2.19,-1.94,4.13,0.1,0.21,-0.24,-2.63,-0.69,0.37,973.09,1333.0,0.0,0.0,0.0,0.0
1776370311834340972,10602,0.0,1.1,0.004,0.1,-0.06,-0.06,2.13,-2.13,4.19,0.55,-0.09,-0.23,4.25,1.69,-3.0,1007.22,1333.0,0.0,0.0,0.0,0.0
1776370311936753623,10701,0.012,0.2,0.0,0.8,0.02,-0.14,1.5,-2.5,4.06,0.22,0.28,-0.51,-5.69,7.19,-9.38,1011.16,1173.0,0.0,0.0,0.0,0.0
1776370312035050631,10802,0.0,0.1,0.0,0.9,0.0,-0.12,0.63,-3.25,2.81,0.11,-0.12,-0.08,-11.44,6.88,-9.06,990.24,1260.0,0.0,0.0,0.0,0.0
1776370312145446509,10902,0.0,0.5,0.0,1.1,-0.04,0.06,-0.37,-3.5,2.0,-0.04,-0.22,0.98,-0.37,-2.69,-13.5,11931.94,891.0,0.0,0.0,0.0,0.0
1776370312235766364,11002,0.052,0.3,0.0,1.0,-0.14,-0.08,-2.13,-3.06,3.13,-0.25,0.54,0.43,15.38,3.38,-17.0,934.5,891.0,0.0,0.0,0.0,0.0
1776370312338138403,11102,0.0,0.1,0.0,1.1,0.06,0.12,-3.5,-4.13,3.69,-0.65,-0.26,0.46,-0.37,7.94,-10.19,954.4,1015.0,0.0,0.0,0.0,0.0
1776370312436424355,11202,0.0,0.2,0.0,0.6,0.06,-0.14,-3.44,-4.63,3.81,0.19,-0.11,0.0,4.5,2.38,8.69,11931.94,1340.0,0.0,0.0,0.0,0.0
1776370312538817135,11302,0.028,0.3,0.0,1.1,0.06,-0.08,-2.63,-4.13,4.44,-0.14,-0.17,-0.89,3.88,-8.94,5.69,972.06,1340.0,0.0,0.0,0.0,0.0
1776370312645050628,11403,0.016,0.1,0.0,1.2,-0.08,-0.06,-2.44,-3.56,4.5,-0.18,0.15,-0.78,-3.38,1.31,1.56,11931.25,1308.0,0.0,0.0,0.0,0.0
1776370312739560535,11503,0.012,0.4,0.004,0.8,-0.06,0.0,-2.31,-4.19,4.0,0.13,-0.36,-0.62,-7.5,9.19,-0.31,988.53,1308.0,0.0,0.0,0.0,0.0
1776370312837848284,11603,0.012,0.1,0.0,1.0,-0.02,-0.1,-2.06,-4.56,3.56,0.78,-0.51,-0.68,0.63,-3.63,7.56,969.32,1393.0,0.0,0.0,0.0,0.0
1776370312938099639,11703,0.008,0.5,0.0,0.2,-0.04,-0.1,-0.81,-4.13,3.19,0.08,0.33,-0.23,8.13,-15.25,19.56,11935.03,1232.0,0.0,0.0,0.0,0.0
1776370313038558794,11803,0.004,0.2,0.0,1.3,-0.06,0.0,0.88,-3.19,3.94,-0.72,0.41,1.11,6.38,1.31,19.06,904.32,1232.0,0.0,0.0,0.0,0.0
1776370313136878506,11902,0.0,0.5,0.0,0.9,-0.08,-0.06,2.94,-4.0,4.75,-1.44,-0.59,1.16,8.0,10.13,21.75,950.62,1121.0,0.0,0.0,0.0,0.0
1776370313247232142,12003,0.056,0.1,0.0,1.1,-0.16,-0.1,4.88,-4.13,5.19,-0.75,-0.13,0.23,-1.0,-6.5,16.19,11932.45,842.0,0.0,0.0,0.0,0.0
1776370313337568701,12103,0.048,0.3,0.0,1.3,-0.1,-0.04,5.94,-3.31,5.0,-0.12,0.12,-0.43,-6.88,-6.19,5.56,927.82,842.0,0.0,0.0,0.0,0.0
1776370313439919702,12204,0.036,0.0,0.0,1.4,0.12,-0.12,6.31,-2.75,4.13,-0.27,0.25,-0.41,-11.06,-1.06,1.31,920.95,1032.0,0.0,0.0,0.0,0.0
1776370313538228284,12304,0.02,0.3,0.032,0.3,-0.02,0.06,6.44,-2.69,3.38,0.29,0.01,-0.8,-4.31,0.69,1.44,930.9,1032.0,0.0,0.0,0.0,0.0
1776370313640651232,12404,0.012,0.6,0.0,0.9,-0.02,-0.2,6.69,-2.75,3.06,0.35,0.08,-0.39,-3.31,3.0,0.81,1015.28,1111.0,0.0,0.0,0.0,0.0
1776370313738969110,12504,0.012,0.0,0.0,1.4,-0.14,-0.14,6.38,-3.19,2.0,0.29,0.29,-0.57,-12.75,11.69,-9.31,948.39,1111.0,0.0,0.0,0.0,0.0
1776370313841378909,12604,0.0,0.2,0.0,1.0,0.02,-0.06,5.19,-4.25,0.44,-0.3,-0.53,0.58,-12.88,5.5,-15.94,985.44,1436.0,0.0,0.0,0.0,0.0
1776370313939664175,12704,0.0,0.4,0.0,1.0,-0.12,-0.06,3.38,-3.88,0.19,-0.94,-0.25,1.41,16.19,-14.06,-20.5,955.94,933.0,0.0,0.0,0.0,0.0
1776370314037948664,12804,0.004,0.8,0.0,1.0,0.0,-0.04,1.44,-2.81,1.94,-1.76,0.09,0.26,16.19,-9.5,-18.06,960.57,933.0,0.0,0.0,0.0,0.0
1776370314142321144,12904,0.0,0.1,0.0,1.2,0.0,-0.18,-0.25,-2.69,2.5,-0.49,-0.12,0.01,0.5,3.94,-14.56,11934.86,1125.0,0.0,0.0,0.0,0.0
1776370314238676674,13004,0.0,0.2,0.0,0.2,0.08,-0.04,-0.81,-3.38,2.38,-0.16,-0.22,-0.69,-2.88,6.69,1.44,1015.11,1242.0,0.0,0.0,0.0,0.0
1776370314341039380,13105,0.0,1.1,0.044,0.5,-0.04,0.0,-0.31,-3.88,2.25,-0.49,-0.2,-0.61,-4.13,0.69,6.0,1070.33,1242.0,0.0,0.0,0.0,0.0
1776370314443488457,13206,0.028,0.3,0.0,0.4,-0.1,-0.14,-0.0,-3.88,2.06,0.34,0.03,-0.74,-3.31,-1.25,-0.5,1027.97,1084.0,0.0,0.0,0.0,0.0
1776370314541718574,13306,0.0,0.4,0.024,0.2,-0.12,-0.1,-0.56,-3.63,1.56,0.66,-0.26,-0.64,-0.19,-6.81,-8.06,987.84,991.0,0.0,0.0,0.0,0.0
1776370315073440640,13406,0.0,0.5,0.0,0.6,-0.14,-0.02,-0.81,-2.81,1.19,0.05,-0.1,-0.08,-2.56,-9.88,4.06,993.16,991.0,0.0,0.0,0.0,0.0
1776370315135706967,13507,0.0,0.3,0.0,0.8,-0.04,0.02,0.06,-2.0,0.81,-1.09,-0.05,0.76,-4.13,-5.5,10.94,11935.2,1040.0,0.0,0.0,0.0,0.0
1776370315148397829,13607,0.012,0.2,0.0,1.2,-0.08,-0.12,1.37,-2.0,1.06,-1.0,0.07,0.92,1.69,3.63,15.5,969.49,1004.0,0.0,0.0,0.0,0.0
1776370315162039799,13707,0.0,0.2,0.0,1.2,-0.06,-0.16,2.63,-2.25,2.13,-0.81,0.01,0.34,7.88,1.31,10.63,994.7,1004.0,0.0,0.0,0.0,0.0
1776370315174373266,13808,0.0,0.1,0.0,0.5,0.04,-0.08,3.19,-2.06,3.13,-0.27,0.13,-0.78,5.94,-3.81,2.38,1021.11,1195.0,0.0,0.0,0.0,0.0
1776370315246265588,13908,0.0,0.3,0.0,1.2,-0.02,0.02,2.81,-1.56,3.0,-0.54,0.17,-0.75,-8.75,-5.44,-7.94,11934.51,1089.0,0.0,0.0,0.0,0.0
1776370315258760039,14008,0.052,0.2,0.0,0.5,0.02,-0.08,2.13,-1.25,2.5,0.0,0.38,-0.7,-10.0,3.19,-5.06,989.21,1089.0,0.0,0.0,0.0,0.0
1776370315344566817,14109,0.0,0.8,0.04,0.8,0.1,-0.12,1.81,-2.31,2.13,0.62,0.1,-0.58,0.94,12.44,-2.88,1025.06,1398.0,0.0,0.0,0.0,0.0
1776370315446941393,14209,0.02,-0.2,0.032,0.2,0.02,0.0,1.19,-3.31,2.06,0.53,-0.03,0.12,1.19,7.0,-9.19,973.78,1398.0,0.0,0.0,0.0,0.0
1776370315545238363,14309,0.004,0.1,0.0,1.0,0.0,-0.12,0.12,-3.75,1.63,-0.3,-0.35,0.41,-6.25,2.38,-13.13,975.49,1148.0,0.0,0.0,0.0,0.0
1776370315647663514,14409,0.012,0.0,0.0,0.4,-0.02,0.04,-0.94,-3.19,1.75,-0.99,0.24,0.77,10.13,-8.19,-11.19,964.52,1023.0,0.0,0.0,0.0,0.0
1776370315745986077,14510,0.0,0.5,0.0,0.5,-0.04,-0.08,-2.13,-3.19,2.94,-1.0,-0.2,-0.08,12.56,4.88,-10.63,959.2,1023.0,0.0,0.0,0.0,0.0
1776370315848374487,14610,0.012,0.2,0.0,1.0,0.08,0.02,-2.88,-3.94,4.0,-0.49,-0.08,0.34,8.5,8.13,-4.0,955.94,1085.0,0.0,0.0,0.0,0.0
1776370315948596230,14709,0.0,0.9,0.0,1.1,0.08,-0.04,-2.81,-4.56,5.06,-0.03,-0.28,-0.51,12.5,5.56,4.38,11933.66,1100.0,0.0,0.0,0.0,0.0
1776370316044981760,14809,0.0,0.3,0.0,1.2,-0.1,-0.06,-2.25,-5.06,6.0,-0.35,-0.33,-0.32,1.75,0.31,6.25,929.36,1100.0,0.0,0.0,0.0,0.0
1776370316147374559,14909,0.004,0.1,0.0,1.1,-0.12,-0.16,-1.88,-4.88,6.0,0.21,-0.18,-0.23,-4.69,-6.06,2.75,862.99,914.0,0.0,0.0,0.0,0.0
1776370316245677584,15009,0.052,0.0,0.0,0.1,-0.14,0.0,-1.37,-4.44,5.56,0.75,-0.16,-0.22,-3.31,-1.88,7.25,962.46,914.0,0.0,0.0,0.0,0.0
1776370316348075457,15110,0.0,0.3,0.0,0.9,0.02,0.04,-0.56,-4.0,4.38,0.44,-0.02,-0.38,-7.0,-12.06,9.5,638.32,1130.0,0.0,0.0,0.0,0.0
1776370316446333093,15211,0.02,0.2,0.0,0.1,-0.04,-0.14,0.44,-2.94,3.19,-0.06,0.27,0.3,-17.12,-4.81,11.19,627.0,981.0,0.0,0.0,0.0,0.0
1776370316548758188,15310,0.016,0.6,0.004,0.3,-0.18,-0.04,2.06,-3.44,2.69,-0.78,-0.29,1.26,7.81,13.81,23.0,592.36,981.0,0.0,0.0,0.0,0.0
1776370316655010496,15410,0.004,0.1,0.0,1.0,0.06,-0.02,4.31,-3.94,3.69,-1.04,-0.15,-0.64,6.19,-0.88,19.62,11933.31,906.0,0.0,0.0,0.0,0.0
1776370316757434387,15510,0.016,0.1,0.0,0.9,-0.04,0.1,5.81,-2.94,4.25,-1.11,0.25,0.1,0.88,-12.94,12.75,11932.11,970.0,0.0,0.0,0.0,0.0
1776370316847793168,15610,0.008,0.3,0.0,0.6,-0.02,-0.14,6.19,-2.0,4.56,-0.36,0.6,-0.07,5.5,-5.88,-3.19,958.34,970.0,0.0,0.0,0.0,0.0
1776370316950177706,15710,0.0,0.5,0.0,0.5,0.08,-0.12,5.63,-1.81,5.0,-0.56,0.66,-0.32,3.31,2.06,-6.88,968.29,1207.0,0.0,0.0,0.0,0.0
1776370317048490121,15811,0.0,0.5,0.0,1.3,0.08,-0.04,5.19,-2.06,5.13,-0.32,0.13,-0.44,-2.75,1.31,-0.25,940.51,1131.0,0.0,0.0,0.0,0.0
1776370317148697512,15910,0.0,0.9,0.0,0.9,0.0,-0.06,5.31,-2.0,4.75,0.07,0.16,-0.38,-8.88,1.5,0.94,11931.77,882.0,0.0,0.0,0.0,0.0
1776370317249183500,16010,0.048,0.2,0.036,0.5,-0.08,-0.06,5.13,-2.44,3.81,0.66,-0.04,-0.66,-9.19,6.88,-6.81,973.95,882.0,0.0,0.0,0.0,0.0
1776370317347491656,16110,0.036,0.2,0.0,0.9,0.02,-0.08,4.25,-3.44,2.81,0.35,-0.22,-0.31,1.06,11.31,-12.19,938.62,882.0,0.0,0.0,0.0,0.0
1776370317445702254,16210,0.032,0.1,0.0,1.3,-0.14,0.02,2.69,-4.19,3.75,-0.5,-0.23,-0.53,17.56,-1.19,-18.5,911.87,1210.0,0.0,0.0,0.0,0.0
1776370317548143515,16310,0.028,0.4,0.0,1.1,0.1,-0.12,0.69,-4.38,5.31,-0.1,-0.38,-1.44,16.69,3.0,-21.94,892.66,877.0,0.0,0.0,0.0,0.0
1776370317646491653,16409,0.0,0.4,0.0,0.6,0.0,-0.18,-1.12,-4.19,6.19,-0.64,-0.83,-3.02,3.56,-2.44,-17.25,891.46,877.0,0.0,0.0,0.0,0.0
1776370317746714637,16508,0.0,0.1,0.0,0.9,0.18,0.1,-2.25,-3.63,5.88,-0.32,-1.14,-2.4,-1.88,2.13,-8.75,11933.14,985.0,0.0,0.0,0.0,0.0
1776370317855121499,16608,0.0,0.8,0.012,0.3,0.1,-0.08,-2.5,-3.75,6.0,-0.49,-1.27,-2.27,8.13,21.69,-4.19,11934.17,839.0,0.0,0.0,0.0,0.0
1776370317945498002,16708,0.004,0.5,0.0,0.2,0.04,0.0,-2.69,-5.69,6.75,-1.67,-0.13,-0.21,4.38,31.12,1.06,629.92,839.0,0.0,0.0,0.0,0.0
1776370318045711171,16807,0.0,0.5,0.0,1.1,0.0,-0.1,-2.31,-7.81,6.94,-1.16,-0.09,0.19,-7.25,15.69,2.5,11935.89,684.0,0.0,0.0,0.0,0.0
1776370318154122126,16907,0.0,0.2,0.0,1.0,-0.1,-0.08,-2.06,-7.75,6.75,-0.51,0.7,1.12,-1.88,-19.06,6.13,11933.31,495.0,0.0,0.0,0.0,0.0
1776370318244499277,17007,0.048,0.1,0.0,0.6,-0.06,-0.12,-1.94,-6.56,7.19,-0.83,-0.51,2.09,3.13,-15.5,2.63,339.57,495.0,0.0,0.0,0.0,0.0
1776370318342897767,17106,0.0,0.8,0.0,1.0,0.0,-0.08,-1.75,-5.69,7.81,-1.26,-0.64,2.28,4.88,-1.31,1.75,11934.17,333.0,0.0,0.0,0.0,0.0
1776370318445222397,17206,0.032,0.3,0.02,0.8,-0.02,0.06,-1.37,-5.56,7.75,-0.6,0.08,1.57,-6.25,-3.06,11.13,11932.8,235.0,0.0,0.0,0.0,0.0
1776370318545523160,17306,0.0,0.9,0.0,0.4,0.06,-0.12,-0.25,-5.81,6.75,-0.28,0.05,0.79,-17.56,3.5,14.0,11933.48,235.0,0.0,0.0,0.0,0.0
1776370318653816205,17406,0.0,0.7,0.0,0.9,0.14,-0.18,1.31,-5.0,4.06,0.44,-0.13,0.84,-40.06,-22.62,11.94,11934.17,199.0,0.0,0.0,0.0,0.0
1776370318746129889,17506,0.008,0.2,0.0,0.7,-0.04,-0.04,1.31,-3.0,1.94,1.63,0.49,0.07,-6.0,-10.38,-3.56,11932.97,198.0,0.0,0.0,0.0,0.0
1776370318846601599,17606,0.004,0.4,0.0,0.3,-0.04,-0.1,1.44,-2.56,2.38,-0.91,0.27,0.01,4.63,-2.38,1.19,248.33,198.0,0.0,0.0,0.0,0.0
1776370318944853012,17707,0.0,0.6,0.0,1.1,-0.1,-0.02,1.37,-2.19,2.06,-0.06,0.26,0.43,-10.0,-11.06,0.69,222.78,193.0,0.0,0.0,0.0,0.0
1776370319047338664,17808,0.0,0.9,0.004,0.1,-0.06,-0.06,1.44,-1.75,1.63,-0.41,-0.1,-0.29,-6.25,-3.19,-0.25,210.77,193.0,0.0,0.0,0.0,0.0
1776370319149701591,17909,0.0,0.9,0.004,0.9,0.02,-0.02,1.44,-1.56,1.44,-0.17,-0.0,-0.06,-0.06,-0.19,-0.12,214.03,196.0,0.0,0.0,0.0,0.0
1776370319309428669,18010,0.0,0.6,0.0,0.6,0.08,0.04,1.44,-1.56,1.5,-0.14,-0.02,-0.04,-0.06,-0.25,-0.19,209.74,198.0,0.0,0.0,0.0,0.0
1776370319350397618,18110,0.0,1.1,0.0,0.2,-0.12,-0.04,1.44,-1.56,1.56,-0.18,-0.02,-0.04,-0.06,-0.19,-0.19,232.21,198.0,0.0,0.0,0.0,0.0
1776370319448690383,18210,0.028,0.1,0.0,1.1,-0.1,-0.06,1.44,-1.56,1.63,-0.15,-0.0,-0.04,-0.0,-0.19,-0.06,232.21,199.0,0.0,0.0,0.0,0.0
1776370319551084070,18310,0.024,0.2,0.0,0.4,-0.18,-0.04,1.5,-1.56,1.69,-0.17,-0.0,-0.04,0.06,-0.12,0.0,231.18,199.0,0.0,0.0,0.0,0.0
1776370319649432763,18410,0.0,0.7,0.0,0.4,0.0,-0.1,1.5,-1.56,1.75,-0.16,-0.0,-0.06,-0.12,-0.06,-0.06,232.21,195.0,0.0,0.0,0.0,0.0
1776370319749619060,18510,0.0,0.6,0.004,0.3,-0.02,-0.14,1.5,-1.56,1.75,-0.13,0.01,-0.04,-0.0,-0.0,-0.06,11934.34,196.0,0.0,0.0,0.0,0.0
1776370319850099604,18610,0.008,0.1,0.004,0.3,-0.08,0.1,1.5,-1.56,1.81,-0.14,-0.0,-0.07,0.06,-0.25,-0.06,231.18,196.0,0.0,0.0,0.0,0.0
1776370319948375758,18710,0.0,0.4,0.0,0.2,-0.04,-0.14,1.5,-1.56,1.81,-0.12,-0.0,-0.04,-0.0,0.12,0.0,231.18,200.0,0.0,0.0,0.0,0.0
1776370320046674135,18809,0.0,0.6,0.0,1.0,0.0,-0.1,1.5,-1.56,1.88,-0.11,0.02,-0.05,-0.0,0.06,0.0,231.18,195.0,0.0,0.0,0.0,0.0
1776370320149102637,18909,0.004,0.2,0.0,1.0,-0.06,-0.06,1.5,-1.56,1.88,-0.13,-0.0,-0.07,0.19,-0.0,0.0,226.89,195.0,0.0,0.0,0.0,0.0
1776370320251529287,19010,0.056,0.1,0.0,1.3,0.0,-0.12,1.5,-1.56,1.88,-0.12,-0.0,-0.05,0.19,0.12,0.0,228.1,201.0,0.0,0.0,0.0,0.0
1776370320349801275,19109,0.048,0.4,0.032,0.2,-0.06,0.0,1.5,-1.56,1.94,-0.12,-0.0,-0.05,0.06,-0.12,0.06,227.92,201.0,0.0,0.0,0.0,0.0
1776370320448059299,19209,0.0,0.5,0.0,1.0,-0.04,-0.16,1.5,-1.56,1.94,-0.12,-0.0,-0.04,-0.0,0.06,-0.06,232.21,197.0,0.0,0.0,0.0,0.0
1776370320550471005,19309,0.024,0.1,0.0,1.2,0.0,-0.04,1.5,-1.56,1.94,-0.11,-0.0,-0.05,-0.0,-0.06,0.0,231.18,198.0,0.0,0.0,0.0,0.0
1776370320648806345,19409,0.02,0.3,0.0,0.2,0.04,-0.18,1.5,-1.56,1.94,-0.11,-0.0,-0.05,-0.06,0.06,0.06,232.21,198.0,0.0,0.0,0.0,0.0
1776370320751231551,19510,0.012,0.2,0.0,1.0,-0.06,-0.06,1.5,-1.56,1.94,-0.13,-0.0,-0.05,-0.0,0.06,0.12,232.21,198.0,0.0,0.0,0.0,0.0
1776370320849473964,19610,0.0,0.3,0.008,0.2,-0.02,-0.06,1.5,-1.56,1.94,-0.12,0.03,-0.04,0.06,-0.12,0.06,232.21,195.0,0.0,0.0,0.0,0.0
1776370320947807101,19709,0.008,0.3,0.004,0.5,-0.06,-0.14,1.5,-1.56,1.94,-0.1,-0.0,-0.05,-0.06,-0.0,0.06,231.18,195.0,0.0,0.0,0.0,0.0
1776370321050205787,19809,0.0,0.4,0.0,0.6,0.0,-0.16,1.5,-1.56,1.94,-0.12,-0.01,-0.06,0.06,-0.06,0.0,231.18,196.0,0.0,0.0,0.0,0.0
1776370321148439700,19910,0.0,0.1,0.0,0.8,-0.08,0.0,1.5,-1.56,1.94,-0.09,-0.0,-0.01,-0.06,0.12,-0.06,232.21,198.0,0.0,0.0,0.0,0.0
1776370321250901517,20009,0.0,0.4,0.0,1.1,-0.1,-0.1,1.5,-1.56,1.94,-0.1,0.01,-0.05,0.06,-0.06,-0.06,232.21,198.0,0.0,0.0,0.0,0.0
1776370321349226709,20109,0.0,0.1,0.0,0.6,-0.1,-0.12,1.5,-1.56,1.94,-0.09,-0.0,-0.05,-0.0,0.12,0.06,231.87,197.0,0.0,0.0,0.0,0.0
1776370321447436899,20209,0.028,0.0,0.0,0.9,0.02,0.04,1.5,-1.56,1.94,-0.13,-0.0,-0.08,0.12,0.06,0.12,236.33,197.0,0.0,0.0,0.0,0.0
1776370321549890624,20308,0.028,0.3,0.0,1.0,-0.06,0.02,1.5,-1.56,1.94,-0.09,-0.0,-0.05,0.12,0.12,0.0,235.3,197.0,0.0,0.0,0.0,0.0
1776370321652307718,20409,0.012,0.4,0.0,0.9,0.06,-0.04,1.5,-1.56,1.94,-0.11,-0.0,-0.05,-0.0,-0.12,0.12,232.21,195.0,0.0,0.0,0.0,0.0
1776370321758486357,20509,0.016,0.1,0.0,0.3,-0.02,0.0,1.5,-1.56,1.94,-0.1,-0.0,-0.05,-0.0,0.06,0.0,11931.6,201.0,0.0,0.0,0.0,0.0
1776370321850941765,20610,0.012,0.3,0.0,0.7,-0.1,-0.14,1.5,-1.56,1.94,-0.13,-0.0,-0.04,0.06,0.06,-0.06,11932.63,201.0,0.0,0.0,0.0,0.0
1776370321959222921,20709,0.008,0.3,0.004,1.2,0.08,-0.02,1.5,-1.56,1.94,-0.11,-0.0,-0.05,-0.0,-0.12,-0.06,11934.17,198.0,0.0,0.0,0.0,0.0
1776370322049620591,20809,0.0,1.1,0.004,0.5,0.08,-0.04,1.5,-1.56,1.94,-0.11,-0.0,-0.05,0.06,-0.12,0.0,232.21,198.0,0.0,0.0,0.0,0.0
1776370322152005518,20909,0.0,1.1,0.0,0.5,0.12,-0.08,1.5,-1.56,1.94,-0.1,-0.0,-0.08,0.12,-0.0,-0.06,227.07,200.0,0.0,0.0,0.0,0.0
1776370322250319691,21009,0.06,0.4,0.0,0.9,-0.08,-0.04,1.5,-1.56,1.94,-0.12,-0.01,-0.05,0.06,0.12,-0.12,236.5,198.0,0.0,0.0,0.0,0.0
1776370322348605086,21108,0.0,0.1,0.0,1.2,0.16,-0.06,1.5,-1.56,1.94,-0.12,0.02,-0.05,-0.06,-0.06,0.0,232.21,198.0,0.0,0.0,0.0,0.0
1776370322457028578,21208,0.0,0.6,0.0,0.3,0.02,-0.1,1.5,-1.56,1.94,-0.13,-0.0,-0.05,-0.0,0.12,0.0,11935.71,199.0,0.0,0.0,0.0,0.0
1776370322551222552,21308,0.028,0.3,0.0,1.3,0.04,-0.14,1.5,-1.56,1.94,-0.1,0.02,-0.07,0.06,-0.06,-0.06,11931.25,198.0,0.0,0.0,0.0,0.0
1776370322651765152,21408,0.02,0.1,0.0,1.0,-0.04,-0.04,1.5,-1.56,1.94,-0.11,-0.01,-0.07,-0.12,-0.0,0.06,232.21,198.0,0.0,0.0,0.0,0.0
1776370322751963301,21509,0.012,0.3,0.0,0.3,0.0,-0.04,1.5,-1.56,1.94,-0.12,-0.0,-0.05,-0.0,-0.12,0.0,11932.8,198.0,0.0,0.0,0.0,0.0
1776370322858387259,21609,0.0,1.1,0.0,1.0,-0.08,0.02,1.5,-1.56,1.94,-0.09,-0.0,-0.03,-0.06,-0.0,0.19,232.04,198.0,0.0,0.0,0.0,0.0
1776370322952662105,21708,0.004,0.2,0.0,0.7,0.04,-0.06,1.5,-1.56,1.94,-0.11,-0.0,-0.07,-0.0,-0.12,0.0,11933.48,200.0,0.0,0.0,0.0,0.0
1776370323049020004,21808,0.004,0.1,0.0,1.1,0.04,0.12,1.5,-1.56,1.94,-0.09,-0.02,-0.05,-0.19,-0.12,0.0,231.18,201.0,0.0,0.0,0.0,0.0
1776370323151410542,21908,0.0,0.4,0.0,1.4,-0.02,0.08,1.5,-1.56,1.94,-0.14,-0.0,-0.04,-0.0,-0.06,0.06,232.21,201.0,0.0,0.0,0.0,0.0
1776370323249719178,22008,0.06,-0.2,0.0,0.1,-0.06,0.06,1.5,-1.56,1.94,-0.11,-0.0,-0.04,0.06,-0.06,0.0,232.21,199.0,0.0,0.0,0.0,0.0
1776370323352271663,22108,0.0,0.1,0.0,1.3,-0.18,0.02,1.5,-1.56,1.94,-0.12,-0.0,-0.07,-0.0,-0.12,-0.06,227.92,197.0,0.0,0.0,0.0,0.0
1776370323450387204,22208,0.0,1.0,0.024,0.3,-0.06,-0.14,1.5,-1.56,1.94,-0.1,-0.0,-0.06,-0.0,0.06,-0.06,11930.91,197.0,0.0,0.0,0.0,0.0
1776370323548704506,22307,0.0,0.8,0.0,1.0,0.1,-0.2,1.5,-1.56,1.94,-0.1,0.01,-0.06,-0.12,0.06,0.0,236.5,197.0,0.0,0.0,0.0,0.0
1776370323659075827,22408,0.016,0.1,0.0,0.7,0.0,-0.08,1.5,-1.56,1.94,-0.1,-0.0,-0.05,-0.12,-0.0,-0.06,11934.34,199.0,0.0,0.0,0.0,0.0
1776370323749455441,22508,0.0,0.8,0.004,0.3,0.06,-0.16,1.5,-1.56,1.94,-0.11,-0.0,-0.05,-0.12,0.12,-0.12,236.33,199.0,0.0,0.0,0.0,0.0
1776370323847725909,22607,0.0,0.4,0.004,0.3,0.08,-0.04,1.5,-1.56,1.94,-0.09,0.01,-0.05,-0.12,-0.0,0.0,231.18,200.0,0.0,0.0,0.0,0.0
1776370323950129410,22707,0.004,0.3,0.0,1.2,0.0,-0.1,1.5,-1.56,1.94,-0.08,-0.02,-0.05,-0.0,-0.0,0.06,232.21,200.0,0.0,0.0,0.0,0.0
1776370324048426046,22807,0.0,0.4,0.0,0.7,0.1,0.0,1.5,-1.56,1.94,-0.13,-0.0,-0.05,0.06,-0.06,0.0,232.21,198.0,0.0,0.0,0.0,0.0
1776370324150825825,22907,0.0,0.3,0.0,0.9,-0.02,0.0,1.5,-1.56,1.94,-0.15,-0.0,-0.05,-0.19,-0.0,-0.06,232.21,199.0,0.0,0.0,0.0,0.0
1776370324249175313,23007,0.056,0.1,0.0,1.0,0.02,0.0,1.5,-1.56,1.94,-0.11,-0.0,-0.07,0.12,0.06,0.0,232.21,199.0,0.0,0.0,0.0,0.0
1776370324347441912,23107,0.044,0.2,0.0,1.0,-0.1,-0.04,1.5,-1.56,1.94,-0.12,-0.0,-0.06,-0.06,-0.12,0.06,231.18,200.0,0.0,0.0,0.0,0.0
1776370324449816579,23206,0.032,0.0,0.012,1.0,0.16,0.04,1.5,-1.56,1.94,-0.13,-0.01,-0.05,0.12,0.06,0.0,232.21,198.0,0.0,0.0,0.0,0.0
1776370324552203431,23307,0.028,0.2,0.0,0.9,-0.18,-0.16,1.5,-1.56,1.94,-0.09,0.01,-0.05,0.12,-0.12,0.0,236.33,198.0,0.0,0.0,0.0,0.0
1776370324650537827,23408,0.016,0.4,0.0,0.8,0.06,-0.04,1.5,-1.56,1.94,-0.13,0.01,-0.07,0.06,0.12,-0.06,231.18,198.0,0.0,0.0,0.0,0.0
1776370324748817555,23507,0.0,0.5,0.012,0.6,-0.1,0.06,1.5,-1.56,1.94,-0.09,0.02,-0.07,0.06,-0.0,0.06,215.06,198.0,0.0,0.0,0.0,0.0
1776370324851267890,23608,0.016,0.2,0.0,1.4,0.08,0.0,1.5,-1.56,1.94,-0.12,-0.0,-0.05,0.06,0.12,0.06,210.77,198.0,0.0,0.0,0.0,0.0
1776370324949521784,23708,0.004,0.5,0.0,1.0,-0.1,-0.04,1.5,-1.56,1.94,-0.11,-0.0,-0.05,0.06,0.06,0.12,232.21,201.0,0.0,0.0,0.0,0.0
1776370325051931711,23808,0.012,0.1,0.0,0.2,-0.08,-0.08,1.5,-1.56,1.94,-0.1,-0.0,-0.07,-0.06,-0.06,-0.06,231.18,201.0,0.0,0.0,0.0,0.0
1776370325150229736,23908,0.0,0.2,0.0,1.1,-0.04,0.02,1.5,-1.56,1.94,-0.14,-0.0,-0.08,-0.06,-0.0,0.0,231.18,196.0,0.0,0.0,0.0,0.0
1776370325252628385,24008,0.052,0.0,0.02,0.4,-0.02,-0.1,1.5,-1.56,1.94,-0.1,-0.0,-0.06,0.06,-0.06,0.0,232.21,196.0,0.0,0.0,0.0,0.0
1776370325350955243,24108,0.0,0.5,0.032,0.2,-0.04,-0.1,1.5,-1.56,1.94,-0.11,-0.0,-0.05,0.06,-0.06,0.06,232.21,196.0,0.0,0.0,0.0,0.0
1776370325453389356,24209,0.0,0.7,0.028,0.5,0.06,-0.14,1.5,-1.56,1.94,-0.14,-0.0,-0.05,-0.0,-0.0,0.0,205.46,199.0,0.0,0.0,0.0,0.0
1776370325551620657,24309,0.0,0.8,0.0,0.8,-0.06,-0.14,1.5,-1.56,1.94,-0.1,-0.0,-0.07,-0.06,0.12,0.0,232.21,192.0,0.0,0.0,0.0,0.0
1776370325654039492,24409,0.02,0.4,0.012,0.3,-0.08,-0.06,1.5,-1.56,1.94,-0.13,-0.0,-0.07,-0.0,-0.0,-0.06,232.21,192.0,0.0,0.0,0.0,0.0
1776370325752338201,24509,0.012,0.3,0.0,1.0,-0.02,-0.02,1.5,-1.56,1.94,-0.11,-0.01,-0.07,-0.0,0.06,-0.06,206.66,198.0,0.0,0.0,0.0,0.0
1776370325850637467,24608,0.004,0.1,0.0,1.2,-0.08,-0.2,1.5,-1.56,1.94,-0.1,-0.02,-0.08,0.06,0.25,0.0,214.03,198.0,0.0,0.0,0.0,0.0
1776370325953033430,24708,0.008,0.2,0.0,0.9,-0.04,-0.27,1.5,-1.56,1.94,-0.11,0.02,-0.08,-0.0,-0.0,0.0,214.03,198.0,0.0,0.0,0.0,0.0
1776370326063370676,24809,0.0,0.3,0.0,0.1,-0.04,-0.06,1.5,-1.56,1.94,-0.13,-0.0,-0.06,0.19,-0.0,-0.06,11938.12,199.0,0.0,0.0,0.0,0.0
1776370326153735493,24909,0.0,0.4,0.0,0.8,0.1,-0.04,1.5,-1.56,1.94,-0.14,-0.0,-0.08,0.06,-0.06,0.06,236.33,199.0,0.0,0.0,0.0,0.0
1776370326252064018,25009,0.06,0.9,0.0,1.0,-0.21,0.06,1.5,-1.56,1.94,-0.11,-0.01,-0.07,-0.06,-0.0,0.06,236.33,197.0,0.0,0.0,0.0,0.0
1776370326354433648,25109,0.048,0.3,0.0,0.7,-0.04,0.0,1.5,-1.56,1.94,-0.1,0.01,-0.07,0.06,-0.06,0.0,236.33,201.0,0.0,0.0,0.0,0.0
1776370326452731894,25208,0.0,0.2,0.0,1.2,0.06,0.04,1.5,-1.56,1.94,-0.13,-0.0,-0.09,0.12,-0.12,-0.12,231.18,201.0,0.0,0.0,0.0,0.0
1776370326550995455,25308,0.0,0.9,0.0,1.0,0.0,-0.12,1.5,-1.56,1.94,-0.11,-0.0,-0.05,0.12,0.06,0.06,236.5,196.0,0.0,0.0,0.0,0.0
1776370326655373878,25408,0.016,-0.1,0.0,1.0,0.02,0.06,1.5,-1.56,1.94,-0.12,-0.01,-0.06,0.06,-0.12,0.06,11937.94,200.0,0.0,0.0,0.0,0.0
1776370326753718088,25508,0.0,0.7,0.0,1.0,-0.21,-0.08,1.5,-1.56,1.94,-0.13,-0.0,-0.02,-0.0,-0.0,0.0,11936.74,204.0,0.0,0.0,0.0,0.0
1776370326862079708,25608,0.0,0.5,0.0,0.3,0.0,-0.1,1.5,-1.56,1.94,-0.12,-0.0,-0.06,0.12,-0.0,0.12,11936.91,204.0,0.0,0.0,0.0,0.0
1776370326954366242,25708,0.004,0.3,0.0,1.2,0.04,-0.04,1.5,-1.56,1.94,-0.12,0.02,-0.05,-0.12,-0.12,0.0,11935.37,196.0,0.0,0.0,0.0,0.0
1776370327054841396,25808,0.0,0.7,0.0,0.5,-0.02,-0.02,1.5,-1.56,1.94,-0.11,0.01,-0.04,-0.06,-0.0,-0.06,215.06,196.0,0.0,0.0,0.0,0.0
1776370327153149161,25909,0.0,1.0,0.0,1.0,-0.08,-0.16,1.5,-1.56,1.94,-0.1,-0.0,-0.04,-0.06,-0.0,0.06,215.06,195.0,0.0,0.0,0.0,0.0
1776370327255548977,26010,0.056,0.1,0.0,0.7,-0.06,-0.08,1.5,-1.56,1.94,-0.13,-0.0,-0.05,-0.12,-0.0,0.0,214.89,195.0,0.0,0.0,0.0,0.0
1776370327353861001,26109,0.0,1.0,0.0,0.8,0.02,0.1,1.5,-1.56,1.94,-0.08,-0.0,-0.06,-0.06,-0.0,0.06,235.47,201.0,0.0,0.0,0.0,0.0
1776370327456231223,26209,0.032,0.1,0.0,0.9,0.14,-0.1,1.5,-1.56,1.94,-0.11,0.02,-0.02,-0.12,0.12,0.0,232.21,201.0,0.0,0.0,0.0,0.0
1776370327554542600,26310,0.024,0.5,0.0,1.0,0.02,-0.06,1.5,-1.56,1.94,-0.1,0.01,-0.07,0.12,0.19,0.06,231.18,201.0,0.0,0.0,0.0,0.0
1776370327652821513,26409,0.0,0.5,0.012,0.6,0.08,-0.08,1.5,-1.56,1.94,-0.13,-0.0,-0.07,0.06,0.12,0.12,236.5,202.0,0.0,0.0,0.0,0.0
1776370327757167342,26510,0.0,0.7,0.0,1.0,0.08,-0.06,1.5,-1.56,1.94,-0.1,-0.0,-0.05,0.12,0.19,0.0,11939.14,198.0,0.0,0.0,0.0,0.0
1776370327853542334,26610,0.0,0.8,0.0,0.6,-0.1,0.02,1.5,-1.56,1.94,-0.07,-0.01,-0.05,-0.06,0.06,0.0,231.18,198.0,0.0,0.0,0.0,0.0
1776370327955944224,26710,0.0,1.0,0.0,0.7,0.1,0.0,1.5,-1.56,1.94,-0.11,-0.0,-0.05,0.12,-0.19,0.0,236.5,200.0,0.0,0.0,0.0,0.0
1776370328054215414,26811,0.004,0.2,0.0,0.9,0.04,-0.02,1.5,-1.56,1.94,-0.11,-0.0,-0.04,-0.0,-0.12,-0.06,232.21,198.0,0.0,0.0,0.0,0.0
1776370328156648508,26911,0.008,0.6,0.0,0.2,0.02,-0.2,1.5,-1.56,1.94,-0.11,-0.0,-0.06,0.06,-0.12,0.06,232.21,198.0,0.0,0.0,0.0,0.0
1776370328254953032,27011,0.052,0.3,0.0,1.2,0.14,-0.14,1.5,-1.56,1.94,-0.11,0.01,-0.05,-0.0,-0.0,-0.06,231.18,197.0,0.0,0.0,0.0,0.0
1776370328357401293,27111,0.0,1.1,0.0,1.0,-0.1,-0.12,1.5,-1.56,1.94,-0.11,-0.0,-0.06,-0.0,0.06,-0.19,231.18,197.0,0.0,0.0,0.0,0.0
1776370328455634612,27211,0.0,0.6,0.0,0.3,0.0,0.0,1.5,-1.56,1.94,-0.12,-0.01,-0.06,-0.19,-0.06,0.0,232.21,198.0,0.0,0.0,0.0,0.0
1776370328558028094,27311,0.016,0.3,0.0,0.2,0.06,-0.04,1.5,-1.56,1.94,-0.11,-0.0,-0.06,-0.12,0.12,0.06,232.21,197.0,0.0,0.0,0.0,0.0
1776370328656355693,27412,0.02,0.2,0.0,1.3,0.02,-0.1,1.5,-1.56,1.94,-0.11,-0.0,-0.05,0.06,-0.0,0.06,232.21,197.0,0.0,0.0,0.0,0.0
1776370328758767990,27511,0.0,1.1,0.0,0.3,-0.04,-0.04,1.5,-1.56,1.94,-0.09,-0.0,-0.05,-0.0,0.12,0.06,231.18,198.0,0.0,0.0,0.0,0.0
1776370328857048033,27612,0.012,0.3,0.004,0.0,-0.06,-0.21,1.5,-1.56,1.94,-0.11,-0.0,-0.06,0.12,0.06,0.06,232.21,201.0,0.0,0.0,0.0,0.0
1776370328959439126,27712,0.008,0.2,0.0,1.0,0.06,-0.1,1.5,-1.56,1.94,-0.12,-0.0,-0.06,0.06,-0.12,0.0,232.21,201.0,0.0,0.0,0.0,0.0
1776370329057749169,27812,0.0,0.2,0.0,1.3,0.14,-0.04,1.5,-1.56,1.94,-0.12,-0.0,-0.05,0.06,-0.06,-0.06,231.18,197.0,0.0,0.0,0.0,0.0
1776370329168081284,27913,0.0,0.9,0.0,0.9,-0.04,0.0,1.5,-1.56,1.94,-0.12,-0.0,-0.04,0.06,-0.06,0.06,11933.66,195.0,0.0,0.0,0.0,0.0
1776370329258458471,28013,0.056,0.3,0.0,1.1,0.06,-0.1,1.5,-1.56,1.94,-0.1,0.01,-0.04,-0.0,0.19,0.0,228.1,195.0,0.0,0.0,0.0,0.0
1776370329356769607,28112,0.048,0.2,0.0,0.6,0.0,0.0,1.5,-1.56,1.94,-0.11,0.01,-0.03,0.06,0.19,0.0,231.18,200.0,0.0,0.0,0.0,0.0
1776370329459132921,28212,0.036,0.5,0.0,0.4,0.04,-0.14,1.5,-1.56,1.94,-0.11,0.01,-0.03,-0.12,0.06,0.06,232.21,200.0,0.0,0.0,0.0,0.0
1776370329557410778,28312,0.0,0.9,0.0,0.9,-0.06,0.0,1.5,-1.56,1.94,-0.11,-0.0,-0.07,0.06,-0.06,0.12,232.21,199.0,0.0,0.0,0.0,0.0
1776370329655759266,28411,0.012,0.2,0.0,0.2,-0.2,0.0,1.5,-1.56,1.94,-0.11,-0.0,-0.06,-0.0,0.06,0.19,231.18,200.0,0.0,0.0,0.0,0.0
1776370329758152526,28511,0.0,0.9,0.0,0.9,0.0,-0.23,1.5,-1.56,1.94,-0.13,-0.0,-0.05,0.06,-0.19,-0.06,232.21,200.0,0.0,0.0,0.0,0.0
1776370329856462309,28611,0.0,0.5,0.0,1.2,0.02,0.02,1.5,-1.56,1.94,-0.12,0.02,-0.05,-0.0,0.06,-0.06,210.94,197.0,0.0,0.0,0.0,0.0
1776370329954732018,28710,0.016,0.4,0.004,0.6,-0.02,-0.04,1.5,-1.56,1.94,-0.11,-0.0,-0.05,-0.0,-0.12,-0.06,236.5,197.0,0.0,0.0,0.0,0.0
1776370330057156815,28810,0.0,0.0,0.0,0.6,0.06,-0.14,1.5,-1.56,1.94,-0.11,-0.0,-0.07,0.19,-0.06,0.06,215.06,197.0,0.0,0.0,0.0,0.0
1776370330155470858,28910,0.008,0.3,0.0,1.2,-0.12,0.0,1.5,-1.56,1.94,-0.13,-0.01,-0.07,0.19,-0.19,0.0,210.77,198.0,0.0,0.0,0.0,0.0
1776370330257866988,29010,0.048,-0.2,0.0,0.8,-0.06,-0.02,1.5,-1.56,1.94,-0.14,-0.0,-0.05,0.06,-0.06,0.0,232.21,204.0,0.0,0.0,0.0,0.0
1776370330356286384,29110,0.044,0.3,0.036,0.2,-0.02,-0.02,1.5,-1.56,1.94,-0.09,-0.0,-0.05,-0.12,-0.0,0.0,11934.68,197.0,0.0,0.0,0.0,0.0
1776370330458563235,29210,0.0,0.6,0.028,0.1,0.0,-0.16,1.5,-1.56,1.94,-0.12,-0.0,-0.04,0.06,-0.06,0.0,215.06,197.0,0.0,0.0,0.0,0.0
1776370330556827684,29309,0.0,0.7,0.008,0.3,-0.08,0.1,1.5,-1.56,1.94,-0.11,-0.0,-0.04,-0.0,-0.06,0.12,232.21,197.0,0.0,0.0,0.0,0.0
1776370330655184876,29409,0.016,0.0,0.0,1.0,0.0,-0.1,1.5,-1.56,1.94,-0.13,-0.0,-0.05,-0.0,-0.0,0.12,235.47,199.0,0.0,0.0,0.0,0.0
1776370330765512584,29509,0.016,0.1,0.0,0.9,-0.2,-0.04,1.5,-1.56,1.94,-0.1,-0.02,-0.06,-0.0,0.12,0.06,11937.77,200.0,0.0,0.0,0.0,0.0
1776370330857788099,29609,0.012,0.1,0.0,1.1,-0.04,-0.18,1.5,-1.56,1.94,-0.11,0.01,-0.04,-0.0,0.06,-0.06,11933.83,199.0,0.0,0.0,0.0,0.0
1776370330956164920,29709,0.012,0.2,0.0,0.2,0.0,-0.18,1.5,-1.56,1.94,-0.12,-0.0,-0.06,0.19,0.12,0.06,11936.06,199.0,0.0,0.0,0.0,0.0
1776370331064498058,29808,0.0,0.7,0.0,0.2,-0.12,-0.08,1.5,-1.56,1.94,-0.14,-0.0,-0.05,-0.12,-0.06,-0.12,11936.74,202.0,0.0,0.0,0.0,0.0
1776370331156786221,29908,0.0,0.4,0.004,0.2,0.04,0.02,1.5,-1.56,1.94,-0.11,-0.01,-0.04,-0.0,-0.19,-0.06,11935.03,200.0,0.0,0.0,0.0,0.0
1776370331265268342,30008,0.0,1.0,0.0,0.8,0.02,-0.04,1.5,-1.56,1.94,-0.11,0.01,-0.05,0.12,-0.06,0.06,11937.94,200.0,0.0,0.0,0.0,0.0
1776370331355568695,30108,0.048,0.4,0.0,1.4,0.0,0.06,1.5,-1.56,1.94,-0.11,0.01,-0.03,0.06,-0.12,0.06,11934.86,194.0,0.0,0.0,0.0,0.0
1776370331457953769,30209,0.036,0.4,0.028,0.3,-0.12,0.12,1.5,-1.56,1.94,-0.11,-0.02,-0.05,-0.0,-0.0,0.0,11935.89,199.0,0.0,0.0,0.0,0.0
1776370331556226089,30309,0.0,0.0,0.0,0.5,-0.12,-0.14,1.5,-1.56,1.94,-0.1,-0.0,-0.05,-0.06,0.19,-0.06,11937.6,199.0,0.0,0.0,0.0,0.0
1776370331654541094,30409,0.0,0.5,0.0,1.3,-0.06,-0.21,1.5,-1.56,1.94,-0.1,-0.0,-0.04,-0.06,-0.0,0.12,226.89,199.0,0.0,0.0,0.0,0.0
1776370331758896016,30509,0.02,0.4,0.0,0.9,-0.1,-0.06,1.5,-1.56,1.94,-0.13,0.01,-0.05,-0.25,-0.0,0.0,11936.74,198.0,0.0,0.0,0.0,0.0
1776370331855273712,30609,0.0,0.4,0.0,1.1,0.06,-0.1,1.5,-1.56,1.94,-0.13,-0.0,-0.05,-0.0,-0.06,0.0,232.38,198.0,0.0,0.0,0.0,0.0
1776370331957650897,30709,0.0,1.0,0.004,0.0,-0.08,0.04,1.5,-1.56,1.94,-0.09,-0.0,-0.05,-0.06,-0.06,-0.12,231.18,198.0,0.0,0.0,0.0,0.0
1776370332055965754,30809,0.008,0.4,0.0,0.5,-0.06,0.02,1.5,-1.56,1.94,-0.1,0.01,-0.04,-0.0,-0.0,0.0,232.21,199.0,0.0,0.0,0.0,0.0
1776370332158357588,30909,0.0,0.7,0.0,0.2,-0.02,-0.08,1.5,-1.56,1.94,-0.12,0.01,-0.05,-0.06,0.12,-0.12,231.18,199.0,0.0,0.0,0.0,0.0
1776370332256682964,31008,0.0,0.1,0.0,1.1,-0.1,-0.18,1.5,-1.56,1.94,-0.12,0.01,-0.05,-0.06,-0.12,-0.06,236.5,199.0,0.0,0.0,0.0,0.0
1776370332354947728,31108,0.0,0.5,0.0,0.6,0.06,-0.12,1.5,-1.56,1.94,-0.1,-0.0,-0.05,-0.06,0.06,-0.06,232.38,199.0,0.0,0.0,0.0,0.0
1776370332457380840,31208,0.0,0.9,0.032,0.4,-0.04,-0.18,1.5,-1.56,1.94,-0.08,-0.0,-0.07,-0.06,0.06,0.06,231.18,199.0,0.0,0.0,0.0,0.0
1776370332555635492,31308,0.028,0.4,0.0,1.0,-0.06,-0.12,1.5,-1.56,1.94,-0.13,-0.0,-0.05,-0.06,-0.0,0.06,231.18,204.0,0.0,0.0,0.0,0.0
1776370332658073049,31409,0.016,0.4,0.0,0.9,0.0,-0.04,1.5,-1.56,1.94,-0.11,0.01,-0.04,0.06,-0.12,0.0,232.21,200.0,0.0,0.0,0.0,0.0
1776370332756409851,31509,0.0,0.4,0.0,1.2,0.1,-0.14,1.5,-1.56,1.94,-0.11,0.01,-0.04,-0.0,0.19,-0.06,232.21,200.0,0.0,0.0,0.0,0.0
1776370332854660430,31608,0.0,1.3,0.004,0.5,-0.04,-0.21,1.5,-1.56,1.94,-0.1,-0.0,-0.05,0.06,0.12,0.06,232.21,200.0,0.0,0.0,0.0,0.0
1776370332957092801,31708,0.0,1.1,0.0,1.0,0.06,0.06,1.5,-1.56,1.94,-0.11,-0.0,-0.05,0.06,-0.06,-0.06,231.18,199.0,0.0,0.0,0.0,0.0
1776370333059487208,31808,0.004,0.2,0.0,0.2,-0.06,-0.21,1.5,-1.56,1.94,-0.12,-0.0,-0.05,-0.0,-0.0,0.0,236.5,199.0,0.0,0.0,0.0,0.0
1776370333157781621,31909,0.004,0.3,0.008,0.8,0.04,0.04,1.5,-1.56,1.94,-0.12,0.01,-0.05,0.06,-0.12,0.0,236.5,195.0,0.0,0.0,0.0,0.0
1776370333260180788,32009,0.06,0.1,0.0,0.2,0.02,-0.18,1.5,-1.56,1.94,-0.11,0.02,-0.06,-0.0,0.06,0.0,236.5,200.0,0.0,0.0,0.0,0.0
1776370333358485108,32109,0.0,0.2,0.0,0.1,0.02,-0.1,1.5,-1.56,1.94,-0.13,-0.0,-0.05,-0.06,-0.06,-0.12,231.18,200.0,0.0,0.0,0.0,0.0
1776370333456755613,32208,0.0,0.5,0.024,0.3,-0.08,-0.04,1.5,-1.56,1.94,-0.11,-0.0,-0.04,-0.0,-0.06,0.06,232.21,203.0,0.0,0.0,0.0,0.0
1776370333559158094,32308,0.02,0.1,0.0,0.3,0.0,-0.1,1.5,-1.56,1.94,-0.09,-0.01,-0.03,-0.0,-0.06,0.06,235.47,203.0,0.0,0.0,0.0,0.0
1776370333657478489,32408,0.0,0.9,0.0,0.9,0.04,0.0,1.5,-1.56,1.94,-0.09,-0.0,-0.03,-0.0,0.12,-0.06,235.3,197.0,0.0,0.0,0.0,0.0
1776370333755784364,32508,0.016,0.2,0.004,0.3,-0.04,-0.08,1.5,-1.56,1.94,-0.1,-0.01,-0.05,0.06,-0.0,0.06,235.47,199.0,0.0,0.0,0.0,0.0
1776370333858196068,32608,0.012,0.2,0.0,1.3,-0.1,-0.02,1.5,-1.56,1.94,-0.11,0.01,-0.07,-0.0,0.06,-0.06,236.5,199.0,0.0,0.0,0.0,0.0
1776370333966541354,32709,0.0,1.0,0.0,0.3,-0.08,-0.16,1.5,-1.56,1.94,-0.1,-0.0,-0.04,0.06,-0.06,-0.06,235.47,199.0,0.0,0.0,0.0,0.0
1776370334058900500,32809,0.0,0.3,0.0,0.3,0.06,-0.04,1.5,-1.56,1.94,-0.12,-0.0,-0.05,-0.0,-0.0,-0.06,231.18,201.0,0.0,0.0,0.0,0.0
1776370334161263759,32910,0.0,0.1,0.0,0.2,-0.04,-0.02,1.5,-1.56,1.94,-0.11,-0.01,-0.04,0.06,-0.0,0.0,231.18,201.0,0.0,0.0,0.0,0.0
1776370334259590838,33010,0.0,0.5,0.052,0.7,-0.06,0.04,1.5,-1.56,1.94,-0.13,-0.0,-0.04,0.12,-0.12,0.06,231.18,203.0,0.0,0.0,0.0,0.0
1776370334362000598,33110,0.0,0.5,0.036,1.3,0.06,-0.08,1.5,-1.56,1.94,-0.11,-0.0,-0.06,0.06,0.06,0.12,236.5,200.0,0.0,0.0,0.0,0.0
1776370334460281658,33211,0.0,0.4,0.0,0.8,-0.02,0.02,1.5,-1.56,1.94,-0.12,-0.0,-0.06,-0.06,-0.0,-0.12,235.47,200.0,0.0,0.0,0.0,0.0
1776370334568610758,33311,0.028,0.2,0.0,1.0,-0.08,-0.1,1.5,-1.56,1.94,-0.12,-0.0,-0.05,-0.0,-0.06,0.0,232.21,197.0,0.0,0.0,0.0,0.0
1776370334660993867,33411,0.0,0.3,0.0,0.5,-0.04,-0.1,1.5,-1.56,1.94,-0.11,-0.0,-0.03,0.06,-0.06,0.12,234.27,194.0,0.0,0.0,0.0,0.0
1776370334763352589,33512,0.0,0.4,0.004,0.2,0.0,-0.02,1.5,-1.56,1.94,-0.11,0.01,-0.03,-0.06,-0.12,0.06,232.21,194.0,0.0,0.0,0.0,0.0
1776370334861690113,33612,0.0,0.0,0.0,0.3,0.06,-0.18,1.5,-1.56,1.94,-0.12,-0.0,-0.04,-0.12,0.06,0.06,232.21,197.0,0.0,0.0,0.0,0.0
1776370334961908336,33712,0.0,1.1,0.008,0.2,-0.06,-0.02,1.5,-1.56,1.94,-0.12,-0.0,-0.05,-0.0,0.06,-0.06,11933.66,199.0,0.0,0.0,0.0,0.0
1776370335064393652,33812,0.0,0.7,0.0,0.3,-0.12,0.0,1.5,-1.56,1.94,-0.13,0.01,-0.07,-0.06,-0.06,0.0,11938.46,199.0,0.0,0.0,0.0,0.0
1776370335160698512,33911,0.008,0.3,0.0,0.7,-0.06,-0.08,1.5,-1.56,1.94,-0.12,0.02,-0.05,-0.06,-0.0,0.0,232.21,201.0,0.0,0.0,0.0,0.0
1776370335264982877,34011,0.0,0.2,0.052,0.3,-0.06,-0.06,1.5,-1.56,1.94,-0.11,-0.0,-0.05,0.12,-0.12,0.06,11934.86,201.0,0.0,0.0,0.0,0.0
1776370335361420685,34111,0.0,0.0,0.0,1.1,0.08,0.02,1.5,-1.56,1.94,-0.1,-0.0,-0.06,-0.06,0.12,0.0,227.92,201.0,0.0,0.0,0.0,0.0
1776370335459725375,34211,0.032,0.2,0.0,1.1,-0.08,-0.02,1.5,-1.56,1.94,-0.11,-0.01,-0.05,-0.12,0.06,0.06,11934.34,202.0,0.0,0.0,0.0,0.0
1776370335562052688,34311,0.0,0.5,0.016,0.5,-0.12,-0.06,1.5,-1.56,1.94,-0.11,0.01,-0.07,-0.0,-0.06,0.0,232.21,202.0,0.0,0.0,0.0,0.0
1776370335660370731,34411,0.0,0.6,0.0,0.5,0.0,-0.14,1.5,-1.56,1.94,-0.11,-0.0,-0.04,-0.12,-0.0,0.0,231.18,199.0,0.0,0.0,0.0,0.0
1776370335762801416,34511,0.008,0.2,0.0,0.9,0.0,-0.1,1.5,-1.56,1.94,-0.1,-0.01,-0.06,0.06,-0.0,-0.19,231.18,199.0,0.0,0.0,0.0,0.0
1776370335861103162,34611,0.012,0.0,0.0,0.3,-0.02,-0.1,1.5,-1.56,1.94,-0.1,-0.0,-0.07,-0.06,-0.06,0.06,210.77,198.0,0.0,0.0,0.0,0.0
1776370335959338426,34711,0.0,0.7,0.0,0.3,-0.08,0.0,1.5,-1.56,1.94,-0.11,-0.0,-0.04,0.06,0.06,0.06,232.21,199.0,0.0,0.0,0.0,0.0
1776370336061798001,34810,0.0,0.5,0.0,1.0,-0.12,0.02,1.5,-1.56,1.94,-0.12,0.01,-0.05,-0.0,-0.0,0.0,231.18,199.0,0.0,0.0,0.0,0.0
1776370336160114858,34910,0.008,0.4,0.0,1.2,-0.02,-0.04,1.5,-1.56,1.94,-0.1,0.01,-0.07,-0.0,-0.12,0.06,231.18,201.0,0.0,0.0,0.0,0.0
1776370336258355047,35010,0.0,1.1,0.0,1.0,0.0,-0.06,1.5,-1.56,1.94,-0.11,0.01,-0.04,0.06,0.12,0.0,231.18,200.0,0.0,0.0,0.0,0.0
1776370336360812696,35109,0.044,0.0,0.0,0.5,0.0,0.04,1.5,-1.56,1.94,-0.13,-0.0,-0.07,0.12,0.06,0.19,232.21,200.0,0.0,0.0,0.0,0.0
1776370336463167325,35210,0.0,-0.4,0.0,1.3,-0.1,-0.12,1.5,-1.56,1.94,-0.12,-0.0,-0.07,0.06,0.06,0.06,232.21,201.0,0.0,0.0,0.0,0.0
1776370336561463811,35310,0.0,1.0,0.0,0.8,0.02,-0.04,1.5,-1.56,1.94,-0.11,-0.0,-0.05,-0.0,0.19,0.0,210.77,197.0,0.0,0.0,0.0,0.0
1776370336659748705,35410,0.016,0.6,0.0,0.8,0.0,0.0,1.5,-1.56,1.94,-0.13,-0.0,-0.06,-0.0,0.12,0.0,232.21,197.0,0.0,0.0,0.0,0.0
1776370336762209928,35510,0.012,0.3,0.0,1.2,-0.02,0.02,1.5,-1.56,1.94,-0.12,-0.0,-0.04,-0.0,0.06,0.0,232.21,203.0,0.0,0.0,0.0,0.0
1776370336860505248,35610,0.012,0.3,0.004,0.5,0.0,-0.06,1.5,-1.56,1.94,-0.12,0.01,-0.07,-0.12,0.12,-0.12,214.89,201.0,0.0,0.0,0.0,0.0
1776370336958799345,35709,0.008,0.4,0.0,1.1,0.02,0.02,1.5,-1.56,1.94,-0.12,-0.0,-0.06,0.06,-0.0,-0.06,235.47,201.0,0.0,0.0,0.0,0.0
1776370337063115711,35809,0.0,0.7,0.004,0.5,0.08,-0.16,1.5,-1.56,1.94,-0.11,-0.0,-0.07,-0.0,-0.0,-0.12,11937.09,198.0,0.0,0.0,0.0,0.0
1776370337159507980,35909,0.0,0.9,0.004,0.2,-0.02,-0.1,1.5,-1.56,1.94,-0.12,-0.0,-0.06,0.06,-0.06,0.0,232.21,198.0,0.0,0.0,0.0,0.0
1776370337257782651,36008,0.056,0.0,0.0,1.3,0.12,-0.14,1.5,-1.56,1.94,-0.13,0.01,-0.07,0.06,-0.06,0.0,235.3,201.0,0.0,0.0,0.0,0.0
1776370337360217522,36108,0.044,0.2,0.0,0.7,-0.02,-0.08,1.5,-1.56,1.94,-0.13,-0.0,-0.05,-0.0,0.12,0.0,235.47,199.0,0.0,0.0,0.0,0.0
1776370337458481322,36209,0.028,0.4,0.0,0.6,0.08,-0.04,1.5,-1.56,1.94,-0.1,0.03,-0.07,0.19,-0.25,-0.06,235.3,199.0,0.0,0.0,0.0,0.0
1776370337560867841,36308,0.024,0.4,0.0,0.4,0.04,-0.1,1.5,-1.56,1.94,-0.12,-0.0,-0.05,-0.0,-0.12,0.06,215.06,198.0,0.0,0.0,0.0,0.0
1776370337659209420,36408,0.0,1.0,0.008,0.8,0.02,-0.06,1.5,-1.56,1.94,-0.14,-0.0,-0.08,0.06,-0.19,0.06,215.06,199.0,0.0,0.0,0.0,0.0
1776370337757541204,36508,0.016,0.2,0.0,1.1,0.02,0.0,1.5,-1.56,1.94,-0.09,0.01,-0.06,0.12,-0.06,-0.12,231.18,199.0,0.0,0.0,0.0,0.0
1776370337859918351,36608,0.0,0.2,0.0,1.0,-0.06,-0.16,1.5,-1.56,1.94,-0.12,-0.0,-0.05,-0.0,-0.12,0.0,210.77,201.0,0.0,0.0,0.0,0.0
1776370337962310629,36708,0.008,0.4,0.0,1.3,0.0,-0.06,1.5,-1.56,1.94,-0.1,-0.0,-0.08,-0.12,0.06,-0.06,210.94,201.0,0.0,0.0,0.0,0.0
1776370338060611059,36808,0.004,0.0,0.0,0.3,0.0,0.0,1.5,-1.56,1.94,-0.12,-0.0,-0.07,-0.06,-0.12,0.0,231.18,198.0,0.0,0.0,0.0,0.0
1776370338163025985,36909,0.0,0.1,0.0,1.4,-0.1,0.0,1.5,-1.56,1.94,-0.12,-0.0,-0.07,-0.06,0.06,0.0,232.21,193.0,0.0,0.0,0.0,0.0
1776370338261325435,37009,0.052,0.1,0.0,1.0,0.0,-0.06,1.5,-1.56,1.94,-0.1,-0.0,-0.09,-0.12,-0.06,0.06,232.21,193.0,0.0,0.0,0.0,0.0
1776370338359604735,37109,0.0,0.2,0.0,1.2,-0.04,-0.02,1.5,-1.56,1.94,-0.12,0.01,-0.08,-0.06,-0.0,0.0,231.18,200.0,0.0,0.0,0.0,0.0
1776370338462013476,37209,0.032,0.3,0.0,1.3,0.0,-0.02,1.5,-1.56,1.94,-0.12,0.02,-0.08,-0.19,0.12,0.12,11935.37,199.0,0.0,0.0,0.0,0.0
1776370338566261266,37309,0.0,0.3,0.024,0.1,-0.02,-0.04,1.5,-1.56,1.94,-0.11,-0.0,-0.07,-0.06,0.12,0.06,11934.0,201.0,0.0,0.0,0.0,0.0
1776370338670678263,37409,0.0,0.8,0.008,0.5,-0.06,-0.06,1.5,-1.56,1.94,-0.12,-0.0,-0.07,-0.06,0.06,0.0,11935.37,201.0,0.0,0.0,0.0,0.0
1776370338765130092,37510,0.008,0.3,0.0,1.3,0.02,-0.16,1.5,-1.56,1.94,-0.11,0.01,-0.08,0.06,-0.19,-0.06,232.21,200.0,0.0,0.0,0.0,0.0
1776370338863424152,37611,0.004,0.2,0.0,0.6,0.02,-0.02,1.5,-1.56,1.94,-0.1,-0.0,-0.07,-0.0,-0.06,0.0,232.21,200.0,0.0,0.0,0.0,0.0
1776370338965815967,37711,0.0,0.1,0.0,1.2,0.12,0.0,1.5,-1.56,1.94,-0.1,-0.01,-0.07,-0.0,0.12,0.0,231.18,197.0,0.0,0.0,0.0,0.0
1776370339064093378,37812,0.008,0.5,0.0,1.1,0.04,-0.14,1.5,-1.56,1.94,-0.1,-0.0,-0.09,-0.0,-0.06,0.0,214.03,199.0,0.0,0.0,0.0,0.0
1776370339166495211,37913,0.008,0.3,0.0,1.1,0.08,-0.04,1.5,-1.56,1.94,-0.11,-0.01,-0.08,0.06,-0.0,-0.19,236.5,199.0,0.0,0.0,0.0,0.0
1776370339264814272,38012,0.056,0.2,0.0,1.3,0.0,-0.12,1.5,-1.56,1.94,-0.12,0.01,-0.06,0.06,-0.19,0.12,215.06,198.0,0.0,0.0,0.0,0.0
1776370339367222253,38112,0.04,0.1,0.0,1.2,0.02,-0.06,1.5,-1.56,1.94,-0.1,0.01,-0.06,-0.06,-0.0,0.06,215.06,198.0,0.0,0.0,0.0,0.0
1776370339465529481,38213,0.028,0.4,0.0,0.3,-0.02,-0.1,1.5,-1.56,1.94,-0.12,-0.0,-0.08,-0.0,-0.0,0.0,213.86,201.0,0.0,0.0,0.0,0.0
1776370339567880405,38313,0.0,0.2,0.0,1.2,0.06,-0.12,1.5,-1.56,1.94,-0.11,-0.0,-0.08,0.06,0.12,0.0,215.06,198.0,0.0,0.0,0.0,0.0
1776370339666192003,38413,0.0,-0.1,0.0,1.1,0.0,-0.12,1.5,-1.56,1.94,-0.1,-0.0,-0.08,-0.06,0.06,0.06,235.47,198.0,0.0,0.0,0.0,0.0
1776370339768597132,38514,0.012,0.0,0.0,0.0,-0.04,-0.04,1.5,-1.56,1.94,-0.09,0.01,-0.06,-0.06,-0.06,0.0,235.47,196.0,0.0,0.0,0.0,0.0
1776370339866916304,38614,0.0,0.0,0.0,1.1,0.06,0.06,1.5,-1.56,1.94,-0.1,-0.0,-0.06,-0.12,-0.06,0.06,231.18,198.0,0.0,0.0,0.0,0.0
1776370339969307155,38715,0.008,0.2,0.008,0.2,0.02,-0.02,1.5,-1.56,1.94,-0.11,-0.0,-0.07,-0.06,0.12,0.0,232.21,198.0,0.0,0.0,0.0,0.0
1776370340067617475,38815,0.0,0.1,0.0,1.0,-0.04,-0.12,1.5,-1.56,1.94,-0.13,-0.0,-0.07,-0.06,-0.0,0.06,232.21,198.0,0.0,0.0,0.0,0.0
1776370340170013567,38915,0.0,0.9,0.02,0.5,-0.06,0.02,1.5,-1.56,1.94,-0.13,-0.0,-0.06,0.06,-0.06,-0.06,230.15,201.0,0.0,0.0,0.0,0.0
1776370340268331202,39015,0.06,0.2,0.04,0.3,0.12,0.06,1.5,-1.56,1.94,-0.09,-0.01,-0.06,-0.06,0.25,-0.06,231.18,201.0,0.0,0.0,0.0,0.0
1776370340370680775,39115,0.044,0.0,0.04,0.5,-0.02,-0.12,1.5,-1.56,1.94,-0.12,-0.0,-0.06,-0.0,0.12,0.0,232.21,200.0,0.0,0.0,0.0,0.0
1776370340468995817,39216,0.024,0.5,0.032,0.4,-0.06,0.02,1.5,-1.56,1.94,-0.1,0.01,-0.07,-0.0,-0.06,0.06,235.3,200.0,0.0,0.0,0.0,0.0
1776370340571380131,39317,0.024,0.2,0.0,0.3,0.06,-0.18,1.5,-1.56,1.94,-0.1,-0.0,-0.06,-0.06,0.19,-0.06,236.5,196.0,0.0,0.0,0.0,0.0
1776370340669720896,39416,0.0,1.0,0.0,0.5,0.06,-0.08,1.5,-1.56,1.94,-0.11,0.01,-0.05,-0.06,0.19,0.0,232.21,195.0,0.0,0.0,0.0,0.0
1776370340772121043,39516,0.0,0.4,0.008,0.6,-0.04,-0.14,1.5,-1.56,1.94,-0.1,-0.01,-0.05,-0.0,-0.12,-0.06,236.5,195.0,0.0,0.0,0.0,0.0
1776370340870425826,39617,0.0,0.2,0.0,1.1,0.04,-0.06,1.5,-1.56,1.94,-0.1,0.01,-0.04,-0.06,-0.06,-0.06,231.18,194.0,0.0,0.0,0.0,0.0
1776370340972798121,39717,0.008,1.1,0.004,0.2,-0.02,-0.02,1.5,-1.56,1.94,-0.13,-0.0,-0.08,-0.06,-0.0,0.06,235.3,201.0,0.0,0.0,0.0,0.0
1776370341071122941,39817,0.0,1.0,0.0,1.3,-0.08,0.0,1.5,-1.56,1.94,-0.13,-0.01,-0.03,-0.19,0.06,0.06,232.21,201.0,0.0,0.0,0.0,0.0
1776370341173530311,39918,0.0,0.5,0.0,1.0,-0.1,-0.04,1.5,-1.56,1.94,-0.1,0.01,-0.04,-0.0,0.06,0.0,231.18,197.0,0.0,0.0,0.0,0.0
1776370341271823094,40018,0.048,0.2,0.0,0.3,0.14,-0.12,1.5,-1.56,1.94,-0.11,0.02,-0.05,-0.06,-0.12,-0.06,231.18,200.0,0.0,0.0,0.0,0.0
1776370341374233390,40118,0.036,0.1,0.0,0.3,-0.06,-0.14,1.5,-1.56,1.94,-0.1,-0.0,-0.06,-0.0,-0.06,0.06,232.21,200.0,0.0,0.0,0.0,0.0
1776370341472493801,40219,0.0,0.4,0.02,0.8,0.0,-0.06,1.5,-1.56,1.94,-0.12,0.02,-0.04,-0.06,0.12,-0.06,227.58,199.0,0.0,0.0,0.0,0.0
1776370341574952746,40318,0.024,0.3,0.0,1.1,-0.12,0.02,1.5,-1.56,1.94,-0.11,0.01,-0.06,0.06,0.06,0.06,231.18,199.0,0.0,0.0,0.0,0.0
1776370341673238825,40419,0.0,0.6,0.004,0.4,-0.04,0.02,1.5,-1.56,1.94,-0.13,-0.0,-0.07,-0.0,-0.19,0.0,232.21,196.0,0.0,0.0,0.0,0.0
1776370341775600564,40519,0.0,0.2,0.0,1.1,0.0,-0.1,1.5,-1.56,1.94,-0.1,-0.01,-0.05,0.06,-0.12,0.06,232.21,199.0,0.0,0.0,0.0,0.0
1776370341873924014,40619,0.016,0.5,0.0,0.2,-0.02,-0.06,1.5,-1.56,1.94,-0.11,-0.0,-0.05,-0.06,0.06,0.12,232.38,199.0,0.0,0.0,0.0,0.0
1776370341976315106,40720,0.0,0.6,0.0,1.5,-0.06,0.04,1.5,-1.56,1.94,-0.12,-0.0,-0.05,0.19,-0.25,0.06,232.38,196.0,0.0,0.0,0.0,0.0
1776370342074632537,40820,0.0,0.4,0.0,1.4,-0.1,-0.08,1.5,-1.56,1.94,-0.11,-0.0,-0.06,0.06,-0.12,0.06,232.21,197.0,0.0,0.0,0.0,0.0
1776370342177087685,40921,0.024,0.2,0.0,1.0,-0.04,-0.04,1.5,-1.56,1.94,-0.11,-0.0,-0.05,-0.0,-0.0,-0.12,232.21,197.0,0.0,0.0,0.0,0.0
1776370342275324226,41022,0.0,1.1,0.048,0.2,-0.08,-0.08,1.5,-1.56,1.94,-0.12,0.01,-0.04,-0.06,-0.19,-0.06,232.21,196.0,0.0,0.0,0.0,0.0
1776370342377735929,41121,0.0,0.2,0.0,1.1,-0.12,0.0,1.5,-1.56,1.94,-0.11,-0.0,-0.03,-0.06,0.12,0.0,236.5,199.0,0.0,0.0,0.0,0.0
1776370342476014563,41221,0.0,0.5,0.0,1.1,0.06,0.0,1.5,-1.56,1.94,-0.1,0.02,-0.03,0.06,0.12,0.06,236.5,199.0,0.0,0.0,0.0,0.0
1776370342578398562,41322,0.02,0.0,0.02,1.0,-0.12,0.0,1.5,-1.56,1.94,-0.1,-0.0,-0.07,-0.0,-0.0,-0.06,232.21,196.0,0.0,0.0,0.0,0.0
1776370342817434878,41422,0.016,0.1,0.0,1.0,0.06,-0.04,1.5,-1.56,1.94,-0.09,-0.0,-0.03,-0.06,0.25,0.0,231.18,196.0,0.0,0.0,0.0,0.0
1776370342877442942,41522,0.012,0.3,0.0,1.0,0.18,-0.08,1.5,-1.56,1.94,-0.11,-0.0,-0.05,0.12,0.06,0.0,232.21,201.0,0.0,0.0,0.0,0.0
1776370342890735906,41622,0.012,1.1,0.0,1.2,0.1,-0.04,1.5,-1.56,1.94,-0.1,-0.0,-0.06,-0.06,-0.06,0.06,231.18,195.0,0.0,0.0,0.0,0.0
1776370342981725751,41722,0.0,0.3,0.0,1.0,-0.08,0.08,1.5,-1.56,1.94,-0.12,-0.01,-0.05,-0.06,-0.12,0.0,11934.86,201.0,0.0,0.0,0.0,0.0
1776370343078121020,41822,0.0,1.0,0.0,0.7,0.02,-0.08,1.5,-1.56,1.94,-0.1,-0.0,-0.06,-0.12,-0.06,-0.06,236.33,201.0,0.0,0.0,0.0,0.0
1776370343176419876,41922,0.02,0.3,0.0,1.1,-0.1,-0.02,1.5,-1.56,1.94,-0.12,-0.0,-0.07,0.06,-0.06,0.0,210.94,198.0,0.0,0.0,0.0,0.0
1776370343278826931,42022,0.052,0.1,0.0,0.6,-0.1,-0.14,1.5,-1.56,1.94,-0.13,-0.0,-0.06,0.06,-0.06,-0.06,232.21,198.0,0.0,0.0,0.0,0.0
1776370343381261394,42123,0.044,0.2,0.0,1.0,0.06,-0.14,1.5,-1.56,1.94,-0.11,0.01,-0.05,-0.0,-0.06,0.06,232.38,198.0,0.0,0.0,0.0,0.0
1776370343479500675,42223,0.0,0.5,0.0,1.2,0.02,-0.02,1.5,-1.56,1.94,-0.07,0.01,-0.05,0.06,0.12,-0.12,205.63,195.0,0.0,0.0,0.0,0.0
1776370343577776809,42323,0.024,0.1,0.024,0.4,0.0,-0.21,1.5,-1.56,1.94,-0.09,-0.0,-0.06,-0.06,0.06,0.06,210.94,195.0,0.0,0.0,0.0,0.0
1776370343680204050,42423,0.0,0.3,0.008,0.2,-0.02,0.0,1.5,-1.56,1.94,-0.1,-0.0,-0.03,-0.0,-0.0,0.19,236.5,203.0,0.0,0.0,0.0,0.0
1776370343778534610,42524,0.0,0.4,0.008,0.6,-0.02,-0.04,1.5,-1.56,1.94,-0.12,-0.0,-0.05,0.06,0.12,0.06,231.18,195.0,0.0,0.0,0.0,0.0
1776370343880932202,42624,0.0,0.9,0.004,0.5,-0.02,0.14,1.5,-1.56,1.94,-0.1,0.01,-0.06,0.06,-0.0,0.06,231.18,195.0,0.0,0.0,0.0,0.0
1776370343979237244,42724,0.0,0.7,0.0,0.5,0.14,-0.06,1.5,-1.56,1.94,-0.1,0.01,-0.03,-0.06,0.06,0.06,232.38,197.0,0.0,0.0,0.0,0.0
1776370344081630225,42824,0.004,0.9,0.0,0.5,0.16,-0.21,1.5,-1.56,1.94,-0.09,0.01,-0.03,-0.12,0.19,0.19,235.47,197.0,0.0,0.0,0.0,0.0
1776370344179931970,42924,0.0,0.1,0.0,0.8,0.04,-0.02,1.5,-1.56,1.94,-0.12,-0.01,-0.03,-0.12,-0.06,-0.06,232.38,201.0,0.0,0.0,0.0,0.0
1776370344282336544,43025,0.056,-0.2,0.0,0.2,0.04,-0.04,1.5,-1.56,1.94,-0.14,0.01,-0.05,-0.0,-0.06,0.06,232.21,202.0,0.0,0.0,0.0,0.0
1776370344380615733,43125,0.0,0.2,0.0,0.8,0.12,0.06,1.5,-1.56,1.94,-0.09,0.01,-0.05,-0.06,-0.12,0.06,231.18,202.0,0.0,0.0,0.0,0.0
1776370344483003639,43225,0.028,0.1,0.028,0.2,0.14,-0.14,1.5,-1.56,1.94,-0.1,0.01,-0.07,-0.0,-0.06,-0.06,232.21,198.0,0.0,0.0,0.0,0.0
1776370344581300903,43326,0.0,1.0,0.0,1.1,-0.02,0.0,1.5,-1.56,1.94,-0.12,-0.0,-0.05,-0.06,0.06,-0.12,210.77,198.0,0.0,0.0,0.0,0.0
1776370344679569352,43425,0.0,1.0,0.0,0.9,-0.12,-0.2,1.5,-1.56,1.94,-0.13,-0.0,-0.05,0.06,-0.06,0.0,232.21,198.0,0.0,0.0,0.0,0.0
1776370344782034648,43525,0.012,0.2,0.0,1.1,0.02,-0.14,1.5,-1.56,1.94,-0.11,-0.0,-0.04,0.06,-0.0,0.06,228.1,198.0,0.0,0.0,0.0,0.0
1776370344884433999,43625,0.0,0.6,0.0,0.3,0.02,-0.16,1.5,-1.56,1.94,-0.12,-0.0,-0.04,-0.06,-0.0,-0.06,210.77,198.0,0.0,0.0,0.0,0.0
1776370344982733837,43725,0.0,0.5,0.0,0.5,-0.1,-0.12,1.5,-1.56,1.94,-0.12,-0.0,-0.06,-0.0,-0.06,0.12,206.66,201.0,0.0,0.0,0.0,0.0
1776370345080998804,43825,0.0,0.4,0.0,1.3,0.04,-0.14,1.5,-1.56,1.94,-0.11,0.01,-0.05,-0.0,-0.0,0.0,213.86,199.0,0.0,0.0,0.0,0.0
1776370345183453138,43926,0.024,0.1,0.016,0.2,0.02,-0.21,1.5,-1.56,1.94,-0.11,0.01,-0.05,-0.06,-0.12,0.0,214.89,199.0,0.0,0.0,0.0,0.0
1776370345281742512,44025,0.052,0.3,0.0,0.5,-0.06,0.02,1.5,-1.56,1.94,-0.12,-0.0,-0.06,-0.0,-0.0,-0.06,231.18,201.0,0.0,0.0,0.0,0.0
1776370345384154938,44126,0.0,0.6,0.036,0.3,-0.04,-0.02,1.5,-1.56,1.94,-0.11,0.01,-0.05,-0.0,-0.12,0.0,210.77,195.0,0.0,0.0,0.0,0.0
1776370345482432757,44227,0.028,0.4,0.0,1.4,0.08,-0.04,1.5,-1.56,1.94,-0.1,-0.0,-0.07,0.06,-0.06,0.06,210.77,195.0,0.0,0.0,0.0,0.0
1776370345584797014,44326,0.024,0.4,0.0,1.2,0.02,-0.14,1.5,-1.56,1.94,-0.12,-0.0,-0.05,-0.0,-0.12,-0.12,205.63,202.0,0.0,0.0,0.0,0.0
1776370345687232644,44427,0.0,0.9,0.0,0.4,0.0,0.0,1.5,-1.56,1.94,-0.12,0.01,-0.04,0.12,-0.0,0.06,231.18,198.0,0.0,0.0,0.0,0.0
1776370345785551852,44528,0.012,0.2,0.0,1.1,-0.04,0.0,1.5,-1.56,1.94,-0.12,-0.0,-0.05,0.12,-0.06,0.0,232.21,198.0,0.0,0.0,0.0,0.0
1776370345883835690,44627,0.008,0.3,0.0,1.3,0.04,-0.04,1.5,-1.56,1.94,-0.11,-0.01,-0.06,-0.0,0.06,0.06,210.77,202.0,0.0,0.0,0.0,0.0
1776370345986237986,44727,0.004,0.1,0.0,0.8,0.1,0.0,1.5,-1.56,1.94,-0.1,-0.0,-0.06,-0.06,0.06,-0.06,210.94,198.0,0.0,0.0,0.0,0.0
1776370346084546064,44827,0.008,0.2,0.0,1.2,0.0,-0.12,1.5,-1.56,1.94,-0.11,-0.0,-0.05,0.12,-0.06,0.06,210.94,198.0,0.0,0.0,0.0,0.0
1776370346186944230,44928,0.028,0.1,0.0,1.1,0.02,-0.08,1.5,-1.56,1.94,-0.09,0.02,-0.07,-0.06,-0.25,-0.06,215.06,199.0,0.0,0.0,0.0,0.0
1776370346285237142,45028,0.0,0.1,0.0,0.5,-0.1,0.0,1.5,-1.56,1.94,-0.11,-0.0,-0.04,-0.12,-0.12,0.0,215.06,199.0,0.0,0.0,0.0,0.0
1776370346387654993,45129,0.0,0.5,0.028,0.5,-0.12,-0.06,1.5,-1.56,1.94,-0.11,-0.01,-0.06,-0.0,-0.0,0.0,205.63,203.0,0.0,0.0,0.0,0.0
1776370346490033251,45230,0.028,1.1,0.024,0.2,0.02,0.0,1.5,-1.56,1.94,-0.1,0.01,-0.05,0.06,-0.06,0.0,206.66,200.0,0.0,0.0,0.0,0.0
1776370346588306403,45330,0.004,0.2,0.0,1.3,-0.02,-0.08,1.5,-1.56,1.94,-0.09,-0.01,-0.06,-0.06,-0.0,0.0,210.77,200.0,0.0,0.0,0.0,0.0
1776370346686632149,45430,0.0,1.1,0.0,0.5,0.06,-0.06,1.5,-1.56,1.94,-0.11,-0.0,-0.03,0.12,-0.0,0.0,206.66,197.0,0.0,0.0,0.0,0.0
1776370346789039574,45530,0.0,0.3,0.004,0.6,-0.08,0.0,1.5,-1.56,1.94,-0.11,-0.0,-0.04,0.06,-0.06,0.0,231.18,199.0,0.0,0.0,0.0,0.0
1776370346887322819,45631,0.0,0.3,0.0,0.6,0.06,0.06,1.5,-1.56,1.94,-0.1,0.01,-0.03,-0.06,0.12,0.06,232.21,199.0,0.0,0.0,0.0,0.0
1776370346989745559,45730,0.012,0.2,0.0,0.8,0.06,-0.18,1.5,-1.56,1.94,-0.09,-0.0,-0.07,0.06,-0.0,0.06,231.18,194.0,0.0,0.0,0.0,0.0
1776370347088046471,45830,0.0,0.0,0.0,1.0,-0.02,0.1,1.5,-1.56,1.94,-0.11,-0.0,-0.03,-0.0,-0.0,0.0,232.38,204.0,0.0,0.0,0.0,0.0
1776370347190444137,45930,0.0,0.5,0.032,0.6,0.04,-0.02,1.5,-1.56,1.94,-0.11,-0.0,-0.04,0.06,0.12,-0.06,232.38,204.0,0.0,0.0,0.0,0.0
1776370347288749289,46030,0.048,0.0,0.0,1.2,-0.16,-0.14,1.5,-1.56,1.94,-0.1,-0.0,-0.05,-0.06,0.19,0.06,210.77,198.0,0.0,0.0,0.0,0.0
1776370347386994052,46130,0.0,1.1,0.032,0.3,-0.06,-0.1,1.5,-1.56,1.94,-0.13,-0.0,-0.04,0.19,-0.12,0.0,232.21,198.0,0.0,0.0,0.0,0.0
1776370347489422681,46230,0.0,1.1,0.0,0.3,0.1,-0.08,1.5,-1.56,1.94,-0.13,-0.0,-0.03,0.06,0.12,0.06,232.38,201.0,0.0,0.0,0.0,0.0
1776370347587707352,46329,0.02,0.1,0.024,0.3,-0.06,-0.06,1.5,-1.56,1.94,-0.11,-0.0,-0.05,-0.06,-0.06,0.0,226.89,200.0,0.0,0.0,0.0,0.0
1776370347690149463,46429,0.02,0.2,0.012,0.6,0.04,-0.12,1.5,-1.56,1.94,-0.09,0.01,-0.05,-0.12,0.19,0.12,236.5,200.0,0.0,0.0,0.0,0.0
1776370347788446208,46529,0.0,1.1,0.0,0.9,0.0,-0.12,1.5,-1.56,1.94,-0.1,-0.01,-0.05,-0.12,0.06,-0.06,228.1,198.0,0.0,0.0,0.0,0.0
1776370347886751231,46628,0.008,0.1,0.0,1.0,-0.02,-0.04,1.5,-1.56,1.94,-0.1,-0.0,-0.05,-0.0,0.06,0.0,206.66,197.0,0.0,0.0,0.0,0.0
1776370347989156860,46728,0.008,-0.3,0.0,1.1,-0.02,-0.18,1.5,-1.56,1.94,-0.11,-0.0,-0.05,-0.19,0.06,0.0,232.38,197.0,0.0,0.0,0.0,0.0
1776370348087455679,46828,0.008,0.1,0.0,1.2,-0.12,0.08,1.5,-1.56,1.94,-0.09,0.02,-0.03,0.12,-0.0,-0.06,232.21,197.0,0.0,0.0,0.0,0.0
1776370348185758516,46927,0.0,0.3,0.0,1.0,-0.18,-0.04,1.5,-1.56,1.94,-0.11,-0.0,-0.05,0.12,-0.06,-0.06,231.18,200.0,0.0,0.0,0.0,0.0
1776370348288145904,47027,0.056,0.1,0.0,0.3,0.02,-0.08,1.5,-1.56,1.94,-0.12,-0.0,-0.04,0.06,-0.0,-0.12,210.77,200.0,0.0,0.0,0.0,0.0
1776370348386429149,47127,0.0,0.2,0.0,1.0,-0.12,0.0,1.5,-1.56,1.94,-0.13,-0.0,-0.03,-0.12,-0.06,0.0,210.77,195.0,0.0,0.0,0.0,0.0
1776370348484709986,47226,0.02,0.3,0.0,0.8,0.02,-0.16,1.5,-1.56,1.94,-0.09,-0.0,-0.06,0.06,-0.12,0.0,206.66,195.0,0.0,0.0,0.0,0.0
1776370348587115097,47326,0.02,0.3,0.0,0.4,-0.06,0.04,1.5,-1.56,1.94,-0.11,0.01,-0.07,0.06,-0.06,-0.12,210.77,201.0,0.0,0.0,0.0,0.0
1776370348685454824,47426,0.0,0.1,0.016,0.1,-0.14,-0.04,1.5,-1.56,1.94,-0.12,-0.0,-0.05,0.06,0.12,0.0,206.66,198.0,0.0,0.0,0.0,0.0
1776370348793828072,47526,0.012,0.3,0.0,1.3,-0.02,-0.04,1.5,-1.56,1.94,-0.1,-0.0,-0.05,-0.0,-0.06,0.0,232.21,198.0,0.0,0.0,0.0,0.0
1776370348886180217,47626,0.004,0.2,0.0,0.2,-0.1,-0.08,1.5,-1.56,1.94,-0.1,-0.0,-0.04,0.06,-0.06,-0.06,210.94,201.0,0.0,0.0,0.0,0.0
1776370348984462609,47726,0.0,1.0,0.0,0.3,-0.02,-0.16,1.5,-1.56,1.94,-0.09,0.01,-0.06,0.06,-0.19,-0.06,210.94,199.0,0.0,0.0,0.0,0.0
1776370349086862849,47826,0.0,0.1,0.0,0.5,-0.04,-0.06,1.5,-1.56,1.94,-0.13,-0.0,-0.05,-0.0,0.06,0.0,206.66,199.0,0.0,0.0,0.0,0.0
1776370349185226892,47926,0.0,0.6,0.0,1.1,-0.08,-0.14,1.5,-1.56,1.94,-0.11,-0.01,-0.05,-0.12,0.06,0.12,206.66,201.0,0.0,0.0,0.0,0.0
1776370349287561390,48026,0.0,0.9,0.0,0.8,-0.06,-0.06,1.5,-1.56,1.94,-0.11,-0.0,-0.05,0.06,-0.06,0.0,206.66,199.0,0.0,0.0,0.0,0.0
1776370349385872524,48125,0.0,0.5,0.0,0.5,0.0,0.02,1.5,-1.56,1.94,-0.11,-0.0,-0.04,0.06,-0.0,0.12,210.77,199.0,0.0,0.0,0.0,0.0
1776370349488226152,48225,0.0,0.9,0.0,0.9,0.02,0.0,1.5,-1.56,1.94,-0.12,-0.0,-0.05,-0.0,-0.0,0.0,231.18,199.0,0.0,0.0,0.0,0.0
1776370349586546434,48326,0.024,0.2,0.0,0.8,0.0,-0.04,1.5,-1.56,1.94,-0.12,-0.0,-0.05,0.06,-0.06,0.0,215.06,199.0,0.0,0.0,0.0,0.0
1776370349684839160,48425,0.0,0.3,0.0,0.2,-0.08,0.0,1.5,-1.56,1.94,-0.12,-0.0,-0.05,0.06,-0.12,-0.06,215.06,201.0,0.0,0.0,0.0,0.0
1776370349787349531,48525,0.0,0.4,0.0,0.2,-0.1,0.0,1.5,-1.56,1.94,-0.11,-0.0,-0.05,0.06,-0.12,-0.12,236.5,199.0,0.0,0.0,0.0,0.0
1776370349885579146,48625,0.0,0.9,0.004,0.3,0.06,-0.1,1.5,-1.56,1.94,-0.12,-0.0,-0.03,0.06,0.06,-0.06,210.77,199.0,0.0,0.0,0.0,0.0
1776370349987989256,48726,0.008,0.1,0.0,0.9,-0.23,-0.04,1.5,-1.56,1.94,-0.12,0.01,-0.05,0.06,-0.0,-0.06,232.38,199.0,0.0,0.0,0.0,0.0
1776370350086265612,48826,0.008,0.1,0.0,0.6,-0.16,-0.12,1.5,-1.56,1.94,-0.11,0.01,-0.04,-0.0,0.12,0.06,231.18,199.0,0.0,0.0,0.0,0.0
1776370350196589596,48926,0.032,0.9,0.0,1.0,-0.06,-0.04,1.5,-1.56,1.94,-0.11,-0.0,-0.05,0.12,-0.06,0.06,11934.34,200.0,0.0,0.0,0.0,0.0
1776370350286974467,49027,0.06,0.4,0.048,0.3,-0.04,-0.06,1.5,-1.56,1.94,-0.1,-0.0,-0.04,0.06,-0.06,-0.06,235.3,200.0,0.0,0.0,0.0,0.0
1776370350389508487,49127,0.04,0.3,0.032,0.1,-0.02,0.02,1.5,-1.56,1.94,-0.11,0.01,-0.06,-0.06,-0.0,0.12,232.21,195.0,0.0,0.0,0.0,0.0
1776370350487651803,49227,0.0,1.1,0.032,0.2,-0.04,0.0,1.5,-1.56,1.94,-0.1,-0.0,-0.04,-0.06,-0.12,0.06,232.21,195.0,0.0,0.0,0.0,0.0
1776370350590037505,49327,0.0,0.5,0.028,0.5,-0.02,0.0,1.5,-1.56,1.94,-0.1,0.01,-0.03,-0.0,0.06,0.06,215.06,201.0,0.0,0.0,0.0,0.0
1776370350688340787,49427,0.0,0.2,0.0,1.0,0.0,-0.1,1.5,-1.56,1.94,-0.12,0.01,-0.06,-0.06,0.12,-0.06,236.33,200.0,0.0,0.0,0.0,0.0
1776370350786674996,49526,0.0,0.2,0.0,0.3,-0.08,0.08,1.5,-1.56,1.94,-0.12,-0.0,-0.06,0.19,-0.0,0.06,235.47,200.0,0.0,0.0,0.0,0.0
1776370350889073310,49626,0.0,0.6,0.0,1.0,0.08,-0.08,1.5,-1.56,1.94,-0.12,0.02,-0.06,-0.06,0.06,-0.06,215.06,201.0,0.0,0.0,0.0,0.0
1776370350987378832,49726,0.012,0.3,0.0,1.2,-0.02,-0.16,1.5,-1.56,1.94,-0.12,-0.01,-0.07,0.12,0.12,0.12,236.5,201.0,0.0,0.0,0.0,0.0
1776370351085670540,49825,0.0,0.4,0.0,0.7,0.06,-0.06,1.5,-1.56,1.94,-0.11,-0.0,-0.04,-0.0,-0.0,0.0,209.74,199.0,0.0,0.0,0.0,0.0
1776370351188071669,49926,0.0,0.3,0.0,1.0,-0.25,-0.1,1.5,-1.56,1.94,-0.11,-0.01,-0.05,-0.19,-0.0,-0.06,214.89,198.0,0.0,0.0,0.0,0.0
1776370351286367247,50027,0.0,0.2,0.0,0.7,0.02,-0.04,1.5,-1.56,1.94,-0.12,-0.0,-0.04,-0.0,-0.0,-0.06,215.06,198.0,0.0,0.0,0.0,0.0
1776370351388768431,50126,0.04,0.2,0.0,0.5,0.08,-0.04,1.5,-1.56,1.94,-0.1,0.01,-0.02,-0.06,-0.12,0.0,235.47,199.0,0.0,0.0,0.0,0.0
1776370351487118214,50226,0.0,0.6,0.0,1.2,0.08,-0.16,1.5,-1.56,1.94,-0.07,-0.0,-0.07,0.06,-0.12,-0.12,210.94,199.0,0.0,0.0,0.0,0.0
1776370351585322624,50326,0.02,0.2,0.0,1.2,-0.1,0.06,1.5,-1.56,1.94,-0.12,-0.01,-0.04,0.12,0.06,0.0,209.74,199.0,0.0,0.0,0.0,0.0
1776370351687742993,50425,0.0,0.7,0.016,0.3,-0.21,-0.1,1.5,-1.56,1.94,-0.13,-0.0,-0.07,-0.06,-0.19,-0.06,206.66,198.0,0.0,0.0,0.0,0.0
1776370351786016886,50526,0.016,0.5,0.0,0.3,-0.1,-0.1,1.5,-1.56,1.94,-0.11,-0.01,-0.07,0.06,-0.0,0.0,210.77,198.0,0.0,0.0,0.0,0.0
1776370351888484423,50626,0.008,0.2,0.0,0.7,-0.1,-0.08,1.5,-1.56,1.94,-0.1,-0.01,-0.05,-0.06,-0.0,0.0,210.94,198.0,0.0,0.0,0.0,0.0
1776370351986788631,50725,0.012,0.7,0.004,0.3,0.08,-0.06,1.5,-1.56,1.94,-0.12,-0.01,-0.06,-0.0,-0.0,-0.12,210.77,200.0,0.0,0.0,0.0,0.0
1776370352089181945,50826,0.004,0.0,0.0,0.5,-0.04,-0.12,1.5,-1.56,1.94,-0.13,-0.0,-0.05,-0.0,-0.0,-0.06,236.5,200.0,0.0,0.0,0.0,0.0
1776370352187486153,50926,0.028,0.1,0.0,1.1,0.0,-0.08,1.5,-1.56,1.94,-0.1,0.02,-0.04,-0.0,-0.0,0.06,232.21,197.0,0.0,0.0,0.0,0.0
1776370352285776027,51025,0.056,0.2,0.0,0.3,-0.08,-0.02,1.5,-1.56,1.94,-0.1,-0.0,-0.06,-0.12,0.06,0.0,236.5,198.0,0.0,0.0,0.0,0.0
1776370352388190804,51125,0.0,0.0,0.028,0.1,0.04,0.0,1.5,-1.56,1.94,-0.11,-0.0,-0.05,0.06,0.06,-0.06,210.94,198.0,0.0,0.0,0.0,0.0
1776370352486477808,51225,0.024,0.2,0.0,1.2,0.0,-0.02,1.5,-1.56,1.94,-0.1,-0.0,-0.05,0.12,-0.12,0.06,214.03,196.0,0.0,0.0,0.0,0.0
1776370352588846269,51325,0.0,1.1,0.0,1.0,0.1,-0.04,1.5,-1.56,1.94,-0.1,-0.0,-0.05,-0.0,-0.12,0.0,215.06,199.0,0.0,0.0,0.0,0.0
1776370352687197329,51425,0.0,0.7,0.008,0.3,-0.08,0.1,1.5,-1.56,1.94,-0.1,0.03,-0.04,-0.0,-0.06,0.06,210.77,199.0,0.0,0.0,0.0,0.0
1776370352785478130,51525,0.0,0.1,0.0,1.2,-0.1,-0.1,1.5,-1.56,1.94,-0.11,-0.0,-0.05,-0.0,-0.0,0.06,215.06,198.0,0.0,0.0,0.0,0.0
1776370352887887055,51624,0.008,0.1,0.0,0.5,0.0,-0.06,1.5,-1.56,1.94,-0.11,-0.0,-0.05,-0.06,0.06,0.0,236.5,198.0,0.0,0.0,0.0,0.0
1776370352996237876,51725,0.0,0.2,0.0,0.8,0.14,-0.06,1.5,-1.56,1.94,-0.11,-0.0,-0.08,-0.0,-0.06,0.0,236.5,200.0,0.0,0.0,0.0,0.0
1776370353088582187,51825,0.0,0.0,0.0,1.1,-0.02,-0.06,1.5,-1.56,1.94,-0.11,-0.0,-0.09,-0.0,-0.12,0.06,231.18,203.0,0.0,0.0,0.0,0.0
1776370353190988260,51926,0.0,0.9,0.028,0.6,0.04,-0.06,1.5,-1.56,1.94,-0.11,-0.0,-0.08,0.06,-0.0,-0.12,210.77,203.0,0.0,0.0,0.0,0.0
1776370353289286783,52027,0.0,0.7,0.0,0.7,-0.1,-0.04,1.5,-1.56,1.94,-0.1,-0.0,-0.05,0.12,-0.06,0.0,209.74,197.0,0.0,0.0,0.0,0.0
1776370353391686670,52127,0.032,0.0,0.0,1.0,-0.18,-0.08,1.5,-1.56,1.94,-0.12,-0.0,-0.06,0.12,-0.06,0.0,236.5,201.0,0.0,0.0,0.0,0.0
1776370353489962063,52227,0.028,0.1,0.0,0.9,-0.04,0.06,1.5,-1.56,1.94,-0.12,0.01,-0.07,-0.06,0.12,0.0,231.18,201.0,0.0,0.0,0.0,0.0
1776370353588220474,52327,0.024,0.5,0.0,0.6,-0.04,0.02,1.5,-1.56,1.94,-0.1,0.01,-0.06,0.06,-0.12,-0.06,206.66,201.0,0.0,0.0,0.0,0.0
1776370353690696103,52427,0.0,0.6,0.0,1.2,0.0,-0.06,1.5,-1.56,1.94,-0.1,-0.0,-0.06,0.12,-0.0,0.06,210.94,196.0,0.0,0.0,0.0,0.0
1776370353788981385,52527,0.012,0.2,0.0,0.8,-0.06,-0.08,1.5,-1.56,1.94,-0.13,-0.0,-0.06,-0.06,-0.06,0.0,210.77,196.0,0.0,0.0,0.0,0.0
1776370353891391032,52627,0.012,0.1,0.0,0.7,0.04,-0.08,1.5,-1.56,1.94,-0.11,-0.0,-0.05,-0.0,-0.0,0.06,210.77,196.0,0.0,0.0,0.0,0.0
1776370353989692073,52726,0.008,0.4,0.0,1.3,-0.02,-0.06,1.5,-1.56,1.94,-0.12,-0.0,-0.07,-0.0,0.19,0.19,210.77,196.0,0.0,0.0,0.0,0.0
1776370354098025042,52826,0.008,0.4,0.0,0.5,0.08,0.06,1.5,-1.56,1.94,-0.1,-0.01,-0.09,0.06,0.06,0.12,214.89,195.0,0.0,0.0,0.0,0.0
1776370354190395835,52927,0.0,0.5,0.0,1.1,-0.02,-0.08,1.5,-1.56,1.94,-0.11,-0.02,-0.1,-0.0,0.06,0.06,205.46,197.0,0.0,0.0,0.0,0.0
1776370354288672728,53027,0.048,0.3,0.0,1.0,0.04,-0.04,1.5,-1.56,1.94,-0.11,0.01,-0.06,-0.0,-0.0,0.0,210.77,197.0,0.0,0.0,0.0,0.0
1776370354391100227,53127,0.04,0.7,0.032,0.3,-0.04,-0.12,1.5,-1.56,1.94,-0.09,-0.0,-0.09,0.19,-0.12,0.0,209.74,200.0,0.0,0.0,0.0,0.0
1776370354489322971,53228,0.032,0.1,0.0,1.0,0.08,-0.02,1.5,-1.56,1.94,-0.11,-0.0,-0.05,-0.12,-0.12,-0.06,210.94,193.0,0.0,0.0,0.0,0.0
1776370354591751526,53327,0.0,0.1,0.0,0.6,-0.1,-0.06,1.5,-1.56,1.94,-0.1,-0.0,-0.07,0.06,-0.0,-0.06,236.33,193.0,0.0,0.0,0.0,0.0
1776370354694192636,53428,0.02,0.0,0.0,0.9,0.0,0.0,1.5,-1.56,1.94,-0.12,-0.0,-0.05,-0.0,-0.0,0.0,228.1,200.0,0.0,0.0,0.0,0.0
1776370354792509437,53528,0.0,0.2,0.0,1.4,-0.02,-0.21,1.5,-1.56,1.94,-0.08,-0.01,-0.07,0.06,-0.25,0.06,231.18,201.0,0.0,0.0,0.0,0.0
1776370354890799533,53627,0.0,0.9,0.0,0.1,-0.06,-0.06,1.5,-1.56,1.94,-0.11,0.01,-0.05,-0.06,0.06,0.0,236.5,201.0,0.0,0.0,0.0,0.0
1776370354989035925,53727,0.0,0.1,0.0,1.1,-0.04,-0.12,1.5,-1.56,1.94,-0.11,0.01,-0.07,-0.0,-0.06,0.0,215.06,201.0,0.0,0.0,0.0,0.0
1776370355091490610,53827,0.0,0.3,0.0,0.7,0.06,-0.02,1.5,-1.56,1.94,-0.12,0.02,-0.05,-0.0,0.06,-0.06,210.77,195.0,0.0,0.0,0.0,0.0
1776370355189767336,53927,0.032,0.2,0.0,0.8,-0.02,-0.06,1.5,-1.56,1.94,-0.11,-0.0,-0.08,-0.0,0.12,0.0,236.5,195.0,0.0,0.0,0.0,0.0
1776370355292212409,54028,0.0,0.4,0.0,1.3,-0.14,-0.1,1.5,-1.56,1.94,-0.12,-0.0,-0.07,0.06,-0.06,0.0,236.5,201.0,0.0,0.0,0.0,0.0
1776370355394589074,54129,0.0,0.2,0.04,0.5,-0.1,0.0,1.5,-1.56,1.94,-0.11,-0.01,-0.06,0.06,-0.0,0.06,236.33,201.0,0.0,0.0,0.0,0.0
1776370355492862022,54228,0.0,0.5,0.028,0.3,-0.06,-0.1,1.5,-1.56,1.94,-0.1,-0.0,-0.08,-0.0,-0.06,-0.06,236.33,198.0,0.0,0.0,0.0,0.0
1776370355591122859,54328,0.0,0.6,0.0,0.5,0.04,0.12,1.5,-1.56,1.94,-0.11,0.01,-0.06,0.12,-0.0,-0.06,215.06,199.0,0.0,0.0,0.0,0.0
1776370355693597100,54428,0.02,0.1,0.0,0.8,-0.08,-0.18,1.5,-1.56,1.94,-0.1,-0.0,-0.06,0.06,0.06,0.06,215.06,199.0,0.0,0.0,0.0,0.0
1776370355791909659,54528,0.012,0.5,0.0,0.2,-0.12,-0.04,1.5,-1.56,1.94,-0.1,0.01,-0.06,-0.06,0.06,0.0,236.5,196.0,0.0,0.0,0.0,0.0
1776370355890173811,54628,0.008,0.4,0.0,0.5,-0.14,-0.06,1.5,-1.56,1.94,-0.11,-0.0,-0.07,-0.12,0.12,0.0,236.5,199.0,0.0,0.0,0.0,0.0
1776370355992606088,54727,0.0,0.2,0.0,0.3,-0.04,-0.06,1.5,-1.56,1.94,-0.1,-0.02,-0.03,-0.12,0.12,0.06,235.3,199.0,0.0,0.0,0.0,0.0
1776370356095002716,54828,0.0,0.3,0.0,0.9,-0.14,-0.16,1.5,-1.56,1.94,-0.11,-0.0,-0.04,-0.0,-0.25,0.0,214.89,196.0,0.0,0.0,0.0,0.0
1776370356193388351,54928,0.0,0.4,0.0,1.1,-0.08,-0.08,1.5,-1.56,1.94,-0.09,-0.0,-0.05,-0.0,-0.06,0.06,215.06,196.0,0.0,0.0,0.0,0.0
1776370356301668449,55029,0.052,0.1,0.0,1.4,-0.02,-0.06,1.5,-1.56,1.94,-0.11,-0.0,-0.06,0.06,-0.0,0.06,235.3,199.0,0.0,0.0,0.0,0.0
1776370356394018408,55129,0.0,1.2,0.032,0.2,0.02,-0.16,1.5,-1.56,1.94,-0.1,-0.0,-0.07,-0.12,-0.12,0.06,236.5,198.0,0.0,0.0,0.0,0.0
1776370356496362943,55230,0.032,0.3,0.0,1.3,-0.23,-0.04,1.5,-1.56,1.94,-0.12,0.01,-0.06,-0.0,-0.06,0.12,236.33,198.0,0.0,0.0,0.0,0.0
1776370356594677966,55330,0.02,0.3,0.016,0.8,0.02,0.0,1.5,-1.56,1.94,-0.12,-0.0,-0.06,0.06,0.19,0.0,236.33,199.0,0.0,0.0,0.0,0.0
1776370356697104798,55430,0.008,0.1,0.0,1.0,-0.12,0.0,1.5,-1.56,1.94,-0.09,-0.01,-0.03,-0.06,-0.0,0.0,231.18,198.0,0.0,0.0,0.0,0.0
1776370356795465137,55531,0.008,0.2,0.012,0.1,0.02,-0.06,1.5,-1.56,1.94,-0.11,0.02,-0.01,-0.12,0.12,-0.06,236.33,198.0,0.0,0.0,0.0,0.0
1776370356893714103,55630,0.0,0.6,0.0,1.3,0.12,0.12,1.5,-1.56,1.94,-0.11,0.02,-0.05,-0.12,0.19,0.06,235.3,199.0,0.0,0.0,0.0,0.0
1776370356996104916,55730,0.0,0.2,0.0,0.5,0.06,0.0,1.5,-1.56,1.94,-0.13,-0.01,-0.06,-0.0,0.25,-0.06,232.21,201.0,0.0,0.0,0.0,0.0
1776370357094416735,55830,0.004,-0.1,0.0,1.4,-0.12,0.0,1.5,-1.56,1.94,-0.12,-0.0,-0.06,-0.06,0.06,-0.06,232.21,201.0,0.0,0.0,0.0,0.0
1776370357196807178,55929,0.0,0.8,0.028,0.3,0.0,0.0,1.5,-1.56,1.94,-0.12,-0.0,-0.08,-0.0,-0.06,0.0,231.18,199.0,0.0,0.0,0.0,0.0
1776370357295104071,56030,0.0,0.7,0.0,0.9,-0.04,-0.1,1.5,-1.56,1.94,-0.11,0.02,-0.04,-0.06,-0.0,0.06,231.18,194.0,0.0,0.0,0.0,0.0
1776370357397572330,56131,0.04,0.1,0.0,0.7,0.04,-0.04,1.5,-1.56,1.94,-0.11,0.01,-0.06,-0.12,0.12,0.0,11935.54,200.0,0.0,0.0,0.0,0.0
1776370357495763443,56231,0.0,0.5,0.0,0.2,-0.06,0.1,1.5,-1.56,1.94,-0.1,0.01,-0.06,0.06,0.06,0.06,215.06,200.0,0.0,0.0,0.0,0.0
1776370357598219406,56331,0.016,0.3,0.02,0.2,0.04,-0.12,1.5,-1.56,1.94,-0.12,-0.0,-0.05,0.12,-0.0,0.06,231.18,200.0,0.0,0.0,0.0,0.0
1776370357696514576,56431,0.0,0.2,0.008,0.2,0.08,-0.02,1.5,-1.56,1.94,-0.11,-0.0,-0.05,-0.06,-0.06,0.0,231.18,201.0,0.0,0.0,0.0,0.0
1776370357794798061,56530,0.0,0.9,0.0,0.8,-0.06,0.0,1.5,-1.56,1.94,-0.08,-0.0,-0.09,0.06,-0.19,0.0,232.21,198.0,0.0,0.0,0.0,0.0
1776370357897209986,56631,0.004,0.1,0.0,0.3,-0.12,0.02,1.5,-1.56,1.94,-0.13,-0.0,-0.06,-0.0,0.06,0.06,235.3,198.0,0.0,0.0,0.0,0.0
1776370358005561418,56732,0.0,0.8,0.0,0.2,0.0,0.14,1.5,-1.56,1.94,-0.1,-0.0,-0.04,0.06,-0.06,0.06,231.18,197.0,0.0,0.0,0.0,0.0
1776370358097929026,56832,0.0,0.2,0.0,0.8,0.0,-0.1,1.5,-1.56,1.94,-0.1,-0.0,-0.05,-0.06,-0.0,0.0,236.33,201.0,0.0,0.0,0.0,0.0
1776370358200319469,56932,0.032,0.2,0.0,0.4,0.0,-0.08,1.5,-1.56,1.94,-0.1,-0.0,-0.04,-0.12,-0.0,0.12,210.77,201.0,0.0,0.0,0.0,0.0
1776370358298612713,57032,0.052,-0.1,0.0,1.1,-0.02,-0.06,1.5,-1.56,1.94,-0.1,-0.0,-0.06,-0.19,-0.12,0.0,236.33,198.0,0.0,0.0,0.0,0.0
1776370358400989508,57132,0.0,0.9,0.024,0.5,0.0,0.0,1.5,-1.56,1.94,-0.11,-0.0,-0.05,-0.06,0.12,-0.12,210.77,200.0,0.0,0.0,0.0,0.0
1776370358499281993,57233,0.0,0.7,0.0,1.1,0.06,-0.08,1.5,-1.56,1.94,-0.1,0.02,-0.06,-0.0,0.06,0.0,236.5,200.0,0.0,0.0,0.0,0.0
1776370358597564571,57333,0.012,0.2,0.0,0.9,-0.1,0.04,1.5,-1.56,1.94,-0.11,-0.0,-0.09,-0.12,-0.06,0.0,232.21,197.0,0.0,0.0,0.0,0.0
1776370358700014607,57433,0.0,1.0,0.0,0.8,0.1,-0.08,1.5,-1.56,1.94,-0.11,-0.01,-0.04,0.06,-0.12,-0.06,235.3,197.0,0.0,0.0,0.0,0.0
1776370358798304778,57533,0.0,0.6,0.004,0.4,-0.16,-0.12,1.5,-1.56,1.94,-0.11,-0.0,-0.05,-0.0,0.06,0.0,236.33,198.0,0.0,0.0,0.0,0.0
1776370358900715350,57633,0.004,0.3,0.0,0.8,-0.08,-0.08,1.5,-1.56,1.94,-0.11,0.01,-0.03,0.06,0.12,0.0,232.21,203.0,0.0,0.0,0.0,0.0
1776370358999016465,57733,0.0,0.9,0.0,1.0,0.02,0.02,1.5,-1.56,1.94,-0.12,-0.0,-0.04,0.06,-0.06,-0.12,236.33,203.0,0.0,0.0,0.0,0.0
1776370359107385212,57833,0.0,0.6,0.004,0.5,0.12,-0.12,1.5,-1.56,1.94,-0.1,-0.0,-0.06,-0.06,0.12,0.0,236.5,203.0,0.0,0.0,0.0,0.0
1776370359199715875,57932,0.0,0.3,0.028,0.9,-0.08,-0.12,1.5,-1.56,1.94,-0.11,0.01,-0.09,-0.12,-0.0,0.0,215.06,200.0,0.0,0.0,0.0,0.0
1776370359297997193,58032,0.044,0.3,0.0,0.8,0.02,-0.2,1.5,-1.56,1.94,-0.12,-0.0,-0.03,-0.0,-0.0,-0.06,213.86,200.0,0.0,0.0,0.0,0.0
1776370359400425507,58132,0.04,0.2,0.0,0.3,-0.08,0.0,1.5,-1.56,1.94,-0.11,0.02,-0.06,-0.0,-0.06,0.12,214.89,199.0,0.0,0.0,0.0,0.0
1776370359498709048,58232,0.0,0.2,0.0,1.2,0.12,-0.14,1.5,-1.56,1.94,-0.11,-0.0,-0.05,-0.06,-0.0,-0.06,206.49,197.0,0.0,0.0,0.0,0.0
1776370359601078731,58333,0.0,0.1,0.0,0.6,0.0,-0.16,1.5,-1.56,1.94,-0.1,-0.0,-0.05,0.06,0.06,0.0,210.94,197.0,0.0,0.0,0.0,0.0
1776370359699422125,58433,0.016,0.4,0.0,0.6,-0.04,-0.12,1.5,-1.56,1.94,-0.13,0.01,-0.03,0.12,-0.06,0.0,215.06,200.0,0.0,0.0,0.0,0.0
1776370359807752149,58532,0.0,0.5,0.008,1.2,0.06,-0.16,1.5,-1.56,1.94,-0.11,-0.01,-0.08,0.12,-0.0,0.06,215.06,200.0,0.0,0.0,0.0,0.0
1776370359900122164,58633,0.0,0.1,0.0,0.9,-0.1,-0.02,1.5,-1.56,1.94,-0.09,0.01,-0.05,0.12,-0.0,0.0,215.06,201.0,0.0,0.0,0.0,0.0
1776370360010413832,58733,0.0,0.5,0.0,0.2,-0.08,-0.1,1.5,-1.56,1.94,-0.11,-0.0,-0.04,0.12,-0.06,0.0,11935.89,204.0,0.0,0.0,0.0,0.0
1776370360102739569,58833,0.0,0.9,0.0,0.8,-0.1,-0.04,1.5,-1.56,1.94,-0.11,0.01,-0.06,-0.12,0.25,0.06,11932.8,200.0,0.0,0.0,0.0,0.0
1776370360209173858,58933,0.04,0.1,0.0,0.6,0.04,-0.04,1.5,-1.56,1.94,-0.11,-0.0,-0.04,0.12,0.19,0.0,232.21,200.0,0.0,0.0,0.0,0.0
1776370360301526410,59033,0.0,0.5,0.0,1.0,0.1,-0.06,1.5,-1.56,1.94,-0.06,0.01,-0.04,-0.06,0.12,0.0,214.89,199.0,0.0,0.0,0.0,0.0
1776370360399830025,59132,0.04,0.0,0.0,0.8,0.04,-0.02,1.5,-1.56,1.94,-0.12,-0.01,-0.03,-0.06,0.12,0.0,210.77,199.0,0.0,0.0,0.0,0.0
1776370360502188837,59233,0.032,0.2,0.0,0.6,0.02,-0.04,1.5,-1.56,1.94,-0.12,-0.0,-0.05,0.06,-0.12,0.0,215.06,198.0,0.0,0.0,0.0,0.0
1776370360602383688,59333,0.02,0.0,0.0,0.2,-0.1,-0.1,1.5,-1.56,1.94,-0.13,-0.0,-0.03,0.06,0.06,0.0,11937.09,202.0,0.0,0.0,0.0,0.0
1776370360698789845,59433,0.0,0.6,0.012,1.1,0.1,0.1,1.5,-1.56,1.94,-0.1,-0.0,-0.03,-0.12,-0.12,-0.06,231.18,202.0,0.0,0.0,0.0,0.0
1776370360801214529,59533,0.016,0.3,0.0,0.6,-0.06,-0.12,1.5,-1.56,1.94,-0.13,-0.0,-0.03,0.06,-0.19,0.12,214.03,199.0,0.0,0.0,0.0,0.0
1776370360899534811,59632,0.008,0.1,0.0,0.7,0.04,-0.18,1.5,-1.56,1.94,-0.11,-0.0,-0.04,-0.06,-0.06,0.06,235.3,199.0,0.0,0.0,0.0,0.0
1776370360997827833,59731,0.0,0.9,0.004,0.2,0.12,-0.1,1.5,-1.56,1.94,-0.12,0.01,-0.06,0.12,-0.06,0.0,235.3,197.0,0.0,0.0,0.0,0.0
1776370361100229128,59831,0.004,0.1,0.0,0.2,-0.14,-0.08,1.5,-1.56,1.94,-0.11,-0.0,-0.05,0.19,-0.0,0.06,215.06,196.0,0.0,0.0,0.0,0.0
1776370361198515224,59932,0.0,0.6,0.036,0.2,-0.06,-0.04,1.5,-1.56,1.94,-0.11,0.02,-0.05,-0.0,-0.0,0.0,215.06,196.0,0.0,0.0,0.0,0.0
1776370361300928797,60032,0.0,0.6,0.048,0.3,-0.02,-0.04,1.5,-1.56,1.94,-0.12,0.01,-0.06,0.19,0.06,0.0,236.5,200.0,0.0,0.0,0.0,0.0
1776370361403341629,60132,0.0,0.5,0.0,0.3,-0.14,-0.08,1.5,-1.56,1.94,-0.11,-0.0,-0.03,-0.0,-0.06,0.0,235.47,200.0,0.0,0.0,0.0,0.0
1776370361501598428,60233,0.024,0.3,0.0,0.8,0.04,-0.12,1.5,-1.56,1.94,-0.09,0.01,-0.06,-0.0,0.06,-0.06,232.21,200.0,0.0,0.0,0.0,0.0
1776370361605888440,60334,0.0,0.5,0.012,0.6,-0.06,-0.12,1.5,-1.56,1.94,-0.13,-0.0,-0.04,0.12,0.19,0.06,11936.06,195.0,0.0,0.0,0.0,0.0
1776370361702295134,60434,0.0,0.7,0.004,0.3,0.08,0.02,1.5,-1.56,1.94,-0.11,-0.0,-0.06,-0.06,-0.0,0.06,235.47,198.0,0.0,0.0,0.0,0.0
1776370361800636250,60533,0.0,0.4,0.008,0.1,0.12,-0.06,1.5,-1.56,1.94,-0.12,-0.0,-0.04,-0.19,-0.0,-0.06,209.74,198.0,0.0,0.0,0.0,0.0
1776370361903039285,60633,0.0,0.1,0.0,0.9,-0.02,0.06,1.5,-1.56,1.94,-0.12,-0.0,-0.04,-0.0,0.12,0.06,236.5,197.0,0.0,0.0,0.0,0.0
1776370362001337289,60733,0.0,0.4,0.0,1.5,-0.08,-0.04,1.5,-1.56,1.94,-0.12,0.01,-0.06,-0.12,-0.12,0.06,235.3,197.0,0.0,0.0,0.0,0.0
1776370362103725973,60833,0.004,1.2,0.0,0.7,-0.02,-0.06,1.5,-1.56,1.94,-0.11,-0.0,-0.06,-0.0,-0.0,-0.06,236.5,198.0,0.0,0.0,0.0,0.0
1776370362202034032,60934,0.036,0.2,0.0,0.5,-0.06,-0.06,1.5,-1.56,1.94,-0.11,0.02,-0.05,-0.0,-0.06,0.06,236.5,197.0,0.0,0.0,0.0,0.0
1776370362312366645,61034,0.0,0.4,0.048,0.6,-0.12,-0.06,1.5,-1.56,1.94,-0.11,-0.0,-0.04,0.06,0.06,0.06,11937.26,199.0,0.0,0.0,0.0,0.0
1776370362402764016,61134,0.04,0.3,0.0,0.9,-0.02,0.02,1.5,-1.56,1.94,-0.12,0.01,-0.06,0.12,0.06,0.0,236.5,199.0,0.0,0.0,0.0,0.0
1776370362505130422,61235,0.0,0.1,0.0,1.4,0.02,-0.06,1.5,-1.56,1.94,-0.11,-0.0,-0.03,0.12,0.19,0.0,11938.63,196.0,0.0,0.0,0.0,0.0
1776370362603398703,61335,0.0,1.0,0.012,0.6,-0.06,-0.06,1.5,-1.56,1.94,-0.1,0.01,-0.04,0.06,0.06,-0.06,214.03,196.0,0.0,0.0,0.0,0.0
1776370362701731151,61434,0.016,0.1,0.0,0.6,-0.02,-0.02,1.5,-1.56,1.94,-0.1,-0.0,-0.05,0.06,0.12,-0.06,215.06,199.0,0.0,0.0,0.0,0.0
1776370362804130835,61534,0.016,0.1,0.0,1.1,-0.04,-0.16,1.5,-1.56,1.94,-0.12,-0.0,-0.01,-0.06,-0.06,0.0,235.47,199.0,0.0,0.0,0.0,0.0
1776370362902452265,61635,0.004,0.3,0.0,1.0,-0.02,0.08,1.5,-1.56,1.94,-0.11,-0.01,-0.04,0.06,-0.06,-0.12,215.06,199.0,0.0,0.0,0.0,0.0
1776370363004848134,61734,0.0,0.2,0.0,0.7,0.0,0.06,1.5,-1.56,1.94,-0.1,-0.0,-0.04,-0.0,-0.06,0.06,236.33,199.0,0.0,0.0,0.0,0.0
1776370363103140378,61834,0.0,0.8,0.0,0.6,0.12,-0.02,1.5,-1.56,1.94,-0.11,-0.0,-0.05,0.06,0.12,0.12,231.18,199.0,0.0,0.0,0.0,0.0
1776370363205538488,61934,0.0,1.1,0.04,0.4,-0.14,0.06,1.5,-1.56,1.94,-0.11,-0.0,-0.05,0.06,-0.0,0.0,235.3,202.0,0.0,0.0,0.0,0.0
1776370363303846584,62034,0.0,0.5,0.0,1.2,0.06,-0.08,1.5,-1.56,1.94,-0.1,-0.0,-0.03,-0.0,-0.0,0.0,236.5,197.0,0.0,0.0,0.0,0.0
1776370363406236767,62135,0.036,0.2,0.0,1.1,-0.08,-0.06,1.5,-1.56,1.94,-0.1,-0.0,-0.06,-0.12,-0.0,0.06,210.77,197.0,0.0,0.0,0.0,0.0
1776370363504517900,62235,0.0,1.3,0.02,0.7,-0.04,-0.04,1.5,-1.56,1.94,-0.11,-0.0,-0.05,0.06,0.19,0.0,210.94,202.0,0.0,0.0,0.0,0.0
1776370363602791941,62334,0.0,0.6,0.02,0.2,-0.04,0.02,1.5,-1.56,1.94,-0.12,-0.0,-0.05,-0.06,0.06,0.06,215.06,201.0,0.0,0.0,0.0,0.0
1776370363705242477,62435,0.0,0.3,0.016,1.0,-0.08,-0.04,1.5,-1.56,1.94,-0.11,-0.0,-0.04,-0.06,-0.0,-0.06,210.77,201.0,0.0,0.0,0.0,0.0
1776370363805485032,62535,0.0,0.2,0.0,1.2,0.06,-0.14,1.5,-1.56,1.94,-0.11,-0.0,-0.05,-0.0,0.12,0.06,11935.2,197.0,0.0,0.0,0.0,0.0
1776370363905952220,62636,0.008,0.4,0.0,0.7,0.0,-0.14,1.5,-1.56,1.94,-0.11,-0.01,-0.04,-0.12,0.12,0.06,236.5,201.0,0.0,0.0,0.0,0.0
1776370364016291315,62737,0.0,1.0,0.0,0.8,-0.08,-0.2,1.5,-1.56,1.94,-0.14,0.02,-0.03,-0.0,-0.0,-0.06,11933.66,201.0,0.0,0.0,0.0,0.0
1776370364108646608,62837,0.004,0.0,0.0,1.1,0.12,-0.08,1.5,-1.56,1.94,-0.12,-0.01,-0.05,0.12,0.12,0.12,11935.03,201.0,0.0,0.0,0.0,0.0
1776370364217000743,62938,0.048,0.5,0.04,0.4,-0.04,-0.18,1.5,-1.56,1.94,-0.11,-0.0,-0.02,0.06,-0.0,0.0,11934.86,194.0,0.0,0.0,0.0,0.0
1776370364309255330,63038,0.044,0.3,0.0,0.4,0.06,0.0,1.5,-1.56,1.94,-0.12,-0.01,-0.02,0.12,-0.0,0.06,11936.57,201.0,0.0,0.0,0.0,0.0
1776370364409734148,63138,0.04,0.1,0.0,0.8,0.04,-0.08,1.5,-1.56,1.94,-0.12,0.01,-0.03,-0.0,-0.12,0.0,11936.74,201.0,0.0,0.0,0.0,0.0
1776370364512092479,63239,0.024,0.4,0.0,1.1,-0.08,-0.1,1.5,-1.56,1.94,-0.12,-0.0,-0.04,0.19,-0.12,0.06,11933.66,200.0,0.0,0.0,0.0,0.0
1776370364610396187,63339,0.016,0.1,0.0,1.3,0.02,-0.06,1.5,-1.56,1.94,-0.13,0.01,-0.03,-0.06,-0.12,0.0,215.06,200.0,0.0,0.0,0.0,0.0
1776370364716630565,63438,0.0,1.0,0.012,0.5,-0.08,-0.14,1.5,-1.56,1.94,-0.11,0.01,-0.04,-0.0,-0.0,0.0,11935.03,201.0,0.0,0.0,0.0,0.0
1776370364819106398,63538,0.012,0.2,0.0,0.8,0.02,0.0,1.5,-1.56,1.94,-0.11,-0.01,-0.02,-0.06,-0.12,0.0,11934.17,200.0,0.0,0.0,0.0,0.0
1776370364909446045,63638,0.0,1.0,0.0,0.8,-0.16,0.06,1.5,-1.56,1.94,-0.12,-0.0,-0.05,-0.0,-0.0,-0.06,214.2,200.0,0.0,0.0,0.0,0.0
1776370365015594070,63737,0.0,0.4,0.0,1.2,0.04,-0.04,1.5,-1.56,1.94,-0.12,0.01,-0.05,-0.06,-0.12,-0.19,11935.2,201.0,0.0,0.0,0.0,0.0
1776370365110152084,63837,0.008,0.3,0.0,1.3,0.04,-0.08,1.5,-1.56,1.94,-0.12,-0.0,-0.06,-0.06,0.12,0.0,215.06,201.0,0.0,0.0,0.0,0.0
1776370365208452996,63938,0.0,1.1,0.024,1.0,0.0,0.1,1.5,-1.56,1.94,-0.12,-0.0,-0.05,-0.06,-0.0,0.06,214.89,198.0,0.0,0.0,0.0,0.0
1776370365306740832,64037,0.052,0.1,0.0,0.5,-0.06,0.04,1.5,-1.56,1.94,-0.1,0.02,-0.05,0.12,0.06,-0.06,215.06,198.0,0.0,0.0,0.0,0.0
1776370365409145553,64137,0.036,0.3,0.0,1.2,-0.06,-0.02,1.5,-1.56,1.94,-0.11,-0.0,-0.05,-0.0,-0.12,0.06,235.98,200.0,0.0,0.0,0.0,0.0
1776370365511546107,64238,0.0,1.1,0.0,0.9,0.08,-0.1,1.5,-1.56,1.94,-0.11,-0.0,-0.03,-0.0,-0.12,0.12,11934.51,201.0,0.0,0.0,0.0,0.0
1776370365609888056,64338,0.0,0.4,0.012,0.8,-0.1,0.02,1.5,-1.56,1.94,-0.11,-0.0,-0.06,-0.06,0.06,0.0,236.33,201.0,0.0,0.0,0.0,0.0
1776370365710072813,64438,0.012,0.2,0.0,1.2,-0.06,-0.06,1.5,-1.56,1.94,-0.11,0.02,-0.06,-0.06,0.06,0.06,11934.51,198.0,0.0,0.0,0.0,0.0
1776370365818477079,64538,0.012,0.1,0.0,1.0,-0.02,0.02,1.5,-1.56,1.94,-0.12,-0.0,-0.03,-0.06,0.06,-0.12,11934.0,198.0,0.0,0.0,0.0,0.0
1776370365910762815,64638,0.008,0.2,0.0,1.3,0.02,-0.04,1.5,-1.56,1.94,-0.1,0.01,-0.07,-0.06,0.06,0.12,11934.17,197.0,0.0,0.0,0.0,0.0
1776370366011249707,64738,0.0,0.9,0.008,0.3,0.0,-0.04,1.5,-1.56,1.94,-0.1,-0.0,-0.05,-0.0,-0.0,0.06,236.33,197.0,0.0,0.0,0.0,0.0
1776370366111482132,64838,0.004,0.3,0.0,1.0,0.1,-0.02,1.5,-1.56,1.94,-0.11,-0.01,-0.04,0.06,0.06,-0.06,11935.2,198.0,0.0,0.0,0.0,0.0
1776370366219862138,64939,0.0,0.4,0.056,0.3,-0.16,-0.14,1.5,-1.56,1.94,-0.12,-0.0,-0.05,0.06,0.06,-0.06,11936.91,196.0,0.0,0.0,0.0,0.0
1776370366312252376,65039,0.06,0.1,0.044,0.5,-0.16,0.04,1.5,-1.56,1.94,-0.11,-0.0,-0.03,0.06,-0.06,-0.19,11937.09,196.0,0.0,0.0,0.0,0.0
1776370366412656471,65139,0.04,0.4,0.0,0.3,-0.1,-0.04,1.5,-1.56,1.94,-0.1,0.01,-0.07,0.06,0.06,-0.12,11935.71,198.0,0.0,0.0,0.0,0.0
1776370366511013975,65240,0.0,0.3,0.024,0.3,0.1,-0.08,1.5,-1.56,1.94,-0.1,-0.0,-0.04,0.06,0.06,-0.19,11935.03,198.0,0.0,0.0,0.0,0.0
1776370366613320287,65340,0.02,0.1,0.004,0.2,-0.06,-0.1,1.5,-1.56,1.94,-0.09,-0.0,-0.05,-0.12,-0.12,-0.06,215.06,198.0,0.0,0.0,0.0,0.0
1776370366713571212,65441,0.016,0.2,0.004,0.3,-0.1,-0.04,1.5,-1.56,1.94,-0.1,0.02,-0.06,-0.06,-0.0,0.06,11935.03,200.0,0.0,0.0,0.0,0.0
1776370366814088679,65541,0.012,0.1,0.0,0.3,-0.02,-0.12,1.5,-1.56,1.94,-0.12,-0.0,-0.05,0.06,-0.06,0.0,236.33,200.0,0.0,0.0,0.0,0.0
1776370366912364386,65641,0.004,-0.1,0.0,1.0,-0.16,-0.02,1.5,-1.56,1.94,-0.12,-0.0,-0.07,-0.06,-0.12,0.12,235.3,199.0,0.0,0.0,0.0,0.0
1776370367014752328,65741,0.008,0.7,0.0,1.0,-0.12,-0.18,1.5,-1.56,1.94,-0.11,-0.0,-0.05,-0.0,0.06,0.0,210.77,199.0,0.0,0.0,0.0,0.0
1776370367112989738,65842,0.004,0.2,0.0,0.6,-0.14,-0.02,1.5,-1.56,1.94,-0.13,0.01,-0.08,0.06,-0.0,0.06,206.66,198.0,0.0,0.0,0.0,0.0
1776370367215466090,65942,0.0,0.7,0.0,0.9,-0.08,-0.14,1.5,-1.56,1.94,-0.11,-0.0,-0.07,-0.0,-0.12,0.0,214.03,202.0,0.0,0.0,0.0,0.0
1776370367313754038,66042,0.052,0.1,0.056,0.3,0.06,-0.14,1.5,-1.56,1.94,-0.1,-0.0,-0.03,0.19,-0.19,0.06,210.77,202.0,0.0,0.0,0.0,0.0
1776370367416252297,66143,0.0,0.5,0.0,1.2,0.04,0.06,1.5,-1.56,1.94,-0.11,-0.0,-0.04,-0.0,0.06,0.0,215.06,200.0,0.0,0.0,0.0,0.0
1776370367514454243,66243,0.024,1.2,0.0,0.3,0.04,0.04,1.5,-1.56,1.94,-0.12,-0.0,-0.05,0.06,-0.06,0.0,209.92,200.0,0.0,0.0,0.0,0.0
1776370367612677949,66342,0.0,0.1,0.0,1.2,0.08,-0.12,1.5,-1.56,1.94,-0.1,-0.01,-0.06,0.06,0.06,0.0,210.77,201.0,0.0,0.0,0.0,0.0
1776370367715148226,66442,0.016,0.1,0.0,1.2,-0.02,-0.02,1.5,-1.56,1.94,-0.11,-0.0,-0.06,-0.0,-0.0,0.0,210.77,196.0,0.0,0.0,0.0,0.0
1776370367817560966,66543,0.0,0.1,0.0,0.9,0.0,-0.08,1.5,-1.56,1.94,-0.11,0.01,-0.05,-0.0,-0.06,0.0,236.5,196.0,0.0,0.0,0.0,0.0
1776370367915875414,66642,0.0,0.1,0.0,1.4,-0.1,-0.16,1.5,-1.56,1.94,-0.12,-0.01,-0.06,-0.0,0.12,0.0,235.3,201.0,0.0,0.0,0.0,0.0
1776370368016078912,66742,0.004,0.2,0.0,0.7,-0.06,-0.14,1.5,-1.56,1.94,-0.11,-0.01,-0.03,0.06,0.06,-0.06,11936.57,199.0,0.0,0.0,0.0,0.0
1776370368116561842,66842,0.008,0.4,0.0,0.9,0.0,-0.08,1.5,-1.56,1.94,-0.12,-0.0,-0.05,0.12,0.12,0.0,232.21,199.0,0.0,0.0,0.0,0.0
1776370368214855956,66941,0.044,0.3,0.0,0.7,0.04,-0.02,1.5,-1.56,1.94,-0.1,-0.0,-0.07,0.06,0.06,-0.06,231.18,202.0,0.0,0.0,0.0,0.0
1776370368323227018,67041,0.0,0.4,0.048,0.2,-0.04,-0.12,1.5,-1.56,1.94,-0.14,0.02,-0.07,-0.0,-0.0,0.0,231.18,199.0,0.0,0.0,0.0,0.0
1776370368415570884,67142,0.0,1.0,0.028,0.5,-0.12,-0.1,1.5,-1.56,1.94,-0.12,0.02,-0.05,-0.0,-0.06,0.0,11936.06,200.0,0.0,0.0,0.0,0.0
1776370368517936197,67243,0.0,0.3,0.02,1.3,0.0,-0.1,1.5,-1.56,1.94,-0.11,-0.0,-0.05,0.06,0.12,0.0,235.47,200.0,0.0,0.0,0.0,0.0
1776370368616228219,67343,0.016,1.1,0.0,1.0,-0.14,0.04,1.5,-1.56,1.94,-0.08,-0.0,-0.05,-0.12,0.06,0.06,231.18,197.0,0.0,0.0,0.0,0.0
1776370368726648796,67443,0.0,0.6,0.012,1.1,0.06,0.02,1.5,-1.56,1.94,-0.12,0.01,-0.05,-0.0,-0.06,0.06,11934.68,202.0,0.0,0.0,0.0,0.0
1776370368818972810,67544,0.012,0.5,0.0,0.2,-0.06,0.0,1.5,-1.56,1.94,-0.11,-0.0,-0.05,0.06,-0.06,0.0,11936.4,202.0,0.0,0.0,0.0,0.0
1776370368927284038,67644,0.008,0.1,0.0,0.5,0.1,-0.1,1.5,-1.56,1.94,-0.13,0.02,-0.06,-0.0,-0.06,0.19,11934.51,204.0,0.0,0.0,0.0,0.0
1776370369017703427,67744,0.0,0.4,0.0,0.8,-0.2,-0.14,1.5,-1.56,1.94,-0.1,-0.0,-0.06,-0.0,-0.06,0.06,232.21,204.0,0.0,0.0,0.0,0.0
1776370369120059091,67845,0.0,0.5,0.008,0.6,-0.02,-0.08,1.5,-1.56,1.94,-0.12,0.01,-0.06,-0.06,-0.12,-0.12,231.18,202.0,0.0,0.0,0.0,0.0
1776370369218349150,67946,0.044,0.3,0.0,1.3,-0.14,0.0,1.5,-1.56,1.94,-0.09,-0.0,-0.06,-0.0,-0.06,-0.06,236.33,202.0,0.0,0.0,0.0,0.0
1776370369320766408,68046,0.052,0.7,0.0,1.0,0.08,0.04,1.5,-1.56,1.94,-0.13,-0.0,-0.07,-0.0,0.12,0.0,210.77,195.0,0.0,0.0,0.0,0.0
1776370369423161147,68147,0.036,0.0,0.032,0.3,-0.08,-0.14,1.5,-1.56,1.94,-0.11,-0.0,-0.04,-0.0,-0.12,-0.06,210.77,199.0,0.0,0.0,0.0,0.0
1776370369521492799,68247,0.0,0.6,0.0,0.1,0.02,-0.02,1.5,-1.56,1.94,-0.1,-0.0,-0.04,-0.12,-0.0,-0.06,210.77,199.0,0.0,0.0,0.0,0.0
1776370369619738709,68346,0.0,0.6,0.0,0.6,-0.08,-0.02,1.5,-1.56,1.94,-0.12,-0.0,-0.06,0.06,0.06,0.19,215.06,198.0,0.0,0.0,0.0,0.0
1776370369722171616,68446,0.0,0.7,0.0,1.3,-0.06,0.06,1.5,-1.56,1.94,-0.12,-0.0,-0.06,0.06,-0.0,-0.06,210.77,198.0,0.0,0.0,0.0,0.0
1776370369828402845,68546,0.0,0.9,0.0,1.0,-0.06,0.08,1.5,-1.56,1.94,-0.11,-0.0,-0.09,0.12,-0.19,0.0,11937.26,199.0,0.0,0.0,0.0,0.0
1776370369918744863,68646,0.0,0.1,0.0,0.2,-0.1,-0.04,1.5,-1.56,1.94,-0.12,-0.0,-0.05,-0.12,-0.06,0.0,228.1,200.0,0.0,0.0,0.0,0.0
1776370370021169750,68746,0.0,0.9,0.0,0.9,0.0,-0.1,1.5,-1.56,1.94,-0.12,-0.0,-0.07,-0.0,0.12,0.0,232.21,200.0,0.0,0.0,0.0,0.0
1776370370119480365,68846,0.0,0.0,0.0,0.5,0.25,-0.06,1.5,-1.56,1.94,-0.1,0.01,-0.06,0.06,-0.12,-0.12,236.5,200.0,0.0,0.0,0.0,0.0
1776370370219746124,68945,0.056,1.0,0.0,0.5,0.04,-0.02,1.5,-1.56,1.94,-0.11,-0.0,-0.05,-0.0,-0.0,0.06,11935.71,202.0,0.0,0.0,0.0,0.0
1776370370320178608,69045,0.0,0.4,0.0,0.3,0.14,0.14,1.5,-1.56,1.94,-0.12,-0.02,-0.09,0.06,-0.06,0.12,236.5,202.0,0.0,0.0,0.0,0.0
1776370370418476667,69145,0.0,0.1,0.0,0.8,0.0,0.04,1.5,-1.56,1.94,-0.11,-0.0,-0.1,-0.0,0.06,-0.06,232.21,196.0,0.0,0.0,0.0,0.0
1776370370520821275,69245,0.028,0.3,0.0,1.3,0.06,0.0,1.5,-1.56,1.94,-0.11,0.01,-0.07,0.12,-0.06,0.06,206.66,196.0,0.0,0.0,0.0,0.0
1776370370619157353,69345,0.02,0.2,0.0,1.2,0.14,-0.06,1.5,-1.56,1.94,-0.13,-0.0,-0.06,-0.06,-0.0,-0.19,210.77,197.0,0.0,0.0,0.0,0.0
1776370370721579389,69445,0.012,0.4,0.008,0.3,0.0,-0.12,1.5,-1.56,1.94,-0.1,-0.0,-0.06,-0.12,0.19,0.06,210.94,200.0,0.0,0.0,0.0,0.0
1776370370819872744,69545,0.012,0.1,0.0,0.3,-0.02,-0.16,1.5,-1.56,1.94,-0.1,-0.0,-0.05,0.12,0.06,0.12,210.94,200.0,0.0,0.0,0.0,0.0
1776370370922277317,69646,0.0,0.3,0.0,1.1,-0.02,-0.1,1.5,-1.56,1.94,-0.11,-0.0,-0.08,0.06,0.06,0.0,210.77,199.0,0.0,0.0,0.0,0.0
1776370371020574616,69746,0.0,0.4,0.0,1.4,0.02,0.02,1.5,-1.56,1.94,-0.12,-0.01,-0.07,0.06,-0.0,0.06,209.74,200.0,0.0,0.0,0.0,0.0
1776370371122973726,69847,0.0,1.2,0.0,1.0,0.02,-0.14,1.5,-1.56,1.94,-0.1,-0.01,-0.06,-0.06,0.06,0.0,213.86,200.0,0.0,0.0,0.0,0.0
1776370371221284081,69947,0.0,0.5,0.0,0.9,-0.06,0.04,1.5,-1.56,1.94,-0.11,0.01,-0.09,-0.0,-0.19,0.0,209.74,199.0,0.0,0.0,0.0,0.0
1776370371323676709,70047,0.048,0.1,0.0,1.1,0.18,-0.2,1.5,-1.56,1.94,-0.1,0.01,-0.07,0.06,-0.0,0.06,205.63,201.0,0.0,0.0,0.0,0.0
1776370371421942286,70148,0.036,0.2,0.0,1.0,0.02,-0.04,1.5,-1.56,1.94,-0.12,0.02,-0.06,-0.19,0.19,0.06,232.21,201.0,0.0,0.0,0.0,0.0
1776370371524344728,70248,0.0,1.0,0.028,0.3,-0.08,-0.18,1.5,-1.56,1.94,-0.08,0.01,-0.07,-0.19,-0.06,0.0,232.38,199.0,0.0,0.0,0.0,0.0
1776370371622642213,70347,0.0,1.0,0.008,0.6,-0.06,0.0,1.5,-1.56,1.94,-0.1,-0.0,-0.07,0.19,-0.12,0.0,235.47,199.0,0.0,0.0,0.0,0.0
1776370371725087342,70447,0.0,1.1,0.0,1.0,0.02,-0.14,1.5,-1.56,1.94,-0.09,-0.0,-0.05,0.06,0.19,0.0,236.5,199.0,0.0,0.0,0.0,0.0
1776370371823382568,70548,0.0,0.5,0.0,0.2,0.0,-0.02,1.5,-1.56,1.94,-0.1,-0.01,-0.07,0.06,-0.0,0.0,215.06,200.0,0.0,0.0,0.0,0.0
1776370371931739666,70648,0.004,0.2,0.004,0.4,0.1,-0.18,1.5,-1.56,1.94,-0.13,-0.0,-0.07,0.06,0.06,0.06,236.5,200.0,0.0,0.0,0.0,0.0
1776370372024083292,70748,0.0,-0.1,0.0,0.5,0.12,0.0,1.5,-1.56,1.94,-0.11,-0.0,-0.07,-0.06,-0.06,0.0,235.3,200.0,0.0,0.0,0.0,0.0
1776370372122352128,70848,0.0,0.1,0.0,0.3,0.12,-0.12,1.5,-1.56,1.94,-0.11,0.01,-0.05,-0.0,0.19,0.0,209.74,201.0,0.0,0.0,0.0,0.0
1776370372224785534,70948,0.0,0.6,0.0,1.3,-0.02,-0.08,1.5,-1.56,1.94,-0.11,-0.0,-0.09,-0.12,0.06,0.06,236.5,201.0,0.0,0.0,0.0,0.0
1776370372323079667,71048,0.048,0.3,0.0,1.3,-0.12,0.0,1.5,-1.56,1.94,-0.12,-0.0,-0.08,0.06,0.12,0.06,236.5,197.0,0.0,0.0,0.0,0.0
1776370372425527240,71148,0.032,0.1,0.0,0.1,-0.04,-0.02,1.5,-1.56,1.94,-0.1,-0.0,-0.06,0.06,0.06,-0.12,232.38,195.0,0.0,0.0,0.0,0.0
1776370372523738149,71247,0.0,0.0,0.0,0.2,-0.16,-0.1,1.5,-1.56,1.94,-0.1,-0.0,-0.07,-0.12,0.06,0.0,231.18,195.0,0.0,0.0,0.0,0.0
1776370372622052209,71347,0.0,0.5,0.0,1.2,0.1,0.0,1.5,-1.56,1.94,-0.11,-0.0,-0.05,0.06,0.12,0.0,235.47,197.0,0.0,0.0,0.0,0.0
1776370372724483689,71447,0.012,0.3,0.0,1.0,0.12,-0.16,1.5,-1.56,1.94,-0.13,-0.0,-0.06,0.12,0.06,0.0,231.18,199.0,0.0,0.0,0.0,0.0
1776370372822787118,71546,0.0,0.0,0.0,0.7,0.04,-0.04,1.5,-1.56,1.94,-0.1,-0.0,-0.08,-0.06,-0.12,0.06,232.21,199.0,0.0,0.0,0.0,0.0
1776370372925190061,71647,0.012,0.1,0.0,1.0,0.0,0.0,1.5,-1.56,1.94,-0.09,-0.01,-0.07,0.06,0.25,0.12,232.21,195.0,0.0,0.0,0.0,0.0
1776370373023494175,71747,0.0,1.0,0.0,0.3,-0.08,-0.04,1.5,-1.56,1.94,-0.14,-0.0,-0.08,0.06,-0.0,0.0,235.3,195.0,0.0,0.0,0.0,0.0
1776370373121787420,71846,0.0,1.1,0.0,1.0,0.1,-0.16,1.5,-1.56,1.94,-0.13,-0.0,-0.07,0.12,-0.0,-0.19,236.5,199.0,0.0,0.0,0.0,0.0
1776370373224155343,71946,0.0,0.4,0.0,1.1,0.02,-0.1,1.5,-1.56,1.94,-0.11,0.02,-0.03,-0.0,-0.06,0.06,231.18,198.0,0.0,0.0,0.0,0.0
1776370373322502829,72047,0.052,0.3,0.0,1.2,-0.18,-0.02,1.5,-1.56,1.94,-0.12,-0.01,-0.03,0.06,-0.12,0.0,232.38,198.0,0.0,0.0,0.0,0.0
1776370373420764313,72146,0.036,0.4,0.0,0.6,0.02,-0.08,1.5,-1.56,1.94,-0.12,-0.0,-0.05,0.06,-0.06,0.12,231.18,199.0,0.0,0.0,0.0,0.0
1776370373523149422,72246,0.024,0.2,0.0,0.6,0.04,-0.04,1.5,-1.56,1.94,-0.1,-0.0,-0.04,0.06,-0.12,-0.12,210.77,202.0,0.0,0.0,0.0,0.0
1776370373621455759,72346,0.012,0.4,0.0,1.1,-0.06,-0.12,1.5,-1.56,1.94,-0.11,0.01,-0.05,-0.0,-0.0,-0.12,236.5,202.0,0.0,0.0,0.0,0.0
1776370373723895943,72445,0.012,0.4,0.0,0.9,-0.06,0.1,1.5,-1.56,1.94,-0.12,-0.01,-0.03,-0.06,-0.06,0.19,236.5,201.0,0.0,0.0,0.0,0.0
1776370373822225965,72545,0.012,0.6,0.0,0.4,-0.06,-0.16,1.5,-1.56,1.94,-0.12,-0.0,-0.06,-0.06,-0.0,-0.06,213.86,201.0,0.0,0.0,0.0,0.0
1776370373920461505,72645,0.012,0.2,0.0,1.3,-0.02,-0.06,1.5,-1.56,1.94,-0.13,0.02,-0.02,0.06,-0.12,0.0,232.21,196.0,0.0,0.0,0.0,0.0
1776370374022892244,72745,0.0,0.1,0.0,1.1,-0.02,-0.2,1.5,-1.56,1.94,-0.11,-0.0,-0.04,-0.0,-0.12,-0.06,235.47,196.0,0.0,0.0,0.0,0.0
1776370374125292020,72846,0.0,1.0,0.0,0.3,0.0,-0.21,1.5,-1.56,1.94,-0.09,0.01,-0.04,-0.06,-0.25,0.0,210.94,196.0,0.0,0.0,0.0,0.0
1776370374223561153,72946,0.052,0.3,0.0,1.0,0.02,-0.12,1.5,-1.56,1.94,-0.12,-0.0,-0.04,0.06,0.12,0.0,232.21,199.0,0.0,0.0,0.0,0.0
1776370374325978762,73047,0.0,0.4,0.0,0.9,0.12,0.14,1.5,-1.56,1.94,-0.11,-0.0,-0.05,0.06,-0.0,-0.12,11936.57,199.0,0.0,0.0,0.0,0.0
1776370374424271821,73147,0.0,0.2,0.0,1.0,-0.04,-0.02,1.5,-1.56,1.94,-0.11,-0.0,-0.06,-0.0,0.06,0.06,143.03,199.0,0.0,0.0,0.0,0.0
1776370374522642974,73247,0.028,0.1,0.024,0.5,0.0,-0.08,1.5,-1.56,1.94,-0.14,-0.0,-0.06,0.06,-0.06,0.06,11934.0,191.0,0.0,0.0,0.0,0.0
1776370374624990786,73347,0.0,0.2,0.008,0.5,0.04,-0.1,1.5,-1.56,1.94,-0.1,-0.01,-0.04,0.12,-0.06,-0.12,198.94,187.0,0.0,0.0,0.0,0.0
1776370374735351362,73448,0.0,0.7,0.008,0.5,0.12,-0.08,1.5,-1.56,1.94,-0.14,-0.0,-0.05,0.06,-0.12,-0.06,11933.66,193.0,0.0,0.0,0.0,0.0
1776370374825706714,73548,0.012,0.1,0.0,0.5,0.12,0.08,1.5,-1.56,1.94,-0.11,-0.0,-0.05,-0.0,-0.12,-0.06,181.1,193.0,0.0,0.0,0.0,0.0
1776370374928114212,73648,0.0,0.5,0.004,-0.1,-0.06,0.0,1.5,-1.56,1.94,-0.13,0.01,-0.05,0.06,-0.0,0.0,172.7,193.0,0.0,0.0,0.0,0.0
1776370375026425623,73748,0.004,-0.1,0.0,0.9,0.06,0.0,1.5,-1.56,1.94,-0.1,-0.0,-0.06,-0.0,-0.12,-0.06,169.44,193.0,0.0,0.0,0.0,0.0
1776370375134714164,73849,0.004,0.2,0.0,1.1,0.1,0.0,1.5,-1.56,1.94,-0.11,-0.0,-0.05,0.12,0.12,0.19,160.18,199.0,0.0,0.0,0.0,0.0
1776370375227092328,73949,0.0,0.9,0.0,0.9,-0.02,-0.12,1.5,-1.56,1.94,-0.13,-0.0,-0.08,-0.0,-0.0,-0.06,160.01,199.0,0.0,0.0,0.0,0.0
1776370375325338589,74049,0.052,0.1,0.048,0.3,0.04,-0.02,1.5,-1.56,1.94,-0.11,-0.0,-0.02,0.12,0.06,0.0,172.7,194.0,0.0,0.0,0.0,0.0
1776370375427767958,74149,0.0,0.7,0.0,1.0,0.02,-0.08,1.5,-1.56,1.94,-0.11,-0.0,-0.04,-0.06,-0.0,0.0,172.7,196.0,0.0,0.0,0.0,0.0
1776370375526055313,74249,0.0,1.1,0.02,0.7,-0.06,0.1,1.5,-1.56,1.94,-0.13,-0.0,-0.05,-0.06,-0.0,0.0,168.58,196.0,0.0,0.0,0.0,0.0
1776370375628485293,74349,0.024,0.2,0.0,1.0,0.0,-0.02,1.5,-1.56,1.94,-0.1,-0.0,-0.05,-0.0,0.25,0.06,160.18,193.0,0.0,0.0,0.0,0.0
1776370375726803056,74449,0.0,0.9,0.0,0.2,-0.06,0.02,1.5,-1.56,1.94,-0.11,-0.01,-0.07,-0.0,-0.0,0.0,156.07,192.0,0.0,0.0,0.0,0.0
1776370375829198684,74549,0.008,0.2,0.0,0.9,0.04,-0.02,1.5,-1.56,1.94,-0.1,-0.0,-0.07,0.12,-0.0,0.0,160.18,192.0,0.0,0.0,0.0,0.0
1776370375927572707,74649,0.012,0.4,0.0,0.9,-0.04,-0.06,1.5,-1.56,1.94,-0.1,-0.0,-0.04,-0.0,0.06,0.06,160.18,193.0,0.0,0.0,0.0,0.0
1776370376027726797,74748,0.0,0.8,0.0,0.8,-0.02,-0.1,1.5,-1.56,1.94,-0.13,0.02,-0.05,-0.0,-0.0,0.0,11933.31,193.0,0.0,0.0,0.0,0.0
1776370376128216245,74848,0.0,1.0,0.0,0.5,-0.1,-0.04,1.5,-1.56,1.94,-0.1,-0.0,-0.06,-0.0,0.06,0.0,151.78,193.0,0.0,0.0,0.0,0.0
1776370376226508581,74948,0.056,0.3,0.0,0.7,0.04,-0.04,1.5,-1.56,1.94,-0.1,-0.0,-0.06,-0.0,-0.12,0.0,156.07,193.0,0.0,0.0,0.0,0.0
1776370376324797529,75047,0.048,0.1,0.0,0.8,0.08,-0.14,1.5,-1.56,1.94,-0.12,-0.0,-0.05,0.12,-0.19,-0.06,152.98,193.0,0.0,0.0,0.0,0.0
1776370376427188249,75148,0.0,0.5,0.028,0.1,-0.1,-0.1,1.5,-1.56,1.94,-0.11,-0.0,-0.04,0.06,-0.0,0.12,11937.26,191.0,0.0,0.0,0.0,0.0
1776370376525455974,75248,0.0,1.2,0.028,0.2,0.0,-0.1,1.5,-1.56,1.94,-0.11,-0.0,-0.02,0.12,-0.06,-0.06,176.82,197.0,0.0,0.0,0.0,0.0
1776370376627885102,75348,0.0,0.9,0.0,0.9,0.12,-0.04,1.5,-1.56,1.94,-0.1,0.01,-0.07,0.06,-0.19,-0.12,214.55,197.0,0.0,0.0,0.0,0.0
1776370376726210680,75448,0.012,-0.1,0.0,1.2,-0.1,-0.12,1.5,-1.56,1.94,-0.11,-0.0,-0.04,0.06,0.06,0.12,146.98,196.0,0.0,0.0,0.0,0.0
1776370376824506109,75547,0.004,0.3,0.0,0.8,0.06,-0.1,1.5,-1.56,1.94,-0.14,-0.0,-0.03,0.12,0.06,-0.06,151.26,198.0,0.0,0.0,0.0,0.0
1776370376934786758,75646,0.0,0.9,0.0,0.7,0.04,-0.1,1.5,-1.56,1.94,-0.11,-0.0,-0.05,-0.12,-0.12,0.0,11935.37,202.0,0.0,0.0,0.0,0.0
1776370377027218478,75746,0.0,-0.3,0.0,0.9,0.0,-0.04,1.5,-1.56,1.94,-0.11,-0.01,-0.03,-0.0,0.19,0.0,11935.2,202.0,0.0,0.0,0.0,0.0
1776370377135533446,75846,0.0,0.5,0.0,0.9,-0.02,-0.04,1.5,-1.56,1.94,-0.11,-0.0,-0.04,-0.12,-0.0,0.12,11933.48,200.0,0.0,0.0,0.0,0.0
1776370377233800171,75947,0.0,0.3,0.0,1.2,-0.12,-0.18,1.5,-1.56,1.94,-0.11,-0.0,-0.02,0.06,-0.0,0.06,11936.74,200.0,0.0,0.0,0.0,0.0
1776370377328310444,76047,0.048,0.3,0.028,0.9,-0.12,-0.04,1.5,-1.56,1.94,-0.09,-0.0,-0.05,0.12,-0.0,0.0,11934.17,198.0,0.0,0.0,0.0,0.0
1776370377426580317,76146,0.0,0.2,0.0,1.1,-0.1,-0.04,1.5,-1.56,1.94,-0.1,0.02,-0.06,-0.0,0.12,0.0,228.1,198.0,0.0,0.0,0.0,0.0
