timestamp_ns,time_ms,voltage_left,current_left_ma,voltage_right,current_right_ma,motor_current_left,motor_current_right,euler_x,euler_y,euler_z,acc_lin_x,acc_lin_y,acc_lin_z,gyro_x,gyro_y,gyro_z,sonar_mm,tof_mm,rpm_left,rpm_right,rotations_left,rotations_right
1776357576534614077,1912,0.0,0.1,0.0,0.5,-0.02,-0.16,-0.0,-3.56,3.69,0.0,0.01,-0.38,0.06,-0.12,-0.12,222.26,235.0,0.0,0.0,0.0,0.0
1776357576632869274,2013,0.0,0.1,0.0,1.1,-0.14,-0.18,-0.0,-3.56,3.69,0.04,-0.04,-0.39,0.06,-0.19,0.06,195.34,224.0,0.0,0.0,0.0,0.0
1776357576735330597,2113,0.004,0.3,0.0,0.9,-0.06,-0.18,-0.0,-3.56,3.69,0.02,0.02,-0.38,-0.06,-0.06,-0.12,210.26,224.0,0.0,0.0,0.0,0.0
1776357576833613501,2212,0.0,0.3,0.0,0.9,-0.18,-0.12,-0.0,-3.56,3.69,0.02,-0.0,-0.39,-0.12,0.31,0.0,203.06,227.0,0.0,0.0,0.0,0.0
1776357576935984926,2312,0.0,0.1,0.0,1.1,-0.12,0.08,-0.0,-3.56,3.69,0.03,-0.0,-0.38,0.06,-0.0,0.06,207.86,231.0,0.0,0.0,0.0,0.0
1776357577034336928,2412,0.004,0.1,0.0,1.2,0.06,-0.08,-0.0,-3.56,3.69,0.01,0.01,-0.39,0.06,-0.12,0.06,215.75,231.0,0.0,0.0,0.0,0.0
1776357577132618733,2511,0.0,0.3,0.0,0.3,0.08,-0.04,-0.0,-3.56,3.69,0.03,-0.0,-0.38,0.06,-0.0,0.0,231.18,232.0,0.0,0.0,0.0,0.0
1776357577235048079,2612,0.008,0.4,0.0,0.4,0.02,0.04,-0.0,-3.56,3.69,0.0,-0.03,-0.36,-0.0,-0.06,0.06,221.75,232.0,0.0,0.0,0.0,0.0
1776357577333363666,2712,0.0,0.2,0.0,0.8,0.0,0.0,-0.0,-3.56,3.69,-0.01,0.03,-0.39,0.06,-0.19,0.12,246.96,232.0,0.0,0.0,0.0,0.0
1776357577435766194,2812,0.0,-0.1,0.0,1.0,-0.08,-0.1,-0.0,-3.56,3.69,0.0,-0.0,-0.39,-0.06,0.06,0.06,256.39,234.0,0.0,0.0,0.0,0.0
1776357577534067391,2912,0.0,0.2,0.0,0.9,-0.14,-0.12,-0.0,-3.56,3.69,0.01,-0.01,-0.38,-0.12,0.12,-0.06,231.7,235.0,0.0,0.0,0.0,0.0
1776357577636484291,3012,0.0,0.4,0.0,1.2,0.04,0.18,-0.0,-3.56,3.69,0.01,-0.0,-0.39,-0.0,0.19,0.0,247.65,235.0,0.0,0.0,0.0,0.0
1776357577734788432,3112,0.0,0.2,0.0,0.0,0.0,-0.12,-0.0,-3.56,3.69,0.01,0.01,-0.37,0.19,-0.12,-0.06,235.3,234.0,0.0,0.0,0.0,0.0
1776357577837187331,3213,0.004,0.0,0.0,0.3,0.06,-0.02,-0.0,-3.56,3.69,0.02,-0.0,-0.37,-0.12,-0.06,0.06,216.78,234.0,0.0,0.0,0.0,0.0
1776357577935521604,3313,0.004,0.2,0.0,0.5,0.14,-0.1,-0.0,-3.56,3.69,0.03,-0.0,-0.41,-0.0,-0.19,-0.06,210.26,233.0,0.0,0.0,0.0,0.0
1776357578033821447,3412,0.0,0.2,0.0,1.0,-0.12,-0.08,-0.0,-3.56,3.69,0.03,0.01,-0.35,-0.06,0.12,0.0,210.26,230.0,0.0,0.0,0.0,0.0
1776357578136186407,3513,0.008,-0.1,0.0,0.5,-0.08,-0.16,-0.0,-3.56,3.69,0.03,-0.0,-0.38,-0.0,0.06,0.0,202.54,230.0,0.0,0.0,0.0,0.0
1776357578234539822,3613,0.0,0.5,0.0,0.8,0.0,-0.12,-0.0,-3.56,3.69,0.02,-0.01,-0.36,-0.06,0.06,0.0,206.14,229.0,0.0,0.0,0.0,0.0
1776357578336928209,3714,0.004,-0.1,0.0,0.5,0.02,-0.16,-0.0,-3.56,3.69,0.0,0.01,-0.4,-0.0,0.19,-0.06,194.65,232.0,0.0,0.0,0.0,0.0
1776357578445311188,3814,0.0,0.4,0.0,0.8,0.0,0.02,-0.0,-3.56,3.69,0.05,-0.0,-0.39,0.06,0.19,-0.06,198.94,232.0,0.0,0.0,0.0,0.0
1776357578537640453,3914,0.004,0.1,0.0,0.8,-0.04,-0.1,-0.0,-3.56,3.69,0.0,-0.0,-0.39,-0.12,-0.12,-0.06,210.94,235.0,0.0,0.0,0.0,0.0
1776357578640050804,4015,0.0,0.3,0.0,0.0,0.02,-0.06,-0.0,-3.56,3.69,0.02,-0.0,-0.36,-0.0,0.06,0.06,262.91,235.0,0.0,0.0,0.0,0.0
1776357578738353641,4115,0.0,0.3,0.0,0.6,-0.04,0.06,-0.0,-3.56,3.69,0.01,-0.0,-0.39,-0.06,-0.0,-0.19,272.34,235.0,0.0,0.0,0.0,0.0
1776357578836677869,4215,0.004,0.1,0.0,0.9,-0.16,-0.08,-0.0,-3.56,3.69,0.0,0.01,-0.39,-0.19,-0.06,-0.06,268.23,236.0,0.0,0.0,0.0,0.0
1776357578939051014,4315,0.0,0.1,0.0,0.8,0.02,-0.02,-0.0,-3.56,3.69,0.03,0.01,-0.39,-0.06,0.06,-0.06,259.48,236.0,0.0,0.0,0.0,0.0
1776357579037374233,4415,0.004,0.4,0.0,0.9,-0.06,0.02,-0.0,-3.56,3.69,0.0,-0.0,-0.37,-0.06,0.12,0.0,272.0,239.0,0.0,0.0,0.0,0.0
1776357579135618035,4514,0.0,0.4,0.0,1.0,-0.08,0.0,-0.0,-3.56,3.69,0.03,0.02,-0.38,-0.12,-0.06,-0.12,264.62,239.0,0.0,0.0,0.0,0.0
1776357579238101268,4614,0.0,0.4,0.0,0.7,-0.06,-0.16,-0.0,-3.56,3.69,0.03,-0.0,-0.37,0.12,-0.0,0.06,280.23,239.0,0.0,0.0,0.0,0.0
1776357579336405204,4714,0.0,0.1,0.0,0.5,0.02,-0.14,-0.0,-3.56,3.69,0.01,-0.0,-0.39,-0.0,-0.06,0.0,219.18,240.0,0.0,0.0,0.0,0.0
1776357579438810967,4814,0.0,0.4,0.0,0.7,0.1,-0.08,-0.0,-3.56,3.69,0.0,-0.01,-0.36,-0.0,-0.19,0.0,211.46,234.0,0.0,0.0,0.0,0.0
1776357579541212712,4915,0.0,0.2,0.0,1.2,0.12,0.06,-0.0,-3.56,3.69,0.02,0.02,-0.37,-0.0,-0.31,0.0,203.06,234.0,0.0,0.0,0.0,0.0
1776357579639513796,5016,0.0,0.5,0.0,0.5,-0.06,-0.12,-0.0,-3.56,3.69,0.02,-0.01,-0.4,-0.0,-0.12,0.0,209.92,234.0,0.0,0.0,0.0,0.0
1776357579737779674,5116,0.0,0.0,0.0,0.6,0.06,-0.12,-0.0,-3.56,3.69,0.01,-0.01,-0.37,-0.06,-0.06,0.0,206.66,232.0,0.0,0.0,0.0,0.0
1776357579840236534,5216,0.0,0.6,0.0,1.0,-0.06,-0.04,-0.0,-3.56,3.69,0.04,0.04,-0.37,-0.06,-0.12,0.06,206.83,232.0,0.0,0.0,0.0,0.0
1776357579938523951,5316,0.0,0.3,0.0,1.2,-0.04,0.02,-0.0,-3.56,3.69,0.03,-0.02,-0.4,-0.0,0.06,0.06,206.14,234.0,0.0,0.0,0.0,0.0
1776357580040917051,5416,0.0,0.1,0.0,0.9,0.25,-0.08,-0.0,-3.56,3.69,0.0,-0.0,-0.4,0.06,0.06,-0.12,198.94,234.0,0.0,0.0,0.0,0.0
1776357580139205746,5516,0.0,0.8,0.0,0.2,0.06,0.06,-0.0,-3.56,3.69,0.04,-0.0,-0.36,0.06,-0.0,0.06,198.94,232.0,0.0,0.0,0.0,0.0
1776357580241659142,5617,0.0,0.1,0.0,0.9,0.04,-0.06,-0.0,-3.56,3.69,0.01,-0.0,-0.39,0.06,-0.0,-0.06,206.31,233.0,0.0,0.0,0.0,0.0
1776357580344061461,5718,0.0,0.5,0.0,0.3,0.02,0.04,-0.0,-3.56,3.69,0.01,0.01,-0.37,-0.06,-0.12,-0.06,203.06,233.0,0.0,0.0,0.0,0.0
1776357580442365046,5818,0.004,0.4,0.0,0.9,-0.02,-0.02,-0.0,-3.56,3.69,0.02,0.02,-0.4,0.06,-0.0,0.06,198.94,234.0,0.0,0.0,0.0,0.0
1776357580540682743,5917,0.0,0.9,0.0,0.7,-0.02,-0.14,-0.0,-3.56,3.69,0.03,-0.02,-0.39,-0.12,0.12,0.0,198.94,235.0,0.0,0.0,0.0,0.0
1776357580643075061,6017,0.0,0.0,0.0,1.0,-0.02,-0.04,-0.0,-3.56,3.69,0.01,-0.0,-0.39,0.12,0.12,0.12,198.94,235.0,0.0,0.0,0.0,0.0
1776357580741381738,6117,0.004,0.0,0.0,0.9,-0.06,0.02,-0.0,-3.56,3.69,0.02,0.01,-0.35,0.06,0.12,0.06,219.18,233.0,0.0,0.0,0.0,0.0
1776357580839693898,6216,0.004,0.3,0.0,0.3,0.0,-0.04,-0.0,-3.56,3.69,0.04,-0.01,-0.4,0.06,-0.19,0.06,228.95,233.0,0.0,0.0,0.0,0.0
1776357580942148665,6317,0.0,0.5,0.0,0.9,0.0,-0.02,-0.0,-3.56,3.69,0.0,-0.0,-0.38,-0.0,-0.19,0.0,198.94,233.0,0.0,0.0,0.0,0.0
1776357581040406999,6417,0.0,-0.1,0.0,1.1,0.0,-0.02,-0.0,-3.56,3.69,0.01,-0.03,-0.36,0.12,-0.06,0.06,205.63,232.0,0.0,0.0,0.0,0.0
1776357581142779957,6517,0.0,0.3,0.0,0.7,-0.06,-0.02,-0.0,-3.56,3.69,0.0,0.01,-0.4,0.12,-0.19,0.0,210.43,232.0,0.0,0.0,0.0,0.0
1776357581241081016,6617,0.004,0.5,0.0,0.8,-0.1,0.14,-0.0,-3.56,3.69,0.0,0.06,-0.34,0.12,0.06,0.0,194.82,230.0,0.0,0.0,0.0,0.0
1776357581349571600,6717,0.0,0.7,0.0,1.1,0.0,-0.1,-0.0,-3.56,3.69,0.01,-0.03,-0.4,0.06,-0.25,-0.06,213.86,225.0,0.0,0.0,0.0,0.0
1776357581441832167,6816,0.0,0.2,0.0,1.2,0.04,-0.02,-0.0,-3.56,3.69,-0.01,-0.01,-0.39,-0.06,0.06,-0.06,205.46,225.0,0.0,0.0,0.0,0.0
1776357581540126966,6916,0.0,1.1,0.0,0.3,-0.02,-0.04,-0.0,-3.56,3.69,0.02,-0.0,-0.36,0.12,0.06,0.0,202.37,229.0,0.0,0.0,0.0,0.0
1776357581642546871,7016,0.0,0.6,0.0,0.8,-0.04,-0.23,-0.0,-3.56,3.69,0.02,0.01,-0.39,0.06,-0.19,0.0,203.06,231.0,0.0,0.0,0.0,0.0
1776357581740849096,7115,0.0,0.3,0.0,0.6,0.06,-0.02,-0.0,-3.56,3.69,0.0,-0.01,-0.39,-0.0,-0.0,0.12,198.94,231.0,0.0,0.0,0.0,0.0
1776357581839130746,7215,0.0,0.2,0.0,1.2,-0.08,0.02,-0.0,-3.56,3.69,0.0,-0.02,-0.39,0.19,-0.0,0.12,198.94,232.0,0.0,0.0,0.0,0.0
1776357581941545836,7315,0.0,0.2,0.0,1.0,-0.1,-0.02,-0.0,-3.56,3.69,0.01,0.02,-0.4,0.06,-0.06,0.06,197.22,229.0,0.0,0.0,0.0,0.0
1776357582039854959,7415,0.0,0.3,0.0,0.4,-0.16,-0.06,-0.0,-3.56,3.69,-0.01,-0.02,-0.37,-0.06,0.12,0.0,198.25,229.0,0.0,0.0,0.0,0.0
1776357582142226197,7515,0.0,0.7,0.0,0.5,0.06,0.04,-0.0,-3.56,3.69,0.01,-0.0,-0.39,0.06,-0.12,0.06,198.25,230.0,0.0,0.0,0.0,0.0
1776357582240569537,7615,0.0,0.2,0.0,0.6,-0.04,0.23,-0.0,-3.56,3.69,0.0,0.01,-0.39,-0.0,-0.0,-0.06,193.11,231.0,0.0,0.0,0.0,0.0
1776357582338866818,7715,0.0,0.5,0.0,0.9,0.0,0.0,-0.0,-3.56,3.69,0.03,-0.02,-0.38,-0.06,-0.06,0.0,194.14,231.0,0.0,0.0,0.0,0.0
1776357582441278929,7815,0.004,0.2,0.0,1.0,-0.1,-0.08,-0.0,-3.56,3.69,0.0,-0.01,-0.39,0.06,-0.25,-0.06,194.31,229.0,0.0,0.0,0.0,0.0
1776357582539553580,7916,0.0,0.1,0.0,1.3,-0.02,-0.04,-0.0,-3.56,3.69,0.04,0.01,-0.39,-0.06,0.06,-0.06,198.43,229.0,0.0,0.0,0.0,0.0
1776357582642005101,8015,0.0,0.3,0.0,1.1,0.0,-0.12,-0.0,-3.56,3.69,0.04,-0.0,-0.4,-0.06,-0.0,-0.06,198.25,228.0,0.0,0.0,0.0,0.0
1776357582744396210,8116,0.0,0.3,0.0,0.6,0.02,-0.02,-0.0,-3.56,3.69,0.02,-0.0,-0.4,-0.0,-0.12,0.0,197.22,229.0,0.0,0.0,0.0,0.0
1776357582842706956,8217,0.0,1.0,0.0,0.2,-0.1,0.0,-0.0,-3.56,3.69,0.03,-0.0,-0.39,-0.06,0.06,-0.06,198.25,229.0,0.0,0.0,0.0,0.0
1776357582940940659,8317,0.0,0.0,0.0,1.0,-0.06,0.14,-0.0,-3.56,3.69,0.0,0.02,-0.38,0.06,-0.06,0.06,198.25,230.0,0.0,0.0,0.0,0.0
1776357583043384195,8417,0.0,0.0,0.0,1.2,-0.08,-0.08,-0.0,-3.56,3.69,0.01,-0.0,-0.38,-0.0,-0.06,0.06,198.25,230.0,0.0,0.0,0.0,0.0
1776357583141721765,8517,0.0,0.4,0.0,1.1,0.08,-0.16,-0.0,-3.56,3.69,0.01,-0.0,-0.38,-0.06,0.06,0.0,198.25,230.0,0.0,0.0,0.0,0.0
1776357583244128182,8617,0.0,0.1,0.0,1.3,0.0,-0.04,-0.0,-3.56,3.69,0.0,0.01,-0.38,0.06,0.12,0.0,198.25,229.0,0.0,0.0,0.0,0.0
1776357583342403766,8717,0.0,0.1,0.0,0.1,-0.02,-0.06,-0.0,-3.56,3.69,0.02,-0.01,-0.39,-0.0,-0.06,0.06,198.25,229.0,0.0,0.0,0.0,0.0
1776357583444837167,8818,0.0,0.0,0.0,0.4,0.02,-0.04,-0.0,-3.56,3.69,-0.01,-0.01,-0.37,0.06,-0.06,0.0,218.15,230.0,0.0,0.0,0.0,0.0
1776357583543070212,8918,0.0,0.2,0.0,0.3,0.02,-0.12,-0.0,-3.56,3.69,0.04,-0.01,-0.38,-0.0,-0.0,0.0,198.43,227.0,0.0,0.0,0.0,0.0
1776357583645536114,9019,0.004,0.0,0.0,0.9,0.02,0.04,-0.0,-3.56,3.69,0.03,0.03,-0.39,0.06,-0.0,0.12,213.35,227.0,0.0,0.0,0.0,0.0
1776357583754024107,9119,0.0,0.2,0.0,0.9,0.0,0.0,-0.0,-3.56,3.69,-0.01,-0.0,-0.4,0.06,-0.06,-0.06,199.63,224.0,0.0,0.0,0.0,0.0
1776357583846245451,9220,0.0,0.2,0.0,1.0,-0.02,-0.1,-0.0,-3.56,3.69,0.04,-0.03,-0.4,0.06,-0.06,-0.06,199.63,223.0,0.0,0.0,0.0,0.0
1776357583948653350,9320,0.0,0.4,0.0,0.3,0.0,-0.06,-0.0,-3.56,3.69,-0.01,-0.02,-0.4,0.06,0.19,0.0,207.34,223.0,0.0,0.0,0.0,0.0
1776357584046950980,9420,0.0,0.9,0.0,0.2,0.0,-0.02,-0.0,-3.56,3.69,0.02,-0.0,-0.41,0.06,-0.0,-0.06,217.98,224.0,0.0,0.0,0.0,0.0
1776357584155310368,9520,0.0,0.1,0.004,0.3,0.04,-0.1,-0.0,-3.56,3.69,0.01,-0.04,-0.37,0.06,0.31,-0.12,210.26,224.0,0.0,0.0,0.0,0.0
1776357584247649179,9620,0.0,0.2,0.0,0.2,-0.08,-0.1,-0.0,-3.56,3.69,0.0,-0.0,-0.37,-0.0,-0.06,0.06,210.26,224.0,0.0,0.0,0.0,0.0
1776357584346003467,9720,0.0,0.3,0.0,1.0,0.0,0.02,-0.0,-3.56,3.69,0.0,0.01,-0.4,-0.0,-0.06,0.12,214.38,226.0,0.0,0.0,0.0,0.0
1776357584448369398,9820,0.0,0.1,0.0,1.0,-0.18,-0.06,-0.0,-3.56,3.69,0.02,-0.03,-0.38,0.06,-0.0,0.06,210.26,225.0,0.0,0.0,0.0,0.0
1776357584546688758,9920,0.0,0.2,0.0,0.8,-0.06,0.02,-0.0,-3.56,3.69,0.02,-0.0,-0.41,0.12,-0.12,0.0,205.46,225.0,0.0,0.0,0.0,0.0
1776357584644998432,10019,0.0,0.2,0.0,1.0,-0.06,0.0,-0.0,-3.56,3.69,0.0,-0.0,-0.42,0.06,-0.06,0.0,210.94,226.0,0.0,0.0,0.0,0.0
1776357584747415533,10119,0.0,0.1,0.0,1.1,0.02,-0.08,-0.0,-3.56,3.69,0.02,-0.0,-0.39,-0.0,-0.06,0.0,202.54,226.0,0.0,0.0,0.0,0.0
1776357584845705576,10219,0.0,0.9,0.0,0.1,-0.04,0.0,-0.0,-3.56,3.69,0.01,-0.0,-0.38,-0.12,0.19,0.06,198.43,226.0,0.0,0.0,0.0,0.0
1776357584943972210,10318,0.0,0.4,0.0,1.0,0.06,0.0,-0.0,-3.56,3.69,0.04,0.04,-0.38,0.12,-0.12,0.06,202.37,228.0,0.0,0.0,0.0,0.0
1776357585046403059,10419,0.0,0.5,0.0,0.9,0.18,-0.06,-0.0,-3.56,3.69,0.04,-0.04,-0.38,-0.12,-0.06,0.0,190.54,228.0,0.0,0.0,0.0,0.0
1776357585144649653,10519,0.0,0.5,0.0,0.9,0.02,-0.02,-0.0,-3.56,3.69,0.02,-0.0,-0.4,0.06,0.31,-0.06,190.54,227.0,0.0,0.0,0.0,0.0
1776357585247108056,10618,0.0,0.0,0.0,0.2,0.04,0.06,-0.0,-3.56,3.69,0.0,-0.01,-0.41,-0.0,0.25,0.0,198.94,229.0,0.0,0.0,0.0,0.0
1776357585345423358,10718,0.0,0.2,0.0,0.3,-0.14,0.04,-0.0,-3.56,3.69,0.0,-0.0,-0.39,-0.0,-0.06,0.06,198.94,229.0,0.0,0.0,0.0,0.0
1776357585447826128,10819,0.0,0.1,0.0,0.8,0.0,-0.1,-0.0,-3.56,3.69,0.01,-0.0,-0.41,0.06,0.19,0.0,198.94,229.0,0.0,0.0,0.0,0.0
1776357585546134689,10918,0.0,0.2,0.0,1.2,0.0,-0.04,-0.0,-3.56,3.69,0.03,-0.0,-0.39,-0.0,-0.06,-0.06,198.94,229.0,0.0,0.0,0.0,0.0
1776357585654552156,11018,0.0,0.7,0.0,0.7,-0.08,-0.06,-0.0,-3.56,3.69,0.04,-0.0,-0.38,-0.0,-0.12,0.0,190.54,229.0,0.0,0.0,0.0,0.0
1776357585746840372,11118,0.0,0.2,0.0,1.1,-0.04,0.02,-0.0,-3.56,3.69,0.03,-0.02,-0.41,-0.06,-0.12,0.06,198.94,230.0,0.0,0.0,0.0,0.0
1776357585845144285,11217,0.0,0.0,0.0,0.9,-0.1,0.0,-0.0,-3.56,3.69,0.01,-0.0,-0.38,-0.12,-0.0,0.0,198.94,230.0,0.0,0.0,0.0,0.0
1776357585947544277,11317,0.0,0.3,0.0,0.8,0.06,-0.1,-0.0,-3.56,3.69,0.02,-0.0,-0.4,-0.12,-0.0,-0.06,197.22,229.0,0.0,0.0,0.0,0.0
1776357586045818931,11418,0.0,0.2,0.0,0.2,0.04,-0.08,-0.0,-3.56,3.69,0.02,-0.02,-0.41,-0.06,-0.19,-0.06,198.43,229.0,0.0,0.0,0.0,0.0
1776357586144174199,11517,0.0,0.5,0.0,0.5,0.0,-0.04,-0.0,-3.56,3.69,0.0,0.01,-0.38,-0.12,-0.19,0.0,198.43,229.0,0.0,0.0,0.0,0.0
1776357586246555641,11617,0.0,0.4,0.0,1.1,-0.06,0.04,-0.0,-3.56,3.69,0.03,-0.01,-0.39,-0.0,-0.0,0.06,202.54,229.0,0.0,0.0,0.0,0.0
1776357586344866851,11717,0.0,0.7,0.0,0.5,-0.06,-0.08,-0.0,-3.56,3.69,0.01,-0.01,-0.38,0.06,-0.06,0.0,201.34,227.0,0.0,0.0,0.0,0.0
1776357586447262127,11817,0.0,0.3,0.0,1.0,0.1,-0.04,-0.0,-3.56,3.69,0.02,0.01,-0.36,0.06,0.06,0.0,202.37,227.0,0.0,0.0,0.0,0.0
1776357586545561003,11917,0.0,0.7,0.0,0.7,-0.02,0.08,-0.0,-3.56,3.69,0.04,-0.01,-0.37,-0.06,0.06,0.0,198.43,228.0,0.0,0.0,0.0,0.0
1776357586643869528,12016,0.0,0.2,0.0,0.9,-0.18,-0.06,-0.0,-3.56,3.69,0.03,-0.0,-0.39,-0.0,-0.06,0.06,197.22,228.0,0.0,0.0,0.0,0.0
1776357586746320325,12116,0.0,0.5,0.0,0.2,-0.08,-0.04,-0.0,-3.56,3.69,0.01,-0.01,-0.38,-0.0,0.06,0.12,198.25,228.0,0.0,0.0,0.0,0.0
1776357586844589533,12216,0.0,0.2,0.0,0.6,0.0,-0.12,-0.0,-3.56,3.69,0.0,-0.0,-0.4,0.06,0.12,0.06,198.25,228.0,0.0,0.0,0.0,0.0
1776357586946956160,12317,0.0,0.2,0.0,0.8,0.0,0.0,-0.0,-3.56,3.69,0.02,-0.0,-0.39,0.06,-0.06,-0.06,201.51,227.0,0.0,0.0,0.0,0.0
1776357587049348910,12418,0.0,0.4,0.0,0.8,0.02,-0.04,-0.0,-3.56,3.69,0.0,-0.0,-0.37,0.06,0.06,0.06,213.86,227.0,0.0,0.0,0.0,0.0
1776357587147686494,12519,0.004,-0.1,0.0,0.8,-0.1,-0.04,-0.0,-3.56,3.69,0.0,-0.03,-0.39,-0.06,0.19,0.06,208.37,228.0,0.0,0.0,0.0,0.0
1776357587246002576,12618,0.0,0.4,0.0,1.1,0.04,0.02,-0.0,-3.56,3.69,0.04,-0.0,-0.39,-0.0,-0.06,0.0,207.86,228.0,0.0,0.0,0.0,0.0
1776357587348433288,12718,0.004,-0.1,0.0,0.9,-0.08,-0.04,-0.0,-3.56,3.69,0.02,-0.0,-0.38,0.06,-0.0,0.06,199.63,225.0,0.0,0.0,0.0,0.0
1776357587446708313,12818,0.0,0.2,0.0,0.6,0.02,-0.06,-0.0,-3.56,3.69,0.0,-0.04,-0.38,-0.0,-0.0,-0.06,221.06,227.0,0.0,0.0,0.0,0.0
1776357587544970079,12918,0.0,0.1,0.0,1.1,-0.16,0.12,-0.0,-3.56,3.69,0.01,-0.01,-0.39,0.06,-0.12,0.0,250.39,227.0,0.0,0.0,0.0,0.0
1776357587647401809,13018,0.0,0.3,0.0,1.1,-0.14,-0.02,-0.0,-3.56,3.69,0.0,0.03,-0.4,-0.0,-0.19,0.06,242.16,227.0,0.0,0.0,0.0,0.0
1776357587749814594,13119,0.0,0.9,0.0,0.4,0.02,-0.06,-0.0,-3.56,3.69,0.03,-0.02,-0.41,0.06,0.12,-0.12,230.67,227.0,0.0,0.0,0.0,0.0
1776357587848111102,13218,0.0,0.2,0.0,0.2,-0.06,-0.02,-0.0,-3.56,3.69,0.0,0.02,-0.38,0.06,0.06,-0.06,230.5,227.0,0.0,0.0,0.0,0.0
1776357587946421351,13318,0.0,0.9,0.0,0.5,0.0,-0.08,-0.0,-3.56,3.69,0.03,-0.0,-0.39,0.06,-0.12,0.06,264.62,227.0,0.0,0.0,0.0,0.0
1776357588048809081,13418,0.0,0.6,0.0,1.1,-0.08,0.0,-0.0,-3.56,3.69,0.02,-0.0,-0.37,-0.0,0.12,0.0,264.62,227.0,0.0,0.0,0.0,0.0
1776357588147116665,13518,0.0,0.2,0.0,0.8,0.02,0.0,-0.0,-3.56,3.69,0.0,-0.0,-0.41,-0.06,0.12,-0.06,267.71,227.0,0.0,0.0,0.0,0.0
1776357588249501662,13618,0.004,0.1,0.0,0.6,-0.08,0.06,-0.0,-3.56,3.69,0.04,0.04,-0.4,0.06,-0.12,-0.06,268.4,229.0,0.0,0.0,0.0,0.0
1776357588347828969,13718,0.0,0.2,0.0,1.2,-0.1,-0.1,-0.0,-3.56,3.69,0.04,0.02,-0.42,0.06,0.12,0.12,268.74,229.0,0.0,0.0,0.0,0.0
1776357588446140312,13817,0.0,0.4,0.0,1.0,-0.02,0.0,-0.0,-3.56,3.69,0.01,-0.01,-0.38,-0.06,0.06,-0.12,255.19,229.0,0.0,0.0,0.0,0.0
1776357588548537494,13918,0.0,0.2,0.0,0.5,-0.16,-0.12,-0.0,-3.56,3.69,0.01,0.03,-0.39,-0.06,-0.31,0.06,280.23,229.0,0.0,0.0,0.0,0.0
1776357588646846930,14019,0.0,0.2,0.0,1.0,-0.04,-0.08,-0.0,-3.56,3.69,0.01,-0.0,-0.39,0.06,-0.06,-0.06,214.03,229.0,0.0,0.0,0.0,0.0
1776357588749240853,14118,0.0,0.1,0.0,0.3,-0.02,-0.12,-0.0,-3.56,3.69,0.02,-0.03,-0.4,-0.0,0.12,-0.06,210.77,231.0,0.0,0.0,0.0,0.0
1776357588847539881,14218,0.0,0.3,0.0,0.1,-0.02,0.04,-0.0,-3.56,3.69,0.0,0.01,-0.39,0.19,-0.12,0.0,206.66,231.0,0.0,0.0,0.0,0.0
1776357588945797685,14318,0.0,0.5,0.0,1.1,0.12,0.02,-0.0,-3.56,3.69,0.02,-0.0,-0.36,0.06,-0.12,0.0,206.66,231.0,0.0,0.0,0.0,0.0
1776357589048247088,14417,0.0,0.4,0.0,0.9,0.1,-0.06,-0.0,-3.56,3.69,0.0,-0.0,-0.38,0.06,-0.0,0.06,206.66,232.0,0.0,0.0,0.0,0.0
1776357589146489484,14518,0.0,0.1,0.0,0.1,0.08,-0.16,-0.0,-3.56,3.69,0.01,0.01,-0.37,-0.0,-0.06,0.06,210.77,231.0,0.0,0.0,0.0,0.0
1776357589248966141,14618,0.0,0.1,0.0,0.7,0.04,-0.18,-0.0,-3.56,3.69,0.02,-0.01,-0.39,-0.0,0.06,0.06,205.63,231.0,0.0,0.0,0.0,0.0
1776357589347223501,14718,0.0,0.4,0.0,0.7,-0.12,0.0,-0.0,-3.56,3.69,0.0,-0.01,-0.38,-0.0,-0.0,-0.06,205.63,231.0,0.0,0.0,0.0,0.0
1776357589449654638,14819,0.0,0.2,0.004,0.4,-0.16,-0.12,-0.0,-3.56,3.69,0.0,0.02,-0.39,-0.06,0.06,-0.06,210.94,231.0,0.0,0.0,0.0,0.0
1776357589547935128,14919,0.0,0.0,0.0,0.6,-0.04,0.0,-0.0,-3.56,3.69,0.01,-0.0,-0.37,-0.0,0.06,0.06,215.06,229.0,0.0,0.0,0.0,0.0
1776357589650378932,15020,0.0,0.3,0.0,0.3,0.0,-0.04,-0.0,-3.56,3.69,0.04,0.03,-0.38,-0.06,-0.0,0.06,215.06,231.0,0.0,0.0,0.0,0.0
1776357589758820731,15120,0.0,0.1,0.0,0.5,-0.02,-0.14,-0.0,-3.56,3.69,0.0,-0.0,-0.36,-0.0,0.12,0.06,217.98,231.0,0.0,0.0,0.0,0.0
1776357589851072410,15220,0.0,0.2,0.0,0.3,-0.04,0.02,-0.0,-3.56,3.69,0.02,0.02,-0.37,0.12,-0.12,-0.06,280.23,228.0,0.0,0.0,0.0,0.0
1776357589953487379,15320,0.0,0.3,0.0,0.8,-0.08,-0.06,-0.0,-3.56,3.69,0.01,-0.01,-0.37,-0.12,0.19,0.0,214.72,229.0,0.0,0.0,0.0,0.0
1776357590051761043,15421,0.0,0.1,0.0,0.8,-0.08,0.02,-0.0,-3.56,3.69,0.03,-0.04,-0.39,-0.0,-0.0,0.0,209.74,229.0,0.0,0.0,0.0,0.0
1776357590150022994,15521,0.0,0.4,0.0,0.7,-0.04,-0.02,-0.0,-3.56,3.69,0.0,0.02,-0.37,0.06,-0.19,-0.12,206.66,231.0,0.0,0.0,0.0,0.0
1776357590252446211,15621,0.0,0.2,0.0,0.7,0.02,-0.06,-0.0,-3.56,3.69,0.03,-0.01,-0.36,-0.06,0.19,-0.06,206.66,231.0,0.0,0.0,0.0,0.0
1776357590350753479,15721,0.0,0.8,0.0,1.1,0.04,-0.04,-0.0,-3.56,3.69,0.01,-0.03,-0.38,-0.0,-0.06,0.0,206.66,231.0,0.0,0.0,0.0,0.0
1776357590453188788,15821,0.004,0.1,0.0,0.3,-0.14,-0.06,-0.0,-3.56,3.69,0.02,-0.0,-0.38,-0.0,-0.06,0.06,206.66,229.0,0.0,0.0,0.0,0.0
1776357590551461111,15922,0.0,0.2,0.0,0.3,-0.04,-0.12,-0.0,-3.56,3.69,0.0,-0.02,-0.38,-0.12,-0.0,0.0,206.66,229.0,0.0,0.0,0.0,0.0
1776357590653898031,16022,0.0,0.1,0.0,0.8,-0.06,-0.04,-0.0,-3.56,3.69,0.01,-0.0,-0.36,-0.0,-0.0,0.06,206.66,230.0,0.0,0.0,0.0,0.0
1776357590752207762,16121,0.0,0.3,0.0,0.3,0.02,0.1,-0.0,-3.56,3.69,0.03,-0.0,-0.37,-0.0,-0.0,-0.06,206.66,232.0,0.0,0.0,0.0,0.0
1776357590854600922,16221,0.0,0.6,0.0,1.1,-0.02,-0.04,-0.0,-3.56,3.69,0.01,-0.0,-0.38,-0.12,0.12,0.06,206.66,232.0,0.0,0.0,0.0,0.0
1776357590952880171,16321,0.0,0.9,0.0,0.3,-0.21,0.0,-0.0,-3.56,3.69,0.02,-0.0,-0.39,-0.12,0.19,0.06,206.66,231.0,0.0,0.0,0.0,0.0
1776357591051197362,16420,0.0,0.1,0.0,0.9,-0.08,-0.08,-0.0,-3.56,3.69,0.02,-0.01,-0.37,0.06,-0.06,-0.06,206.66,230.0,0.0,0.0,0.0,0.0
1776357591153576636,16520,0.0,0.2,0.0,1.0,-0.06,-0.16,-0.0,-3.56,3.69,0.01,-0.0,-0.39,-0.12,0.06,0.12,206.66,230.0,0.0,0.0,0.0,0.0
1776357591251910122,16620,0.0,0.7,0.004,0.5,-0.16,-0.1,-0.0,-3.56,3.69,0.02,-0.0,-0.38,-0.06,-0.0,0.0,198.94,230.0,0.0,0.0,0.0,0.0
1776357591350213866,16719,0.0,0.1,0.0,1.2,0.06,-0.1,-0.0,-3.56,3.69,0.01,-0.0,-0.37,-0.06,-0.12,0.12,206.83,230.0,0.0,0.0,0.0,0.0
1776357591452609030,16820,0.0,0.0,0.0,1.1,-0.02,-0.02,-0.0,-3.56,3.69,0.0,-0.0,-0.4,-0.0,0.25,-0.06,210.94,230.0,0.0,0.0,0.0,0.0
1776357591550920108,16920,0.0,1.0,0.0,0.9,-0.06,0.06,-0.0,-3.56,3.69,-0.01,-0.0,-0.39,0.12,-0.06,0.0,220.21,233.0,0.0,0.0,0.0,0.0
1776357591653320550,17020,0.0,0.1,0.0,0.2,-0.1,-0.08,-0.0,-3.56,3.69,-0.01,-0.0,-0.39,0.06,-0.0,0.0,211.46,233.0,0.0,0.0,0.0,0.0
1776357591751627572,17120,0.0,0.6,0.0,0.7,-0.04,-0.06,-0.0,-3.56,3.69,0.01,-0.01,-0.39,0.06,0.12,0.06,216.78,233.0,0.0,0.0,0.0,0.0
1776357591854053940,17220,0.004,0.2,0.0,1.1,0.0,-0.02,-0.0,-3.56,3.69,0.0,0.01,-0.39,0.06,0.06,0.0,206.83,234.0,0.0,0.0,0.0,0.0
1776357591952333110,17320,0.0,0.1,0.0,1.1,0.0,-0.06,-0.0,-3.56,3.69,-0.02,-0.03,-0.36,0.12,-0.19,0.06,207.86,234.0,0.0,0.0,0.0,0.0
1776357592050583491,17420,0.0,0.1,0.0,0.6,-0.06,-0.04,-0.0,-3.56,3.69,0.02,-0.01,-0.36,-0.12,0.12,-0.12,207.86,234.0,0.0,0.0,0.0,0.0
1776357592153037656,17520,0.0,0.2,0.0,1.0,0.08,-0.12,-0.0,-3.56,3.69,0.0,-0.02,-0.36,0.06,-0.0,-0.06,203.74,235.0,0.0,0.0,0.0,0.0
1776357592251345447,17620,0.0,0.2,0.0,1.2,0.06,-0.2,-0.0,-3.56,3.69,0.01,-0.02,-0.37,-0.19,-0.06,0.06,211.97,235.0,0.0,0.0,0.0,0.0
1776357592353732314,17720,0.0,0.0,0.0,0.5,0.02,0.12,-0.0,-3.56,3.69,0.03,-0.0,-0.38,0.06,-0.12,0.06,197.91,233.0,0.0,0.0,0.0,0.0
1776357592452047901,17821,0.0,0.4,0.0,0.8,-0.14,-0.08,-0.0,-3.56,3.69,0.01,-0.0,-0.4,-0.06,-0.12,0.06,211.46,231.0,0.0,0.0,0.0,0.0
1776357592554446991,17921,0.0,0.4,0.0,0.7,0.16,0.06,-0.0,-3.56,3.69,0.04,-0.01,-0.4,0.06,-0.0,0.06,215.58,231.0,0.0,0.0,0.0,0.0
1776357592652744300,18021,0.0,0.1,0.0,1.0,0.02,0.02,-0.0,-3.56,3.69,0.01,-0.0,-0.39,0.12,-0.0,0.0,210.77,229.0,0.0,0.0,0.0,0.0
1776357592755140927,18121,0.0,0.6,0.0,0.8,0.08,-0.04,-0.0,-3.56,3.69,0.01,0.01,-0.35,-0.0,0.06,0.0,215.06,229.0,0.0,0.0,0.0,0.0
1776357592853444365,18221,0.0,0.6,0.0,0.4,-0.02,0.02,-0.0,-3.56,3.69,0.02,-0.0,-0.35,-0.0,0.06,-0.06,215.06,230.0,0.0,0.0,0.0,0.0
1776357592951731914,18321,0.0,0.2,0.0,0.2,0.02,-0.02,-0.0,-3.56,3.69,0.0,-0.0,-0.41,-0.06,0.19,0.06,215.06,229.0,0.0,0.0,0.0,0.0
1776357593054136563,18420,0.0,0.3,0.0,1.0,-0.04,-0.06,-0.0,-3.56,3.69,0.0,0.01,-0.37,-0.06,-0.0,-0.06,209.74,229.0,0.0,0.0,0.0,0.0
1776357593152493451,18520,0.0,0.3,0.0,1.0,0.06,-0.16,-0.0,-3.56,3.69,0.01,-0.01,-0.38,-0.19,0.06,0.06,210.77,231.0,0.0,0.0,0.0,0.0
1776357593250687445,18620,0.0,0.1,0.0,0.9,-0.04,-0.12,-0.0,-3.56,3.69,0.01,-0.01,-0.38,-0.0,-0.0,-0.06,206.66,231.0,0.0,0.0,0.0,0.0
1776357593353157663,18719,0.0,0.8,0.0,0.9,-0.08,0.0,-0.0,-3.56,3.69,0.0,0.02,-0.38,-0.0,0.25,0.0,206.66,231.0,0.0,0.0,0.0,0.0
1776357593451456512,18819,0.0,0.4,0.0,0.2,0.18,-0.02,-0.0,-3.56,3.69,0.04,-0.0,-0.4,-0.0,-0.19,0.0,206.66,231.0,0.0,0.0,0.0,0.0
1776357593553861079,18919,0.004,0.4,0.0,0.4,0.04,0.0,-0.0,-3.56,3.69,0.01,-0.0,-0.39,0.06,-0.0,0.0,202.54,231.0,0.0,0.0,0.0,0.0
1776357593652167188,19019,0.004,0.3,0.0,0.9,-0.06,0.06,-0.0,-3.56,3.69,0.02,-0.0,-0.4,0.12,-0.0,-0.06,202.54,231.0,0.0,0.0,0.0,0.0
1776357593760576420,19119,0.0,0.1,0.0,1.2,-0.02,-0.04,-0.0,-3.56,3.69,0.0,0.03,-0.38,0.06,-0.06,0.0,202.54,231.0,0.0,0.0,0.0,0.0
1776357593852864012,19219,0.004,0.2,0.0,1.2,0.08,-0.02,-0.0,-3.56,3.69,0.01,-0.0,-0.36,0.06,-0.19,-0.06,202.54,231.0,0.0,0.0,0.0,0.0
1776357593951186455,19319,0.004,0.2,0.0,0.9,-0.1,-0.18,-0.0,-3.56,3.69,0.02,-0.01,-0.4,-0.0,0.06,0.06,202.54,231.0,0.0,0.0,0.0,0.0
1776357594053547701,19419,0.0,0.2,0.0,0.3,-0.16,-0.08,-0.0,-3.56,3.69,0.0,-0.0,-0.4,-0.06,0.12,0.06,206.66,231.0,0.0,0.0,0.0,0.0
1776357594151858196,19519,0.0,0.2,0.0,0.9,0.0,-0.1,-0.0,-3.56,3.69,0.02,0.02,-0.38,-0.06,-0.0,0.0,206.66,231.0,0.0,0.0,0.0,0.0
1776357594254274476,19619,0.0,0.7,0.0,0.8,-0.06,0.0,-0.0,-3.56,3.69,0.02,-0.0,-0.37,0.12,-0.12,0.06,202.54,229.0,0.0,0.0,0.0,0.0
1776357594352570416,19720,0.004,0.3,0.0,0.3,-0.02,-0.1,-0.0,-3.56,3.69,0.0,-0.0,-0.39,-0.0,0.06,0.06,202.37,231.0,0.0,0.0,0.0,0.0
1776357594454982029,19820,0.0,0.8,0.0,1.0,-0.04,0.0,-0.0,-3.56,3.69,0.01,-0.0,-0.38,-0.0,-0.0,0.12,202.54,231.0,0.0,0.0,0.0,0.0
1776357594553276932,19919,0.0,0.8,0.0,0.9,0.12,0.02,-0.0,-3.56,3.69,0.0,-0.0,-0.38,-0.06,0.19,-0.06,210.43,231.0,0.0,0.0,0.0,0.0
1776357594655663026,20020,0.0,0.1,0.0,1.1,-0.02,-0.12,-0.0,-3.56,3.69,0.0,-0.02,-0.37,0.06,-0.06,0.0,211.46,230.0,0.0,0.0,0.0,0.0
1776357594754018208,20120,0.004,0.3,0.0,0.8,-0.08,-0.08,-0.0,-3.56,3.69,0.01,0.03,-0.37,-0.06,0.12,0.0,215.75,230.0,0.0,0.0,0.0,0.0
1776357594852299795,20219,0.0,0.3,0.0,1.0,0.1,0.08,-0.0,-3.56,3.69,0.01,-0.0,-0.39,-0.0,-0.06,-0.06,211.46,231.0,0.0,0.0,0.0,0.0
1776357594954667000,20319,0.0,0.9,0.008,0.6,-0.06,0.02,-0.0,-3.56,3.69,0.04,-0.0,-0.37,-0.0,0.06,-0.06,213.52,231.0,0.0,0.0,0.0,0.0
1776357595052980812,20420,0.0,0.0,0.0,0.6,0.02,0.02,-0.0,-3.56,3.69,0.01,-0.0,-0.38,-0.06,-0.12,0.06,223.98,231.0,0.0,0.0,0.0,0.0
1776357595155391723,20519,0.0,0.2,0.0,0.2,0.06,-0.14,-0.0,-3.56,3.69,0.03,-0.03,-0.37,-0.06,-0.06,0.06,214.03,229.0,0.0,0.0,0.0,0.0
1776357595253695562,20620,0.0,0.8,0.0,0.2,-0.1,0.0,-0.0,-3.56,3.69,0.02,-0.0,-0.39,-0.0,0.12,0.0,215.06,229.0,0.0,0.0,0.0,0.0
1776357595356086417,20721,0.0,0.2,0.0,1.0,0.06,0.0,-0.0,-3.56,3.69,0.02,0.01,-0.38,0.12,0.06,0.0,223.46,230.0,0.0,0.0,0.0,0.0
1776357595454400219,20820,0.0,0.2,0.0,1.1,0.1,-0.06,-0.0,-3.56,3.69,0.01,-0.0,-0.38,-0.06,0.06,-0.06,223.29,230.0,0.0,0.0,0.0,0.0
1776357595556796130,20920,0.0,0.4,0.0,1.2,0.02,-0.12,-0.0,-3.56,3.69,0.0,-0.0,-0.36,-0.0,-0.0,-0.25,223.29,230.0,0.0,0.0,0.0,0.0
1776357595655096172,21021,0.0,0.1,0.0,0.1,-0.06,-0.14,-0.0,-3.56,3.69,0.03,0.01,-0.38,-0.0,0.06,-0.19,226.55,228.0,0.0,0.0,0.0,0.0
1776357595763450669,21121,0.0,0.5,0.0,0.9,0.1,-0.04,-0.0,-3.56,3.69,0.01,-0.0,-0.4,-0.06,-0.0,-0.19,284.52,229.0,0.0,0.0,0.0,0.0
1776357595855805514,21221,0.008,0.1,0.0,0.3,-0.02,-0.16,-0.0,-3.56,3.69,0.0,-0.0,-0.41,0.12,-0.0,0.06,276.11,229.0,0.0,0.0,0.0,0.0
1776357595954079222,21321,0.0,0.9,0.0,1.0,-0.18,-0.12,-0.0,-3.56,3.69,0.01,0.01,-0.39,-0.0,-0.19,0.06,259.31,230.0,0.0,0.0,0.0,0.0
1776357596056495579,21421,0.0,0.4,0.0,1.2,-0.04,-0.02,-0.0,-3.56,3.69,0.0,-0.01,-0.41,-0.06,-0.0,0.0,252.11,228.0,0.0,0.0,0.0,0.0
1776357596158878873,21522,0.0,0.3,0.0,0.3,-0.06,-0.12,-0.0,-3.56,3.69,0.01,-0.0,-0.42,-0.0,-0.12,-0.06,259.48,228.0,0.0,0.0,0.0,0.0
1776357596257202529,21622,0.0,0.6,0.0,1.1,0.0,0.0,-0.0,-3.56,3.69,0.01,-0.0,-0.41,-0.0,-0.19,0.0,263.6,229.0,0.0,0.0,0.0,0.0
1776357596359615640,21722,0.004,0.0,0.0,0.2,0.02,-0.14,-0.0,-3.56,3.69,0.03,-0.03,-0.4,0.19,-0.06,-0.06,263.77,230.0,0.0,0.0,0.0,0.0
1776357596457903443,21823,0.0,0.3,0.0,1.1,-0.04,-0.02,-0.0,-3.56,3.69,0.03,-0.0,-0.4,-0.0,-0.0,0.0,267.71,230.0,0.0,0.0,0.0,0.0
1776357596556215135,21922,0.004,0.2,0.0,1.1,-0.12,-0.1,-0.0,-3.56,3.69,0.03,0.02,-0.38,0.06,-0.12,0.12,272.0,230.0,0.0,0.0,0.0,0.0
1776357596658610986,22022,0.0,0.0,0.0,0.9,0.04,-0.04,-0.0,-3.56,3.69,0.01,-0.01,-0.38,0.12,-0.19,0.0,272.0,230.0,0.0,0.0,0.0,0.0
1776357596756914900,22122,0.0,0.3,0.0,1.1,0.0,0.02,-0.0,-3.56,3.69,0.01,-0.0,-0.39,0.06,-0.06,0.0,268.91,230.0,0.0,0.0,0.0,0.0
1776357596855219444,22221,0.0,0.2,0.0,0.9,-0.1,0.14,-0.0,-3.56,3.69,0.02,0.02,-0.39,-0.0,-0.19,0.0,260.51,231.0,0.0,0.0,0.0,0.0
1776357596957596961,22321,0.0,0.2,0.0,1.1,-0.08,-0.16,-0.0,-3.56,3.69,0.0,-0.0,-0.43,0.19,0.12,-0.06,264.8,231.0,0.0,0.0,0.0,0.0
1776357597055897081,22421,0.0,0.1,0.0,0.5,0.06,0.02,-0.0,-3.56,3.69,0.0,-0.0,-0.41,0.06,0.06,0.0,260.51,230.0,0.0,0.0,0.0,0.0
1776357597154219990,22520,0.0,0.2,0.0,1.1,-0.08,0.0,-0.0,-3.56,3.69,0.01,-0.0,-0.4,0.12,-0.06,0.0,264.62,230.0,0.0,0.0,0.0,0.0
1776357597256623625,22620,0.0,0.2,0.0,0.4,0.04,-0.08,-0.0,-3.56,3.69,0.03,-0.0,-0.4,-0.0,-0.0,0.0,272.0,230.0,0.0,0.0,0.0,0.0
1776357597354931552,22720,0.004,0.2,0.0,1.0,0.12,-0.06,-0.0,-3.56,3.69,0.02,-0.0,-0.41,-0.0,-0.06,0.06,276.11,229.0,0.0,0.0,0.0,0.0
1776357597453241219,22819,0.0,0.9,0.0,0.9,-0.12,-0.1,-0.0,-3.56,3.69,0.01,0.01,-0.37,0.06,0.12,0.0,256.74,229.0,0.0,0.0,0.0,0.0
1776357597555637557,22920,0.0,0.1,0.0,0.0,0.06,-0.08,-0.0,-3.56,3.69,0.04,-0.0,-0.38,-0.06,-0.0,-0.12,261.02,231.0,0.0,0.0,0.0,0.0
1776357597653934132,23020,0.0,-0.1,0.0,0.8,-0.04,-0.08,-0.0,-3.56,3.69,0.0,-0.01,-0.37,0.12,-0.12,-0.06,284.52,231.0,0.0,0.0,0.0,0.0
1776357597756346693,23119,0.0,-0.1,0.0,0.7,0.02,0.14,-0.0,-3.56,3.69,0.01,-0.0,-0.37,-0.0,0.06,0.0,280.23,231.0,0.0,0.0,0.0,0.0
1776357597854626286,23219,0.0,0.3,0.0,0.7,0.0,-0.02,-0.0,-3.56,3.69,0.02,-0.0,-0.4,-0.0,-0.0,0.06,263.6,231.0,0.0,0.0,0.0,0.0
1776357597957039161,23320,0.0,0.2,0.0,1.0,-0.14,0.1,-0.0,-3.56,3.69,0.0,-0.0,-0.4,-0.0,-0.12,0.0,263.6,229.0,0.0,0.0,0.0,0.0
1776357598055333836,23419,0.0,0.2,0.0,0.7,0.04,0.0,-0.0,-3.56,3.69,0.02,-0.0,-0.39,0.12,-0.06,0.12,267.88,229.0,0.0,0.0,0.0,0.0
1776357598153619210,23519,0.004,0.0,0.0,0.7,0.04,0.02,-0.0,-3.56,3.69,0.0,-0.0,-0.38,0.12,-0.0,-0.06,267.88,229.0,0.0,0.0,0.0,0.0
1776357598256034453,23619,0.0,0.1,0.0,1.2,0.0,-0.14,-0.0,-3.56,3.69,0.02,-0.02,-0.38,-0.06,0.19,0.12,259.48,229.0,0.0,0.0,0.0,0.0
1776357598354395496,23718,0.0,-0.1,0.0,0.8,-0.1,0.04,-0.0,-3.56,3.69,0.0,-0.0,-0.37,0.06,0.12,0.06,260.51,229.0,0.0,0.0,0.0,0.0
1776357598456741793,23819,0.0,0.3,0.0,0.1,0.0,-0.04,-0.0,-3.56,3.69,0.0,-0.02,-0.37,-0.0,0.12,0.0,255.36,229.0,0.0,0.0,0.0,0.0
1776357598555039168,23919,0.0,0.0,0.0,0.5,0.02,-0.06,-0.0,-3.56,3.69,0.0,0.01,-0.37,-0.0,-0.06,0.0,252.11,230.0,0.0,0.0,0.0,0.0
1776357598657443762,24019,0.0,0.6,0.0,0.5,0.0,-0.14,-0.0,-3.56,3.69,0.01,0.01,-0.38,0.06,-0.06,0.0,252.11,230.0,0.0,0.0,0.0,0.0
1776357598755742544,24119,0.0,0.3,0.0,1.0,-0.1,0.02,-0.0,-3.56,3.69,0.01,-0.0,-0.39,-0.06,0.06,0.06,264.62,229.0,0.0,0.0,0.0,0.0
1776357598854048104,24219,0.0,0.1,0.0,1.1,0.02,-0.14,-0.0,-3.56,3.69,0.0,-0.02,-0.4,-0.0,-0.06,-0.06,277.32,229.0,0.0,0.0,0.0,0.0
1776357598956503830,24318,0.0,0.3,0.0,0.6,-0.02,0.0,-0.0,-3.56,3.69,0.01,-0.0,-0.38,-0.06,-0.06,-0.12,280.23,228.0,0.0,0.0,0.0,0.0
1776357599054693820,24419,0.004,0.4,0.004,0.2,0.02,-0.08,-0.0,-3.56,3.69,0.02,-0.0,-0.4,-0.0,-0.06,-0.12,302.87,231.0,0.0,0.0,0.0,0.0
1776357599157139737,24520,0.0,0.3,0.0,0.2,0.18,-0.08,-0.0,-3.56,3.69,0.03,-0.0,-0.37,-0.06,-0.0,-0.12,305.96,231.0,0.0,0.0,0.0,0.0
1776357599255416680,24620,0.0,0.4,0.0,1.1,0.06,-0.1,-0.0,-3.56,3.69,0.01,0.01,-0.38,-0.06,0.06,-0.06,223.29,229.0,0.0,0.0,0.0,0.0
1776357599357849782,24720,0.008,-0.1,0.0,0.8,-0.08,-0.04,-0.0,-3.56,3.69,0.0,-0.0,-0.39,0.06,-0.19,-0.12,218.15,231.0,0.0,0.0,0.0,0.0
1776357599456158410,24820,0.0,0.5,0.0,0.9,-0.06,-0.14,-0.0,-3.56,3.69,0.0,-0.0,-0.39,-0.0,0.12,-0.12,215.06,231.0,0.0,0.0,0.0,0.0
1776357599558601049,24920,0.0,0.0,0.0,0.9,-0.02,-0.06,-0.0,-3.56,3.69,0.02,-0.01,-0.38,0.12,-0.12,-0.06,289.66,230.0,0.0,0.0,0.0,0.0
1776357599656861417,25021,0.0,0.1,0.0,0.8,-0.12,-0.08,-0.0,-3.56,3.69,0.0,-0.01,-0.4,0.06,-0.06,0.0,288.81,231.0,0.0,0.0,0.0,0.0
1776357599759290260,25121,0.0,-0.2,0.0,0.2,-0.08,-0.04,-0.0,-3.56,3.69,0.0,-0.01,-0.36,0.12,-0.06,0.06,292.92,231.0,0.0,0.0,0.0,0.0
1776357599859599855,25221,0.0,0.4,0.0,0.5,-0.14,0.04,-0.0,-3.56,3.69,0.03,-0.0,-0.36,0.12,-0.19,0.06,11973.62,229.0,0.0,0.0,0.0,0.0
1776357599959956100,25321,0.0,0.3,0.0,1.0,-0.12,-0.1,-0.0,-3.56,3.69,0.0,-0.0,-0.36,-0.0,0.12,0.06,11972.24,230.0,0.0,0.0,0.0,0.0
1776357600058227598,25421,0.004,0.1,0.0,1.4,-0.04,0.0,-0.0,-3.56,3.69,0.01,-0.0,-0.39,0.06,-0.06,0.06,314.36,230.0,0.0,0.0,0.0,0.0
1776357600160691013,25521,0.0,0.1,0.0,0.1,-0.04,-0.04,-0.0,-3.56,3.69,0.0,-0.0,-0.36,0.06,-0.06,0.06,318.65,230.0,0.0,0.0,0.0,0.0
1776357600258962143,25622,0.0,0.1,0.0,0.9,0.14,0.02,-0.0,-3.56,3.69,0.02,-0.02,-0.38,0.12,0.19,0.06,322.76,230.0,0.0,0.0,0.0,0.0
1776357600357254143,25721,0.0,0.0,0.0,0.7,0.0,-0.16,-0.0,-3.56,3.69,0.01,-0.0,-0.35,0.06,-0.0,-0.12,289.83,229.0,0.0,0.0,0.0,0.0
1776357600459648983,25821,0.0,0.2,0.0,0.7,0.08,-0.1,-0.0,-3.56,3.69,0.01,-0.02,-0.36,-0.0,-0.0,-0.06,288.81,230.0,0.0,0.0,0.0,0.0
1776357600557961465,25921,0.0,0.0,0.0,1.2,0.14,-0.12,-0.0,-3.56,3.69,0.01,-0.03,-0.39,-0.06,0.19,-0.06,314.36,230.0,0.0,0.0,0.0,0.0
1776357600666397033,26020,0.0,0.2,0.0,0.8,0.0,0.0,-0.0,-3.56,3.69,0.01,0.01,-0.36,-0.0,0.06,-0.06,247.47,230.0,0.0,0.0,0.0,0.0
1776357600758671639,26121,0.0,0.0,0.0,0.9,-0.08,-0.08,-0.0,-3.56,3.69,0.02,0.01,-0.39,-0.0,-0.0,0.12,301.84,228.0,0.0,0.0,0.0,0.0
1776357600867067891,26221,0.0,0.6,0.0,0.6,0.12,0.0,-0.0,-3.56,3.69,0.02,-0.03,-0.39,-0.06,0.12,0.0,284.52,228.0,0.0,0.0,0.0,0.0
1776357600959373979,26321,0.0,0.4,0.0,0.5,0.02,-0.02,-0.0,-3.56,3.69,0.0,-0.0,-0.38,-0.0,0.12,0.06,292.92,230.0,0.0,0.0,0.0,0.0
1776357601061714411,26421,0.0,0.0,0.004,0.1,-0.02,-0.12,-0.0,-3.56,3.69,0.02,-0.0,-0.39,-0.12,-0.12,0.0,298.07,230.0,0.0,0.0,0.0,0.0
1776357601160042441,26522,0.0,0.1,0.0,1.1,-0.02,-0.08,-0.0,-3.56,3.69,0.03,-0.03,-0.37,-0.0,-0.0,0.0,297.04,230.0,0.0,0.0,0.0,0.0
1776357601262466249,26622,0.004,0.1,0.0,1.2,-0.14,-0.08,-0.0,-3.56,3.69,0.01,-0.0,-0.35,0.06,-0.0,-0.06,292.92,229.0,0.0,0.0,0.0,0.0
1776357601360769909,26723,0.0,0.2,0.0,1.3,-0.02,-0.02,-0.0,-3.56,3.69,0.02,0.02,-0.36,-0.0,-0.06,0.0,292.92,229.0,0.0,0.0,0.0,0.0
1776357601459042863,26823,0.0,0.4,0.0,0.9,-0.1,0.0,-0.0,-3.56,3.69,0.01,0.02,-0.39,-0.06,-0.12,0.0,292.92,231.0,0.0,0.0,0.0,0.0
1776357601561468135,26923,0.0,0.4,0.0,1.2,-0.04,0.08,-0.0,-3.56,3.69,0.01,-0.02,-0.39,0.06,-0.06,0.12,285.72,230.0,0.0,0.0,0.0,0.0
1776357601663848998,27023,0.0,0.1,0.0,1.0,0.06,-0.08,-0.0,-3.56,3.69,0.0,0.01,-0.35,0.12,-0.06,0.06,289.83,230.0,0.0,0.0,0.0,0.0
1776357601762172842,27123,0.0,0.1,0.0,0.3,0.1,0.04,-0.0,-3.56,3.69,0.02,-0.01,-0.37,0.06,-0.06,-0.06,289.83,230.0,0.0,0.0,0.0,0.0
1776357601860477539,27223,0.004,0.5,0.0,0.7,0.0,-0.06,-0.0,-3.56,3.69,0.03,0.01,-0.38,-0.0,0.06,0.0,227.75,231.0,0.0,0.0,0.0,0.0
1776357601962875476,27323,0.0,0.4,0.0,1.1,-0.08,0.0,-0.0,-3.56,3.69,0.01,-0.0,-0.35,-0.12,0.12,0.06,215.06,231.0,0.0,0.0,0.0,0.0
1776357602061132826,27423,0.0,0.4,0.0,1.0,-0.1,-0.04,-0.0,-3.56,3.69,0.03,-0.0,-0.38,0.12,-0.0,0.0,215.06,231.0,0.0,0.0,0.0,0.0
1776357602163566333,27523,0.0,0.3,0.0,0.7,-0.12,-0.02,-0.0,-3.56,3.69,0.01,-0.0,-0.39,-0.0,-0.19,0.06,210.77,231.0,0.0,0.0,0.0,0.0
1776357602261869176,27624,0.0,0.0,0.0,0.9,0.04,-0.06,-0.0,-3.56,3.69,0.03,-0.0,-0.38,-0.06,0.06,0.12,206.66,231.0,0.0,0.0,0.0,0.0
1776357602360144631,27723,0.0,0.3,0.0,0.9,-0.06,0.02,-0.0,-3.56,3.69,0.0,-0.02,-0.38,-0.0,-0.06,0.0,206.66,231.0,0.0,0.0,0.0,0.0
1776357602462575100,27824,0.0,0.3,0.0,1.0,-0.12,-0.12,-0.0,-3.56,3.69,0.01,-0.0,-0.39,0.12,0.12,0.0,215.06,231.0,0.0,0.0,0.0,0.0
1776357602564970106,27925,0.0,0.5,0.0,0.9,-0.02,-0.04,-0.0,-3.56,3.69,0.0,0.02,-0.37,0.12,-0.12,0.0,219.35,233.0,0.0,0.0,0.0,0.0
1776357602663270487,28024,0.0,0.4,0.0,0.5,-0.08,-0.08,-0.0,-3.56,3.69,0.01,-0.0,-0.38,-0.19,0.19,0.06,281.26,231.0,0.0,0.0,0.0,0.0
1776357602761527571,28124,0.0,0.2,0.0,1.1,-0.02,0.02,-0.0,-3.56,3.69,0.0,-0.0,-0.35,-0.0,0.06,0.12,280.23,231.0,0.0,0.0,0.0,0.0
1776357602863979152,28224,0.0,0.3,0.0,0.8,-0.1,0.04,-0.0,-3.56,3.69,0.01,0.01,-0.38,0.06,-0.0,0.0,284.52,232.0,0.0,0.0,0.0,0.0
1776357602962253717,28323,0.0,0.2,0.0,0.1,0.04,0.04,-0.0,-3.56,3.69,0.0,-0.0,-0.41,-0.0,-0.25,0.0,292.92,230.0,0.0,0.0,0.0,0.0
1776357603060530387,28423,0.0,0.3,0.0,0.7,-0.16,-0.04,-0.0,-3.56,3.69,0.03,0.01,-0.4,-0.0,-0.12,0.06,292.75,230.0,0.0,0.0,0.0,0.0
1776357603163022415,28523,0.0,0.3,0.0,0.9,-0.08,0.0,-0.0,-3.56,3.69,0.0,-0.0,-0.38,-0.0,-0.06,0.06,302.18,231.0,0.0,0.0,0.0,0.0
1776357603263192702,28623,0.0,1.1,0.0,1.0,-0.04,-0.04,-0.0,-3.56,3.69,0.02,-0.01,-0.38,-0.0,-0.0,-0.06,11973.27,229.0,0.0,0.0,0.0,0.0
1776357603363674605,28723,0.0,0.3,0.0,0.1,0.0,-0.08,-0.0,-3.56,3.69,0.02,-0.01,-0.39,0.12,-0.12,0.0,219.35,229.0,0.0,0.0,0.0,0.0
1776357603462013289,28823,0.0,0.3,0.0,1.1,-0.1,0.1,-0.0,-3.56,3.69,0.02,-0.02,-0.38,0.06,0.12,0.0,314.36,231.0,0.0,0.0,0.0,0.0
1776357603560266916,28922,0.0,0.2,0.0,1.1,0.04,-0.04,-0.0,-3.56,3.69,0.01,-0.02,-0.39,0.12,0.06,0.06,305.96,231.0,0.0,0.0,0.0,0.0
1776357603662672295,29022,0.0,0.6,0.0,0.6,0.12,-0.12,-0.0,-3.56,3.69,0.03,-0.0,-0.39,0.12,-0.0,0.06,303.04,229.0,0.0,0.0,0.0,0.0
1776357603773115172,29123,0.0,0.4,0.0,0.5,-0.1,-0.12,-0.0,-3.56,3.69,0.01,-0.0,-0.38,-0.06,-0.0,0.12,11974.47,230.0,0.0,0.0,0.0,0.0
1776357603871353669,29223,0.0,-0.2,0.0,0.5,-0.04,-0.04,-0.0,-3.56,3.69,0.0,-0.0,-0.39,-0.06,0.12,-0.12,11971.21,229.0,0.0,0.0,0.0,0.0
1776357603961696188,29323,0.0,0.3,0.0,0.9,0.02,-0.1,-0.0,-3.56,3.69,0.01,-0.0,-0.39,0.06,-0.06,0.0,11972.07,229.0,0.0,0.0,0.0,0.0
1776357604064075245,29423,0.0,0.2,0.0,1.3,-0.04,0.02,-0.0,-3.56,3.69,0.06,-0.01,-0.37,0.06,-0.06,0.0,297.55,229.0,0.0,0.0,0.0,0.0
1776357604162390090,29522,0.0,0.0,0.0,0.9,-0.04,-0.1,-0.0,-3.56,3.69,0.0,-0.0,-0.36,-0.0,-0.06,0.0,297.04,229.0,0.0,0.0,0.0,0.0
1776357604260680878,29622,0.004,0.3,0.0,0.2,0.0,-0.1,-0.0,-3.56,3.69,0.02,-0.0,-0.4,-0.0,0.19,-0.06,198.94,229.0,0.0,0.0,0.0,0.0
1776357604363077321,29722,0.0,0.7,0.0,0.8,0.0,-0.06,-0.0,-3.56,3.69,0.02,0.01,-0.39,0.06,-0.19,0.12,194.65,229.0,0.0,0.0,0.0,0.0
1776357604461418240,29821,0.0,0.2,0.0,0.3,-0.16,-0.04,-0.0,-3.56,3.69,0.01,-0.01,-0.41,-0.06,0.12,0.06,194.82,234.0,0.0,0.0,0.0,0.0
1776357604563810793,29922,0.0,0.4,0.0,0.5,0.06,-0.12,-0.0,-3.56,3.69,0.0,-0.0,-0.38,0.06,0.19,-0.12,194.65,233.0,0.0,0.0,0.0,0.0
1776357604662085471,30023,0.0,0.6,0.0,0.9,0.0,-0.1,-0.0,-3.56,3.69,0.04,0.01,-0.38,0.06,-0.25,0.12,198.77,233.0,0.0,0.0,0.0,0.0
1776357604764470043,30123,0.004,0.0,0.0,1.0,-0.02,-0.14,-0.0,-3.56,3.69,0.02,-0.0,-0.37,0.06,0.06,0.06,211.97,235.0,0.0,0.0,0.0,0.0
1776357604862780406,30223,0.0,0.0,0.0,1.1,-0.12,-0.1,-0.0,-3.56,3.69,0.01,-0.03,-0.37,0.06,-0.12,-0.06,211.97,233.0,0.0,0.0,0.0,0.0
1776357604961125603,30322,0.0,0.3,0.0,1.3,-0.04,-0.06,-0.0,-3.56,3.69,0.03,-0.0,-0.39,0.12,-0.12,0.12,211.97,233.0,0.0,0.0,0.0,0.0
1776357605063481952,30423,0.0,0.2,0.0,0.3,0.06,-0.14,-0.0,-3.56,3.69,0.03,0.01,-0.4,-0.0,-0.06,0.06,207.86,235.0,0.0,0.0,0.0,0.0
1776357605161764111,30523,0.0,0.4,0.0,0.4,0.02,0.02,-0.0,-3.56,3.69,0.01,-0.0,-0.38,-0.12,-0.0,-0.06,219.86,233.0,0.0,0.0,0.0,0.0
1776357605264191236,30622,0.0,0.1,0.0,0.5,-0.04,0.02,-0.0,-3.56,3.69,0.01,-0.0,-0.37,-0.0,-0.19,0.0,216.78,233.0,0.0,0.0,0.0,0.0
1776357605362537915,30722,0.004,0.3,0.0,0.5,-0.1,-0.04,-0.0,-3.56,3.69,0.01,-0.0,-0.39,0.06,-0.19,0.0,221.06,234.0,0.0,0.0,0.0,0.0
1776357605470948476,30822,0.0,0.1,0.0,1.2,-0.1,-0.06,-0.0,-3.56,3.69,0.01,0.01,-0.39,-0.12,-0.06,0.0,228.95,235.0,0.0,0.0,0.0,0.0
1776357605563192161,30922,0.004,0.3,0.0,0.9,-0.04,-0.14,-0.0,-3.56,3.69,0.01,-0.01,-0.35,-0.0,-0.06,0.06,229.98,235.0,0.0,0.0,0.0,0.0
1776357605661457116,31022,0.0,0.1,0.0,0.9,0.02,-0.14,-0.0,-3.56,3.69,0.0,-0.0,-0.37,-0.0,0.25,0.12,243.02,235.0,0.0,0.0,0.0,0.0
1776357605763904594,31122,0.0,0.5,0.0,0.6,0.02,-0.16,-0.0,-3.56,3.69,0.0,0.01,-0.39,-0.0,0.06,0.0,243.19,235.0,0.0,0.0,0.0,0.0
1776357605862197809,31222,0.0,0.3,0.0,0.6,-0.04,0.0,-0.0,-3.56,3.69,0.02,-0.02,-0.36,-0.06,0.12,0.0,233.75,234.0,0.0,0.0,0.0,0.0
1776357605964653693,31323,0.0,1.0,0.0,0.2,-0.08,-0.1,-0.0,-3.56,3.69,0.01,0.03,-0.36,-0.0,-0.0,-0.06,234.61,235.0,0.0,0.0,0.0,0.0
1776357606066978029,31424,0.0,0.2,0.0,1.0,0.02,-0.08,-0.0,-3.56,3.69,0.05,0.01,-0.38,0.06,-0.0,0.0,234.78,235.0,0.0,0.0,0.0,0.0
1776357606165296381,31524,0.0,1.1,0.0,0.8,0.06,-0.14,-0.0,-3.56,3.69,0.03,-0.02,-0.37,0.06,-0.19,0.0,234.61,234.0,0.0,0.0,0.0,0.0
1776357606267683730,31625,0.0,0.2,0.0,0.9,-0.1,-0.02,-0.0,-3.56,3.69,0.0,-0.0,-0.36,-0.0,0.06,-0.12,234.78,235.0,0.0,0.0,0.0,0.0
1776357606366037248,31725,0.0,0.4,0.0,0.5,-0.14,-0.1,-0.0,-3.56,3.69,0.02,-0.02,-0.41,-0.0,-0.19,-0.12,243.19,235.0,0.0,0.0,0.0,0.0
1776357606468396170,31825,0.0,0.5,0.0,0.5,-0.02,-0.08,-0.0,-3.56,3.69,0.01,-0.01,-0.38,0.19,-0.0,0.0,243.19,235.0,0.0,0.0,0.0,0.0
1776357606566729719,31925,0.0,0.3,0.0,0.8,0.04,0.12,-0.0,-3.56,3.69,0.02,-0.03,-0.41,-0.0,0.12,-0.06,247.3,236.0,0.0,0.0,0.0,0.0
1776357606664980897,32025,0.0,0.0,0.0,1.3,-0.04,-0.04,-0.0,-3.56,3.69,0.0,0.02,-0.37,-0.19,-0.0,-0.12,247.3,236.0,0.0,0.0,0.0,0.0
1776357606767390546,32124,0.0,0.5,0.0,0.8,-0.14,-0.04,-0.0,-3.56,3.69,0.0,-0.01,-0.39,-0.0,-0.0,0.06,241.99,235.0,0.0,0.0,0.0,0.0
1776357606865676854,32225,0.004,0.3,0.0,0.8,0.04,0.08,-0.0,-3.56,3.69,0.01,-0.0,-0.36,0.06,0.06,0.0,229.98,235.0,0.0,0.0,0.0,0.0
1776357606968135356,32325,0.0,0.3,0.0,0.3,-0.04,0.0,-0.0,-3.56,3.69,0.02,0.01,-0.38,-0.06,-0.06,0.0,224.66,236.0,0.0,0.0,0.0,0.0
1776357607066363315,32424,0.0,0.6,0.0,1.1,0.04,0.04,-0.0,-3.56,3.69,0.0,-0.0,-0.39,-0.0,0.06,0.12,225.69,236.0,0.0,0.0,0.0,0.0
1776357607164691727,32524,0.0,0.2,0.0,1.1,0.0,-0.02,-0.0,-3.56,3.69,0.03,-0.02,-0.41,-0.0,0.06,0.0,233.07,236.0,0.0,0.0,0.0,0.0
1776357607267098515,32624,0.0,0.2,0.0,0.3,-0.12,0.02,-0.0,-3.56,3.69,0.01,0.02,-0.41,-0.0,-0.06,-0.12,254.51,236.0,0.0,0.0,0.0,0.0
1776357607365391148,32723,0.0,0.1,0.0,0.9,-0.12,-0.14,-0.0,-3.56,3.69,0.0,-0.01,-0.38,0.19,-0.0,0.06,255.71,234.0,0.0,0.0,0.0,0.0
1776357607467797251,32824,0.0,0.5,0.0,0.7,0.06,0.0,-0.0,-3.56,3.69,0.03,-0.02,-0.4,0.06,0.19,-0.19,251.42,234.0,0.0,0.0,0.0,0.0
1776357607566101699,32925,0.0,0.2,0.0,1.0,-0.06,-0.16,-0.0,-3.56,3.69,0.0,-0.0,-0.41,0.06,0.06,0.0,241.99,236.0,0.0,0.0,0.0,0.0
1776357607668486783,33025,0.004,0.3,0.0,0.8,0.16,0.04,-0.0,-3.56,3.69,0.01,-0.03,-0.41,0.19,-0.19,0.0,241.99,235.0,0.0,0.0,0.0,0.0
1776357607766763674,33126,0.0,0.7,0.0,0.4,-0.02,0.04,-0.0,-3.56,3.69,0.0,-0.02,-0.39,-0.0,-0.0,0.06,233.58,235.0,0.0,0.0,0.0,0.0
1776357607869196426,33226,0.0,0.5,0.0,0.1,-0.08,0.04,-0.0,-3.56,3.69,0.02,0.01,-0.4,0.12,-0.0,-0.06,230.5,236.0,0.0,0.0,0.0,0.0
1776357607967543819,33326,0.0,0.6,0.0,0.3,-0.14,-0.18,-0.0,-3.56,3.69,0.0,0.01,-0.39,-0.0,0.06,0.06,229.64,234.0,0.0,0.0,0.0,0.0
1776357608075919463,33426,0.0,0.3,0.0,1.0,0.02,-0.06,-0.0,-3.56,3.69,0.01,-0.01,-0.38,0.06,-0.19,-0.12,237.87,234.0,0.0,0.0,0.0,0.0
1776357608168200148,33525,0.004,0.3,0.0,0.8,-0.1,0.04,-0.0,-3.56,3.69,0.0,-0.0,-0.39,-0.0,-0.12,0.0,246.27,237.0,0.0,0.0,0.0,0.0
1776357608266443726,33626,0.004,0.1,0.0,0.3,-0.04,0.02,-0.0,-3.56,3.69,0.03,-0.0,-0.4,-0.06,-0.0,0.06,242.16,237.0,0.0,0.0,0.0,0.0
1776357608368899144,33726,0.004,0.3,0.0,0.6,0.12,-0.18,-0.0,-3.56,3.69,0.0,-0.03,-0.39,-0.12,-0.06,0.0,246.27,235.0,0.0,0.0,0.0,0.0
1776357608467175593,33826,0.0,0.9,0.0,0.8,0.0,-0.06,-0.0,-3.56,3.69,0.01,-0.0,-0.42,-0.06,0.31,0.06,247.99,237.0,0.0,0.0,0.0,0.0
1776357608569601714,33927,0.0,0.2,0.0,0.4,-0.08,0.06,-0.0,-3.56,3.69,0.01,-0.0,-0.38,-0.12,-0.0,0.06,235.47,237.0,0.0,0.0,0.0,0.0
1776357608667901570,34027,0.0,0.2,0.0,0.5,0.08,-0.08,-0.0,-3.56,3.69,0.01,-0.02,-0.39,-0.0,-0.06,0.0,239.59,235.0,0.0,0.0,0.0,0.0
1776357608770300895,34126,0.0,0.1,0.0,0.4,-0.06,-0.04,-0.0,-3.56,3.69,0.02,-0.0,-0.39,-0.12,0.12,0.0,239.59,237.0,0.0,0.0,0.0,0.0
1776357608868609770,34226,0.0,0.2,0.0,0.7,0.06,0.04,-0.0,-3.56,3.69,0.0,-0.0,-0.41,-0.12,-0.06,0.06,246.96,237.0,0.0,0.0,0.0,0.0
1776357608966914571,34326,0.0,0.4,0.0,0.5,0.14,-0.06,-0.0,-3.56,3.69,0.0,-0.01,-0.38,0.12,-0.19,-0.06,252.11,236.0,0.0,0.0,0.0,0.0
1776357609069287512,34425,0.004,0.4,0.0,0.3,0.14,-0.04,-0.0,-3.56,3.69,0.0,-0.02,-0.4,0.06,-0.25,-0.06,251.08,236.0,0.0,0.0,0.0,0.0
1776357609167609872,34525,0.0,0.2,0.0,0.8,-0.1,-0.16,-0.0,-3.56,3.69,0.0,-0.0,-0.39,-0.0,0.06,0.0,251.59,237.0,0.0,0.0,0.0,0.0
1776357609276104830,34625,0.0,0.5,0.0,0.4,-0.04,-0.1,-0.0,-3.56,3.69,0.01,-0.02,-0.37,-0.0,-0.06,0.0,251.59,236.0,0.0,0.0,0.0,0.0
1776357609368320520,34724,0.0,0.2,0.0,0.5,0.06,-0.16,-0.0,-3.56,3.69,0.0,-0.0,-0.4,-0.06,0.06,-0.06,241.99,236.0,0.0,0.0,0.0,0.0
1776357609466613361,34824,0.0,0.4,0.0,1.1,-0.08,-0.04,-0.0,-3.56,3.69,0.0,-0.0,-0.41,-0.0,-0.06,-0.06,239.07,236.0,0.0,0.0,0.0,0.0
1776357609569011260,34924,0.0,-0.2,0.0,1.0,0.08,0.02,-0.0,-3.56,3.69,0.02,-0.0,-0.36,0.12,-0.12,0.0,251.42,234.0,0.0,0.0,0.0,0.0
1776357609667336306,35024,0.0,0.8,0.0,1.0,-0.08,-0.04,-0.0,-3.56,3.69,0.02,-0.02,-0.37,-0.06,-0.0,0.12,247.3,234.0,0.0,0.0,0.0,0.0
1776357609769742279,35124,0.004,0.4,0.0,1.1,0.02,-0.12,-0.0,-3.56,3.69,0.0,0.01,-0.39,-0.0,-0.06,0.0,247.82,236.0,0.0,0.0,0.0,0.0
1776357609868010750,35224,0.0,0.3,0.0,0.7,0.12,-0.14,-0.0,-3.56,3.69,0.0,-0.0,-0.38,-0.0,-0.12,-0.06,242.16,234.0,0.0,0.0,0.0,0.0
1776357609966316795,35323,0.0,0.2,0.0,1.0,-0.08,-0.08,-0.0,-3.56,3.69,0.0,0.02,-0.39,-0.06,-0.0,-0.06,243.02,234.0,0.0,0.0,0.0,0.0
1776357610068703863,35423,0.0,0.4,0.0,0.8,-0.08,0.02,-0.0,-3.56,3.69,0.02,-0.0,-0.37,-0.12,0.06,0.0,243.19,237.0,0.0,0.0,0.0,0.0
1776357610167007617,35523,0.0,0.4,0.0,0.1,0.18,-0.14,-0.0,-3.56,3.69,0.0,-0.0,-0.39,-0.0,-0.06,0.06,247.3,236.0,0.0,0.0,0.0,0.0
1776357610265339500,35623,0.0,0.3,0.0,1.3,0.02,-0.06,-0.0,-3.56,3.69,0.0,-0.0,-0.38,-0.06,0.06,-0.06,251.59,236.0,0.0,0.0,0.0,0.0
1776357610367716531,35723,0.004,0.1,0.0,1.0,-0.21,-0.04,-0.0,-3.56,3.69,0.02,0.02,-0.37,0.06,-0.0,-0.06,247.47,238.0,0.0,0.0,0.0,0.0
1776357610466045637,35823,0.0,0.1,0.0,0.4,-0.04,0.04,-0.0,-3.56,3.69,0.01,-0.01,-0.37,-0.0,-0.12,0.06,255.71,238.0,0.0,0.0,0.0,0.0
1776357610568413224,35922,0.0,0.1,0.0,1.0,-0.04,0.04,-0.0,-3.56,3.69,0.01,-0.0,-0.4,0.06,0.12,0.06,203.74,234.0,0.0,0.0,0.0,0.0
1776357610666723163,36023,0.0,0.3,0.0,0.0,0.0,-0.04,-0.0,-3.56,3.69,0.04,-0.0,-0.37,-0.06,0.12,-0.06,207.86,231.0,0.0,0.0,0.0,0.0
1776357610765030175,36123,0.0,0.4,0.0,0.3,-0.02,-0.02,-0.0,-3.56,3.69,0.01,0.01,-0.37,-0.0,-0.12,-0.06,215.75,231.0,0.0,0.0,0.0,0.0
1776357610867443411,36222,0.0,0.4,0.0,0.9,-0.18,-0.08,-0.0,-3.56,3.69,-0.01,-0.0,-0.35,0.12,-0.12,0.12,225.87,231.0,0.0,0.0,0.0,0.0
1776357610965768776,36322,0.0,0.4,0.0,0.9,-0.1,-0.08,-0.0,-3.56,3.69,0.01,-0.0,-0.4,0.06,-0.0,0.0,237.87,231.0,0.0,0.0,0.0,0.0
1776357611064009721,36421,0.0,0.7,0.0,0.0,-0.02,-0.08,-0.0,-3.56,3.69,0.02,-0.0,-0.4,-0.0,-0.19,-0.06,238.9,231.0,0.0,0.0,0.0,0.0
1776357611166484314,36520,0.0,0.2,0.0,0.3,-0.16,-0.14,-0.0,-3.56,3.69,0.01,-0.0,-0.38,0.06,-0.06,-0.06,247.3,232.0,0.0,0.0,0.0,0.0
1776357611264734907,36620,0.0,0.1,0.0,0.6,-0.08,-0.1,-0.0,-3.56,3.69,0.0,-0.0,-0.38,-0.0,-0.31,0.0,259.82,232.0,0.0,0.0,0.0,0.0
1776357611363033518,36720,0.0,0.2,0.0,0.5,0.06,-0.1,-0.0,-3.56,3.69,0.0,0.01,-0.37,-0.12,-0.0,0.06,262.91,232.0,0.0,0.0,0.0,0.0
1776357611465437202,36819,0.0,0.2,0.0,1.1,0.0,-0.12,-0.0,-3.56,3.69,0.02,0.01,-0.39,0.12,0.06,0.0,207.86,233.0,0.0,0.0,0.0,0.0
1776357611563721073,36919,0.0,0.2,0.0,0.9,0.0,0.0,-0.0,-3.56,3.69,0.0,0.01,-0.37,-0.06,-0.0,0.0,218.15,233.0,0.0,0.0,0.0,0.0
1776357611662059648,37019,0.004,0.1,0.0,1.1,-0.06,-0.08,-0.0,-3.56,3.69,0.01,-0.02,-0.4,0.06,0.12,0.0,213.17,233.0,0.0,0.0,0.0,0.0
1776357611764443536,37120,0.0,0.1,0.0,1.0,-0.08,0.1,-0.0,-3.56,3.69,0.03,0.03,-0.38,-0.0,0.12,0.0,216.95,236.0,0.0,0.0,0.0,0.0
1776357611866833424,37221,0.0,0.1,0.0,1.3,-0.1,-0.04,-0.0,-3.56,3.69,0.01,-0.0,-0.36,-0.06,0.12,0.06,213.86,236.0,0.0,0.0,0.0,0.0
1776357611965133443,37321,0.004,0.0,0.0,0.1,-0.08,-0.08,-0.0,-3.56,3.69,0.01,-0.03,-0.38,-0.06,0.12,0.12,210.26,241.0,0.0,0.0,0.0,0.0
1776357612067522225,37421,0.0,0.9,0.0,1.0,-0.04,0.04,-0.0,-3.56,3.69,0.05,0.02,-0.36,-0.06,0.06,-0.06,210.09,240.0,0.0,0.0,0.0,0.0
1776357612165838808,37521,0.0,0.4,0.0,1.0,-0.02,-0.04,-0.0,-3.56,3.69,0.03,0.03,-0.38,0.06,-0.19,-0.12,217.98,240.0,0.0,0.0,0.0,0.0
1776357612274282288,37621,0.0,0.0,0.0,0.2,-0.04,-0.08,-0.0,-3.56,3.69,0.01,-0.02,-0.37,-0.06,0.06,0.12,213.86,242.0,0.0,0.0,0.0,0.0
1776357612366544933,37721,0.0,0.3,0.0,1.0,-0.14,-0.02,-0.0,-3.56,3.69,0.01,0.01,-0.37,-0.0,0.06,0.0,217.98,241.0,0.0,0.0,0.0,0.0
1776357612468954660,37821,0.0,0.1,0.0,0.6,0.02,-0.04,-0.0,-3.56,3.69,0.0,-0.0,-0.37,0.06,-0.0,0.0,212.83,241.0,0.0,0.0,0.0,0.0
1776357612567252983,37922,0.0,0.5,0.0,1.2,-0.12,-0.08,-0.0,-3.56,3.69,0.03,0.01,-0.38,-0.0,-0.12,0.0,213.86,242.0,0.0,0.0,0.0,0.0
1776357612665506750,38022,0.0,0.1,0.0,0.7,0.0,-0.12,-0.0,-3.56,3.69,0.0,0.03,-0.36,-0.0,-0.25,0.12,218.66,242.0,0.0,0.0,0.0,0.0
1776357612767933015,38122,0.004,0.2,0.0,0.1,-0.04,-0.04,-0.0,-3.56,3.69,0.03,-0.03,-0.41,-0.12,0.06,0.0,210.26,244.0,0.0,0.0,0.0,0.0
1776357612866245227,38221,0.0,0.1,0.0,0.8,-0.04,-0.04,-0.0,-3.56,3.69,0.01,-0.01,-0.38,0.06,-0.12,0.06,210.26,243.0,0.0,0.0,0.0,0.0
1776357612964522198,38321,0.0,0.2,0.0,0.9,-0.2,-0.06,-0.0,-3.56,3.69,0.01,0.02,-0.37,0.06,-0.06,0.12,210.26,243.0,0.0,0.0,0.0,0.0
1776357613066932378,38421,0.0,0.3,0.0,0.2,0.06,-0.04,-0.0,-3.56,3.69,0.03,-0.0,-0.4,-0.0,-0.06,0.0,210.94,243.0,0.0,0.0,0.0,0.0
1776357613165247156,38520,0.0,0.0,0.0,0.3,0.0,-0.02,-0.0,-3.56,3.69,0.01,-0.0,-0.38,-0.06,-0.06,0.0,205.63,245.0,0.0,0.0,0.0,0.0
1776357613267649223,38621,0.0,0.8,0.0,0.8,-0.08,0.02,-0.0,-3.56,3.69,0.0,0.02,-0.38,-0.0,-0.19,0.06,202.54,245.0,0.0,0.0,0.0,0.0
1776357613365950797,38721,0.0,0.3,0.0,0.2,0.0,-0.1,-0.0,-3.56,3.69,0.04,0.02,-0.38,0.12,-0.0,0.12,201.34,244.0,0.0,0.0,0.0,0.0
1776357613468355420,38821,0.004,0.0,0.0,0.8,0.0,0.02,-0.0,-3.56,3.69,0.0,-0.01,-0.39,-0.0,0.06,-0.12,202.37,243.0,0.0,0.0,0.0,0.0
1776357613566642216,38921,0.0,0.2,0.0,0.9,0.02,0.1,-0.0,-3.56,3.69,0.02,0.01,-0.37,0.06,0.06,-0.06,201.34,243.0,0.0,0.0,0.0,0.0
1776357613664918863,39021,0.0,0.1,0.0,0.8,-0.1,-0.06,-0.0,-3.56,3.69,0.04,-0.0,-0.38,-0.12,-0.06,0.0,202.54,242.0,0.0,0.0,0.0,0.0
1776357613767369376,39120,0.0,0.6,0.0,0.2,-0.02,-0.12,-0.0,-3.56,3.69,0.0,-0.01,-0.37,-0.12,-0.06,0.06,206.66,242.0,0.0,0.0,0.0,0.0
1776357613865659634,39220,0.0,0.1,0.0,0.7,0.1,-0.08,-0.0,-3.56,3.69,0.03,-0.0,-0.4,-0.25,0.19,0.0,209.74,243.0,0.0,0.0,0.0,0.0
1776357613968053350,39321,0.0,0.1,0.0,1.3,0.0,-0.14,-0.0,-3.56,3.69,0.01,-0.0,-0.38,0.12,-0.12,0.06,210.26,241.0,0.0,0.0,0.0,0.0
1776357614066345265,39420,0.0,0.2,0.0,0.9,-0.06,-0.14,-0.0,-3.56,3.69,0.1,-0.11,-0.4,-0.06,-0.12,-0.06,209.06,241.0,0.0,0.0,0.0,0.0
1776357614166863441,39520,0.0,0.5,0.0,1.3,-0.02,0.0,-0.0,-3.56,3.69,0.14,0.04,-0.41,-0.06,-0.63,0.12,11973.79,238.0,0.0,0.0,0.0,0.0
1776357614267059889,39620,0.004,0.2,0.0,0.8,-0.02,0.0,-0.0,-3.5,3.69,0.05,0.02,-0.39,-0.0,0.19,0.0,190.54,223.0,0.0,0.0,0.0,0.0
1776357614365363344,39719,0.0,0.2,0.0,0.8,0.04,-0.12,-0.0,-3.5,3.69,0.0,0.04,-0.31,0.06,0.31,-0.06,205.63,223.0,0.0,0.0,0.0,0.0
1776357614467727457,39819,0.004,0.4,0.0,0.9,-0.16,0.02,-0.0,-3.5,3.69,0.01,-0.04,-0.39,-0.06,-0.0,0.12,309.56,224.0,0.0,0.0,0.0,0.0
1776357614566058912,39919,0.004,0.0,0.0,1.0,0.1,-0.04,-0.0,-3.5,3.69,-0.01,-0.13,-0.4,-0.0,-0.37,0.12,190.02,220.0,0.0,0.0,0.0,0.0
1776357614664352052,40019,0.0,0.3,0.0,1.1,-0.02,-0.04,-0.0,-3.44,3.69,0.02,0.08,-0.37,-0.19,-1.0,0.25,243.87,220.0,0.0,0.0,0.0,0.0
1776357614766760036,40119,0.0,0.9,0.0,0.6,0.08,-0.06,-0.0,-3.38,3.69,0.05,0.07,-0.4,-0.0,1.06,-0.19,244.39,273.0,0.0,0.0,0.0,0.0
1776357614865091121,40220,0.0,0.0,0.0,1.2,0.02,0.02,-0.0,-3.44,3.69,0.02,-0.02,-0.38,-0.0,0.31,0.0,244.39,273.0,0.0,0.0,0.0,0.0
1776357614967433919,40320,0.0,0.4,0.0,0.7,-0.04,-0.08,-0.0,-3.44,3.69,0.04,-0.19,-0.41,0.06,-0.25,-0.19,244.39,278.0,0.0,0.0,0.0,0.0
1776357615065716364,40421,0.004,0.1,0.0,0.5,-0.02,-0.06,-0.0,-3.44,3.69,-0.01,-0.0,-0.37,0.06,-0.44,0.25,245.59,278.0,0.0,0.0,0.0,0.0
1776357615168155304,40520,0.0,0.2,0.0,1.0,0.06,-0.14,-0.0,-3.44,3.69,0.07,0.09,-0.37,-0.06,0.06,0.06,244.39,278.0,0.0,0.0,0.0,0.0
1776357615266452048,40620,0.0,0.0,0.0,0.7,-0.02,-0.18,-0.0,-3.44,3.69,-0.01,0.07,-0.41,0.06,0.44,0.0,245.59,275.0,0.0,0.0,0.0,0.0
1776357615368851080,40721,0.0,0.3,0.0,0.3,0.02,-0.02,-0.0,-3.5,3.69,-0.03,-0.06,-0.33,-0.12,1.0,-0.25,254.51,277.0,0.0,0.0,0.0,0.0
1776357615467184121,40820,0.0,0.5,0.0,0.5,-0.04,-0.23,-0.0,-3.63,3.69,0.03,-0.13,-0.37,0.19,-0.44,-0.19,249.7,277.0,0.0,0.0,0.0,0.0
1776357615569560430,40921,0.004,0.3,0.0,1.1,-0.1,-0.06,-0.0,-3.63,3.69,-0.03,0.1,-0.37,-0.0,-0.19,-0.25,250.39,279.0,0.0,0.0,0.0,0.0
1776357615667864157,41021,0.0,0.4,0.0,1.0,-0.14,-0.18,-0.0,-3.63,3.69,0.04,0.13,-0.37,-0.0,-0.0,0.12,253.48,276.0,0.0,0.0,0.0,0.0
1776357615766142660,41120,0.0,0.7,0.0,0.7,-0.21,-0.02,-0.0,-3.63,3.69,0.01,-0.03,-0.4,-0.0,-0.0,0.0,253.48,276.0,0.0,0.0,0.0,0.0
1776357615868566433,41220,0.0,0.4,0.0,0.8,-0.04,-0.14,-0.0,-3.63,3.69,0.01,0.02,-0.38,-0.06,-0.31,-0.06,249.19,278.0,0.0,0.0,0.0,0.0
1776357615966878381,41320,0.0,0.3,0.0,1.0,-0.04,-0.02,-0.0,-3.63,3.69,-0.02,0.01,-0.38,-0.0,-0.25,0.25,249.19,278.0,0.0,0.0,0.0,0.0
1776357616069273458,41420,0.0,0.6,0.0,0.9,-0.06,-0.06,-0.0,-3.63,3.69,0.0,-0.02,-0.37,-0.12,0.25,-0.06,250.22,279.0,0.0,0.0,0.0,0.0
1776357616167547123,41521,0.0,0.1,0.0,0.7,-0.16,-0.02,-0.0,-3.63,3.69,0.0,-0.07,-0.35,-0.25,0.19,-0.12,250.22,279.0,0.0,0.0,0.0,0.0
1776357616269958908,41622,0.0,0.1,0.0,1.4,-0.06,-0.02,-0.0,-3.63,3.69,0.0,0.12,-0.4,0.12,-0.63,0.31,254.51,279.0,0.0,0.0,0.0,0.0
1776357616368332871,41721,0.0,0.8,0.0,0.2,0.04,-0.02,-0.0,-3.63,3.69,0.05,-0.01,-0.4,-0.0,-0.06,-0.12,241.3,281.0,0.0,0.0,0.0,0.0
1776357616470654413,41821,0.0,0.3,0.0,0.5,-0.04,-0.02,-0.0,-3.63,3.69,0.06,0.01,-0.42,-0.0,0.31,-0.12,240.27,275.0,0.0,0.0,0.0,0.0
1776357616568968190,41922,0.0,0.5,0.0,0.9,0.02,0.0,-0.0,-3.63,3.69,-0.03,-0.02,-0.39,0.12,-0.19,0.06,253.48,275.0,0.0,0.0,0.0,0.0
1776357616677315770,42021,0.004,0.4,0.0,0.9,-0.14,0.02,-0.0,-3.63,3.69,-0.04,-0.0,-0.4,-0.12,-0.12,0.0,254.51,281.0,0.0,0.0,0.0,0.0
1776357616769666566,42122,0.004,0.2,0.0,1.0,0.08,0.0,-0.0,-3.63,3.69,-0.05,-0.12,-0.29,0.06,0.75,-0.31,254.51,279.0,0.0,0.0,0.0,0.0
1776357616872058313,42223,0.0,0.1,0.0,1.1,0.04,-0.06,-0.0,-3.63,3.69,0.06,0.12,-0.4,0.19,-0.69,0.31,253.48,279.0,0.0,0.0,0.0,0.0
1776357616970439887,42322,0.0,0.1,0.0,1.1,-0.16,-0.02,-0.0,-3.63,3.69,-0.01,-0.03,-0.41,0.06,-0.0,0.06,249.36,280.0,0.0,0.0,0.0,0.0
1776357617072752382,42423,0.0,0.3,0.0,0.7,-0.08,-0.08,-0.0,-3.63,3.69,0.03,-0.0,-0.3,-0.12,0.44,-0.19,249.36,277.0,0.0,0.0,0.0,0.0
1776357617171076600,42524,0.0,0.2,0.0,1.0,-0.04,-0.12,-0.0,-3.63,3.69,-0.13,-0.01,-0.41,0.19,-0.5,0.0,250.39,277.0,0.0,0.0,0.0,0.0
1776357617273475360,42624,0.008,0.0,0.0,0.4,0.04,-0.12,-0.0,-3.63,3.69,-0.01,-0.07,-0.36,-0.0,0.25,0.06,254.51,278.0,0.0,0.0,0.0,0.0
1776357617371765800,42724,0.004,0.0,0.0,0.2,0.02,0.0,-0.0,-3.63,3.69,0.18,0.13,-0.45,-0.06,0.5,-0.06,244.56,278.0,0.0,0.0,0.0,0.0
1776357617480148187,42824,0.0,0.3,0.0,1.0,-0.06,-0.08,-0.0,-3.63,3.69,0.0,0.02,-0.39,0.06,-0.37,0.12,244.56,278.0,0.0,0.0,0.0,0.0
1776357617572528556,42924,0.0,0.3,0.0,1.3,0.12,-0.1,-0.0,-3.63,3.69,0.05,-0.02,-0.4,-0.19,-0.0,0.0,241.47,279.0,0.0,0.0,0.0,0.0
1776357617674872872,43025,0.0,0.5,0.0,0.1,-0.06,-0.16,-0.0,-3.63,3.69,-0.07,0.11,-0.34,0.06,0.37,-0.06,241.3,279.0,0.0,0.0,0.0,0.0
1776357617773176034,43125,0.0,0.4,0.0,1.0,0.1,0.06,-0.0,-3.63,3.69,0.0,-0.02,-0.39,0.06,-0.56,0.12,241.3,280.0,0.0,0.0,0.0,0.0
1776357617875582405,43225,0.0,0.0,0.0,0.5,-0.06,0.0,-0.0,-3.63,3.69,-0.04,-0.06,-0.39,-0.06,0.12,0.06,240.27,282.0,0.0,0.0,0.0,0.0
1776357617973878715,43325,0.0,0.8,0.0,0.9,-0.14,-0.08,-0.0,-3.63,3.69,-0.05,0.03,-0.34,0.12,0.19,0.06,240.27,282.0,0.0,0.0,0.0,0.0
1776357618076255483,43425,0.0,0.4,0.0,0.0,-0.02,-0.1,-0.0,-3.63,3.69,-0.01,-0.04,-0.4,0.06,-0.12,0.0,249.19,276.0,0.0,0.0,0.0,0.0
1776357618174626051,43526,0.0,0.3,0.0,0.6,-0.08,-0.04,-0.0,-3.63,3.69,0.03,-0.03,-0.39,-0.19,0.25,-0.12,240.27,278.0,0.0,0.0,0.0,0.0
1776357618272867561,43626,0.0,0.2,0.0,0.4,-0.02,-0.04,-0.0,-3.63,3.69,0.06,0.08,-0.41,0.06,0.06,-0.06,244.56,278.0,0.0,0.0,0.0,0.0
1776357618375273689,43725,0.0,0.5,0.0,0.1,0.0,-0.02,-0.0,-3.63,3.69,0.02,-0.0,-0.4,0.19,-0.37,0.06,253.48,280.0,0.0,0.0,0.0,0.0
1776357618477676760,43826,0.0,0.2,0.0,1.0,0.2,-0.06,-0.0,-3.63,3.69,0.01,-0.08,-0.36,-0.12,0.31,-0.19,250.22,280.0,0.0,0.0,0.0,0.0
1776357618575966105,43927,0.0,0.2,0.0,0.1,0.08,0.02,-0.0,-3.63,3.69,-0.03,0.02,-0.41,-0.06,-0.0,0.12,249.19,278.0,0.0,0.0,0.0,0.0
1776357618674273301,44026,0.0,0.3,0.0,1.0,-0.04,-0.02,-0.0,-3.63,3.69,0.08,0.07,-0.37,0.25,-0.37,0.12,249.19,277.0,0.0,0.0,0.0,0.0
1776357618776716836,44126,0.0,0.2,0.0,0.5,-0.02,-0.06,-0.0,-3.63,3.69,0.03,-0.0,-0.42,-0.0,-0.25,0.12,253.48,277.0,0.0,0.0,0.0,0.0
1776357618874982199,44226,0.004,0.1,0.0,0.8,-0.02,-0.1,-0.0,-3.63,3.69,0.0,-0.0,-0.39,-0.0,0.12,-0.12,240.44,280.0,0.0,0.0,0.0,0.0
1776357618977380844,44326,0.0,0.1,0.0,0.9,-0.02,-0.06,-0.0,-3.63,3.69,0.1,0.06,-0.37,0.06,-0.44,0.12,240.44,281.0,0.0,0.0,0.0,0.0
1776357619075644179,44426,0.004,0.0,0.0,0.7,0.06,-0.1,-0.0,-3.63,3.69,-0.06,-0.08,-0.36,-0.0,-0.0,0.12,250.22,281.0,0.0,0.0,0.0,0.0
1776357619178062673,44527,0.0,0.2,0.0,0.9,0.0,-0.04,-0.0,-3.63,3.69,0.01,-0.0,-0.42,0.19,0.31,0.0,250.22,280.0,0.0,0.0,0.0,0.0
1776357619276364424,44626,0.004,0.3,0.0,0.2,-0.08,-0.25,-0.0,-3.63,3.69,0.03,-0.01,-0.4,-0.0,-0.06,0.0,250.22,282.0,0.0,0.0,0.0,0.0
1776357619374662916,44726,0.0,0.9,0.0,1.0,0.02,-0.12,-0.0,-3.63,3.69,0.06,0.01,-0.41,-0.12,0.06,0.06,250.39,282.0,0.0,0.0,0.0,0.0
1776357619477068448,44826,0.0,0.4,0.0,0.5,-0.06,-0.1,-0.0,-3.63,3.69,0.0,-0.04,-0.39,-0.19,0.31,-0.06,253.48,276.0,0.0,0.0,0.0,0.0
1776357619575370366,44925,0.0,0.9,0.0,1.1,-0.08,-0.2,-0.0,-3.63,3.69,0.0,-0.0,-0.41,-0.0,0.12,0.0,249.19,274.0,0.0,0.0,0.0,0.0
1776357619673660431,45025,0.0,0.3,0.0,0.7,-0.04,0.04,-0.0,-3.63,3.69,0.0,-0.0,-0.47,-0.06,-0.0,0.06,250.22,274.0,0.0,0.0,0.0,0.0
1776357619776072648,45125,0.0,0.3,0.0,1.1,0.06,-0.12,-0.0,-3.63,3.69,0.02,0.01,-0.39,0.06,0.25,-0.06,250.22,277.0,0.0,0.0,0.0,0.0
1776357619874378696,45224,0.0,0.0,0.0,1.0,-0.04,-0.21,-0.0,-3.63,3.69,-0.03,-0.0,-0.36,-0.06,0.06,0.12,249.19,277.0,0.0,0.0,0.0,0.0
1776357619972661613,45324,0.0,0.3,0.0,1.1,0.0,0.0,-0.0,-3.63,3.69,0.0,0.01,-0.39,0.12,-0.31,0.0,249.19,279.0,0.0,0.0,0.0,0.0
1776357620075038432,45424,0.004,0.2,0.0,0.4,0.02,0.0,-0.0,-3.63,3.69,0.17,0.08,-0.45,0.06,0.06,0.06,250.22,280.0,0.0,0.0,0.0,0.0
1776357620173374202,45523,0.0,0.5,0.0,1.0,0.0,0.0,-0.0,-3.63,3.69,0.17,0.01,-0.42,-0.12,-0.19,0.0,249.19,280.0,0.0,0.0,0.0,0.0
1776357620271638990,45623,0.0,0.1,0.0,0.5,-0.04,-0.08,-0.0,-3.63,3.69,-0.01,-0.0,-0.43,0.12,-0.19,0.06,249.19,281.0,0.0,0.0,0.0,0.0
1776357620374083335,45723,0.0,0.2,0.0,0.8,-0.08,0.0,-0.0,-3.63,3.69,-0.02,-0.06,-0.39,-0.06,0.25,-0.06,249.19,279.0,0.0,0.0,0.0,0.0
1776357620472374327,45822,0.0,0.0,0.0,0.8,0.0,-0.06,-0.0,-3.63,3.69,0.01,0.07,-0.37,-0.12,0.19,-0.12,249.19,279.0,0.0,0.0,0.0,0.0
1776357620574775320,45922,0.0,0.4,0.0,0.6,-0.16,-0.08,-0.0,-3.63,3.69,0.01,0.03,-0.36,-0.06,0.12,0.06,249.19,277.0,0.0,0.0,0.0,0.0
1776357620673078460,46023,0.0,0.0,0.0,0.6,-0.04,0.02,-0.0,-3.63,3.69,0.07,0.04,-0.41,-0.06,0.25,-0.12,249.19,277.0,0.0,0.0,0.0,0.0
1776357620775473490,46123,0.0,0.0,0.0,0.8,-0.2,-0.06,-0.0,-3.63,3.69,0.03,0.06,-0.35,0.12,-0.19,0.0,249.19,279.0,0.0,0.0,0.0,0.0
1776357620873782760,46224,0.004,0.3,0.0,0.7,0.12,0.06,-0.0,-3.63,3.69,0.01,-0.02,-0.41,0.06,0.06,0.0,250.22,278.0,0.0,0.0,0.0,0.0
1776357620976182439,46324,0.0,0.6,0.0,0.9,-0.08,-0.12,-0.0,-3.63,3.69,0.01,-0.0,-0.37,0.19,-0.06,-0.12,250.22,278.0,0.0,0.0,0.0,0.0
1776357621074478497,46424,0.0,0.4,0.0,0.3,0.06,-0.06,-0.0,-3.63,3.69,0.01,0.03,-0.33,-0.0,0.19,0.06,250.22,277.0,0.0,0.0,0.0,0.0
1776357621172745952,46524,0.0,0.4,0.0,0.3,0.0,0.0,-0.0,-3.63,3.69,-0.01,-0.04,-0.38,0.06,0.19,-0.06,249.19,280.0,0.0,0.0,0.0,0.0
1776357621275182705,46623,0.0,0.2,0.0,0.7,0.0,0.04,-0.0,-3.63,3.69,0.06,0.09,-0.4,0.06,0.19,-0.06,250.22,280.0,0.0,0.0,0.0,0.0
1776357621373452864,46724,0.0,0.0,0.0,0.8,0.14,-0.06,-0.0,-3.63,3.69,0.02,-0.06,-0.42,-0.0,-0.0,0.06,250.22,280.0,0.0,0.0,0.0,0.0
1776357621475887413,46824,0.0,0.5,0.0,1.1,0.08,-0.21,-0.0,-3.63,3.69,0.02,-0.0,-0.4,0.06,0.19,0.0,249.19,276.0,0.0,0.0,0.0,0.0
1776357621574182888,46924,0.0,0.2,0.004,0.4,-0.02,-0.18,-0.0,-3.63,3.69,0.05,0.07,-0.37,0.06,0.06,0.0,250.39,276.0,0.0,0.0,0.0,0.0
1776357621676582381,47025,0.0,0.1,0.0,0.8,-0.23,-0.12,-0.0,-3.63,3.69,0.04,0.01,-0.36,-0.0,0.06,0.06,250.39,275.0,0.0,0.0,0.0,0.0
1776357621774864244,47126,0.004,0.5,0.0,0.4,-0.02,0.08,-0.0,-3.63,3.69,0.18,0.08,-0.4,-0.06,-0.19,-0.06,249.19,278.0,0.0,0.0,0.0,0.0
1776357621877275126,47225,0.0,-0.1,0.0,0.7,0.0,0.0,-0.0,-3.63,3.69,0.08,0.07,-0.37,-0.0,-0.25,-0.06,249.19,278.0,0.0,0.0,0.0,0.0
1776357621975606064,47325,0.0,0.5,0.0,0.4,0.06,0.06,-0.0,-3.63,3.69,0.1,-0.04,-0.39,-0.06,-0.12,0.0,250.22,279.0,0.0,0.0,0.0,0.0
1776357622077999993,47425,0.0,0.3,0.0,0.2,0.12,0.04,-0.0,-3.63,3.69,-0.03,0.03,-0.34,-0.06,0.5,-0.19,250.22,279.0,0.0,0.0,0.0,0.0
1776357622176278618,47525,0.0,0.4,0.0,0.7,0.02,-0.06,-0.0,-3.63,3.69,-0.08,-0.01,-0.36,-0.0,-0.31,0.19,250.39,278.0,0.0,0.0,0.0,0.0
1776357622278675630,47625,0.004,0.2,0.0,0.8,0.06,-0.04,-0.0,-3.63,3.69,0.09,-0.05,-0.38,-0.0,-0.12,-0.06,250.22,282.0,0.0,0.0,0.0,0.0
1776357622376979199,47725,0.0,0.5,0.0,0.9,-0.1,0.1,-0.0,-3.63,3.69,-0.03,0.08,-0.38,0.06,0.25,-0.06,250.22,282.0,0.0,0.0,0.0,0.0
1776357622475306732,47824,0.0,0.3,0.0,0.1,-0.02,-0.16,-0.0,-3.63,3.69,0.03,0.03,-0.37,0.06,-0.19,0.0,249.19,275.0,0.0,0.0,0.0,0.0
1776357622577699318,47925,0.0,0.7,0.0,1.0,-0.14,-0.18,-0.0,-3.63,3.69,0.02,-0.06,-0.36,-0.0,0.12,-0.06,253.48,278.0,0.0,0.0,0.0,0.0
1776357622675962684,48026,0.0,0.1,0.0,0.3,0.04,0.04,-0.0,-3.63,3.69,0.05,0.03,-0.43,0.19,0.63,-0.12,254.51,278.0,0.0,0.0,0.0,0.0
1776357622778381344,48125,0.0,0.5,0.0,0.3,0.04,-0.06,-0.0,-3.69,3.69,0.08,0.09,-0.37,-0.44,-0.12,0.06,249.19,278.0,0.0,0.0,0.0,0.0
1776357622876681747,48225,0.0,0.3,0.0,0.8,0.02,0.04,-0.0,-3.69,3.69,0.0,-0.0,-0.41,-0.12,-0.19,0.0,252.28,282.0,0.0,0.0,0.0,0.0
1776357622975003354,48325,0.0,0.2,0.004,0.7,-0.04,-0.1,-0.0,-3.69,3.69,0.09,0.02,-0.37,-0.06,0.31,-0.06,249.19,282.0,0.0,0.0,0.0,0.0
1776357623077365007,48424,0.0,0.9,0.0,0.6,0.04,-0.1,-0.0,-3.69,3.69,0.0,0.09,-0.38,-0.0,-0.25,-0.06,250.39,279.0,0.0,0.0,0.0,0.0
1776357623175689358,48524,0.0,0.1,0.0,0.9,0.02,-0.08,-0.0,-3.69,3.69,0.01,-0.0,-0.38,0.12,0.06,0.0,249.19,279.0,0.0,0.0,0.0,0.0
1776357623278082094,48624,0.004,0.1,0.0,0.2,0.06,-0.2,-0.0,-3.69,3.69,0.01,-0.04,-0.39,0.12,0.12,-0.06,249.19,280.0,0.0,0.0,0.0,0.0
1776357623376361463,48724,0.0,0.0,0.0,1.0,0.04,-0.04,-0.0,-3.69,3.69,0.01,0.06,-0.38,0.12,0.06,-0.06,249.36,279.0,0.0,0.0,0.0,0.0
1776357623478778163,48825,0.0,0.3,0.0,0.8,0.02,-0.06,-0.0,-3.69,3.69,0.02,-0.01,-0.38,-0.06,0.06,-0.06,250.39,279.0,0.0,0.0,0.0,0.0
1776357623577090569,48926,0.0,0.3,0.0,0.9,0.0,0.12,-0.0,-3.69,3.69,0.02,-0.0,-0.4,0.06,-0.06,-0.06,250.22,277.0,0.0,0.0,0.0,0.0
1776357623679500176,49026,0.0,0.2,0.0,0.8,-0.12,-0.1,-0.0,-3.69,3.69,0.0,0.05,-0.33,-0.0,-0.0,-0.06,250.22,279.0,0.0,0.0,0.0,0.0
1776357623777821805,49126,0.0,0.1,0.0,0.3,-0.02,0.08,-0.0,-3.69,3.69,0.01,0.01,-0.38,0.06,-0.25,0.06,249.19,279.0,0.0,0.0,0.0,0.0
1776357623880186245,49226,0.0,0.4,0.0,1.2,0.04,-0.21,-0.0,-3.69,3.69,0.03,-0.04,-0.39,-0.06,-0.12,0.0,249.19,276.0,0.0,0.0,0.0,0.0
1776357623978654598,49326,0.0,0.4,0.0,0.7,0.0,0.02,-0.0,-3.69,3.69,0.0,0.05,-0.38,0.12,-0.19,0.0,250.22,283.0,0.0,0.0,0.0,0.0
1776357624080841102,49427,0.004,0.2,0.0,0.9,-0.06,0.06,-0.0,-3.69,3.69,0.0,0.09,-0.37,-0.0,0.12,0.06,249.36,283.0,0.0,0.0,0.0,0.0
1776357624179183587,49527,0.0,0.7,0.0,0.9,-0.04,-0.1,-0.0,-3.69,3.69,0.01,-0.06,-0.38,-0.0,0.12,-0.06,250.22,281.0,0.0,0.0,0.0,0.0
1776357624281593938,49627,0.004,0.1,0.0,0.7,-0.06,-0.08,-0.0,-3.69,3.69,0.01,-0.0,-0.37,0.06,-0.0,0.06,249.19,281.0,0.0,0.0,0.0,0.0
1776357624379884608,49727,0.004,0.4,0.0,1.0,-0.1,-0.06,-0.0,-3.69,3.69,0.01,0.07,-0.39,0.06,0.06,0.06,249.19,279.0,0.0,0.0,0.0,0.0
1776357624478184797,49826,0.0,0.4,0.0,1.1,-0.08,0.06,-0.0,-3.69,3.69,0.0,-0.0,-0.37,-0.0,0.37,0.0,249.19,283.0,0.0,0.0,0.0,0.0
1776357624580646185,49926,0.0,0.8,0.004,0.2,0.08,-0.12,-0.0,-3.69,3.69,0.0,-0.01,-0.38,-0.0,-0.06,-0.19,250.39,283.0,0.0,0.0,0.0,0.0
1776357624678893669,50026,0.0,0.2,0.0,0.7,0.02,-0.12,-0.0,-3.69,3.69,0.0,0.05,-0.4,-0.06,-0.25,0.12,249.19,275.0,0.0,0.0,0.0,0.0
1776357624781282520,50126,0.0,0.4,0.0,0.6,0.0,-0.02,-0.0,-3.69,3.69,0.01,-0.0,-0.38,-0.06,0.25,-0.12,249.19,277.0,0.0,0.0,0.0,0.0
1776357624879585246,50227,0.0,0.9,0.0,0.7,-0.06,-0.1,-0.0,-3.69,3.69,0.0,0.02,-0.39,-0.06,-0.0,-0.06,250.39,277.0,0.0,0.0,0.0,0.0
1776357624982011467,50328,0.004,0.2,0.0,0.8,-0.02,-0.08,-0.0,-3.69,3.69,0.0,0.02,-0.37,-0.12,0.12,0.0,249.36,279.0,0.0,0.0,0.0,0.0
1776357625080278908,50428,0.0,0.2,0.0,0.5,0.0,-0.12,-0.0,-3.69,3.69,0.01,0.01,-0.37,0.19,-0.19,0.0,249.19,281.0,0.0,0.0,0.0,0.0
1776357625182735042,50528,0.0,0.3,0.0,0.9,-0.1,0.0,-0.0,-3.69,3.69,0.02,0.01,-0.37,0.06,-0.0,0.0,249.19,281.0,0.0,0.0,0.0,0.0
1776357625280986828,50628,0.0,0.1,0.0,0.2,0.02,-0.02,-0.0,-3.69,3.69,0.0,-0.01,-0.32,-0.0,-0.19,0.0,244.9,280.0,0.0,0.0,0.0,0.0
1776357625383394220,50728,0.0,0.2,0.0,1.2,0.02,-0.02,-0.0,-3.69,3.69,0.06,0.08,-0.4,0.12,-0.25,0.19,250.22,280.0,0.0,0.0,0.0,0.0
1776357625481683543,50828,0.004,0.3,0.0,0.3,-0.02,-0.04,-0.0,-3.69,3.69,0.11,0.03,-0.41,-0.12,0.25,0.0,249.19,279.0,0.0,0.0,0.0,0.0
1776357625590035896,50928,0.0,0.2,0.0,0.9,-0.08,-0.06,-0.0,-3.69,3.69,0.0,-0.01,-0.42,-0.12,-0.06,0.31,249.19,279.0,0.0,0.0,0.0,0.0
1776357625682386574,51028,0.0,0.3,0.0,0.5,0.06,-0.08,-0.0,-3.69,3.69,0.0,0.02,-0.36,-0.0,0.06,-0.06,254.51,279.0,0.0,0.0,0.0,0.0
1776357625784847337,51129,0.0,0.0,0.0,1.0,0.06,-0.06,-0.0,-3.69,3.69,0.04,0.06,-0.38,-0.06,0.31,0.06,250.22,284.0,0.0,0.0,0.0,0.0
1776357625883081512,51229,0.0,0.6,0.0,0.8,-0.04,-0.02,-0.0,-3.69,3.69,-0.04,-0.0,-0.39,0.06,-0.0,-0.06,250.22,279.0,0.0,0.0,0.0,0.0
1776357625981354076,51329,0.0,0.3,0.0,0.8,0.04,-0.12,-0.0,-3.69,3.69,-0.08,0.03,-0.35,-0.12,0.12,0.06,250.22,279.0,0.0,0.0,0.0,0.0
1776357626083772351,51429,0.0,0.2,0.0,0.8,-0.1,-0.12,-0.0,-3.69,3.69,0.01,0.06,-0.37,0.06,-0.31,0.06,250.22,283.0,0.0,0.0,0.0,0.0
1776357626182065440,51528,0.0,0.3,0.0,1.0,0.08,-0.14,-0.0,-3.69,3.69,0.19,0.01,-0.44,-0.19,-0.0,-0.12,253.48,282.0,0.0,0.0,0.0,0.0
1776357626290453723,51628,0.0,0.3,0.0,1.1,-0.06,-0.1,-0.0,-3.69,3.69,-0.05,-0.08,-0.34,-0.12,0.19,0.0,245.59,282.0,0.0,0.0,0.0,0.0
1776357626382784964,51728,0.0,0.0,0.0,1.2,-0.04,-0.12,-0.0,-3.69,3.69,0.05,0.16,-0.39,0.06,-0.37,-0.06,250.22,274.0,0.0,0.0,0.0,0.0
1776357626481087924,51828,0.0,0.3,0.0,0.6,-0.14,-0.1,-0.0,-3.69,3.69,0.01,0.06,-0.37,0.06,0.06,-0.06,250.39,278.0,0.0,0.0,0.0,0.0
1776357626583482673,51928,0.004,0.1,0.0,0.9,0.06,0.0,-0.0,-3.69,3.69,0.03,-0.01,-0.36,-0.06,-0.25,-0.06,250.22,278.0,0.0,0.0,0.0,0.0
1776357626681778299,52028,0.0,0.3,0.0,0.9,0.06,-0.04,-0.0,-3.69,3.69,0.04,0.05,-0.36,0.06,-0.25,0.12,250.22,278.0,0.0,0.0,0.0,0.0
1776357626780107148,52127,0.0,0.0,0.0,0.4,-0.04,0.06,-0.0,-3.69,3.69,0.04,0.05,-0.38,-0.25,0.19,-0.12,249.19,278.0,0.0,0.0,0.0,0.0
1776357626882485731,52227,0.0,0.4,0.0,0.6,0.06,-0.14,-0.0,-3.69,3.69,0.01,-0.02,-0.4,0.06,0.25,-0.06,245.07,280.0,0.0,0.0,0.0,0.0
1776357626980780098,52327,0.004,0.6,0.0,1.0,0.0,0.14,-0.0,-3.69,3.69,-0.01,0.04,-0.38,0.06,-0.06,0.12,244.9,279.0,0.0,0.0,0.0,0.0
1776357627079081072,52426,0.0,0.1,0.0,0.3,0.06,-0.1,-0.0,-3.69,3.69,0.14,0.07,-0.36,-0.37,-0.0,-0.06,249.19,279.0,0.0,0.0,0.0,0.0
1776357627181484920,52526,0.0,0.3,0.0,0.6,0.04,-0.12,-0.0,-3.69,3.69,-0.09,-0.03,-0.38,0.06,-0.0,-0.06,250.22,280.0,0.0,0.0,0.0,0.0
1776357627279798017,52626,0.0,0.1,0.0,0.4,0.04,0.0,-0.0,-3.69,3.69,0.07,-0.0,-0.47,-0.06,-0.06,0.06,249.19,278.0,0.0,0.0,0.0,0.0
1776357627378078762,52725,0.004,0.8,0.0,0.5,-0.08,0.04,-0.0,-3.69,3.69,0.12,-0.02,-0.41,-0.06,0.06,-0.06,250.22,278.0,0.0,0.0,0.0,0.0
1776357627480479906,52825,0.0,0.3,0.0,0.5,-0.18,-0.02,-0.0,-3.69,3.69,-0.1,0.07,-0.39,0.19,-0.06,0.12,246.1,280.0,0.0,0.0,0.0,0.0
1776357627582884587,52926,0.0,0.4,0.0,0.2,0.06,-0.08,-0.0,-3.69,3.69,0.04,-0.0,-0.47,0.19,0.12,0.06,245.07,280.0,0.0,0.0,0.0,0.0
1776357627681181703,53026,0.0,0.4,0.0,0.5,-0.06,-0.1,-0.0,-3.69,3.69,0.13,0.02,-0.41,0.06,0.37,-0.12,246.1,277.0,0.0,0.0,0.0,0.0
1776357627783587365,53127,0.0,0.5,0.0,0.5,0.08,0.02,-0.0,-3.69,3.69,0.01,0.08,-0.39,-0.0,-0.37,0.06,245.07,278.0,0.0,0.0,0.0,0.0
1776357627881888222,53228,0.0,0.2,0.0,0.8,0.02,-0.08,-0.0,-3.69,3.69,0.04,-0.02,-0.42,0.06,0.31,-0.06,244.9,278.0,0.0,0.0,0.0,0.0
1776357627984297829,53327,0.0,0.0,0.0,0.5,-0.02,-0.1,-0.0,-3.69,3.69,0.0,0.02,-0.42,0.12,-0.25,0.06,241.82,278.0,0.0,0.0,0.0,0.0
1776357628082549032,53427,0.0,0.1,0.0,0.9,-0.14,-0.16,-0.0,-3.69,3.69,0.12,0.1,-0.37,-0.12,-0.12,-0.12,250.22,282.0,0.0,0.0,0.0,0.0
1776357628180891786,53527,0.0,0.2,0.0,1.0,0.16,-0.12,-0.0,-3.69,3.69,0.0,-0.03,-0.36,0.06,-0.06,0.0,244.9,282.0,0.0,0.0,0.0,0.0
1776357628283282900,53626,0.0,0.7,0.0,1.0,-0.04,-0.04,-0.0,-3.69,3.69,0.01,0.08,-0.36,0.19,-0.12,0.0,245.93,278.0,0.0,0.0,0.0,0.0
1776357628381592579,53726,0.0,0.3,0.0,0.3,0.02,0.02,-0.0,-3.69,3.69,0.04,0.11,-0.35,-0.0,-0.12,0.19,246.1,280.0,0.0,0.0,0.0,0.0
1776357628479891203,53826,0.0,0.6,0.0,0.3,0.0,-0.1,-0.0,-3.69,3.69,0.01,-0.07,-0.42,-0.0,0.19,0.12,245.07,280.0,0.0,0.0,0.0,0.0
1776357628582284373,53925,0.004,0.1,0.0,1.0,-0.18,0.04,-0.0,-3.69,3.69,0.02,0.04,-0.38,0.12,-0.12,0.0,246.1,274.0,0.0,0.0,0.0,0.0
1776357628680575311,54026,0.0,0.1,0.0,0.7,-0.06,-0.06,-0.0,-3.69,3.69,0.04,0.02,-0.46,-0.19,-0.12,0.12,245.93,280.0,0.0,0.0,0.0,0.0
1776357628782984500,54126,0.0,0.5,0.0,1.1,0.04,-0.14,-0.0,-3.69,3.69,-0.04,-0.03,-0.4,0.19,0.06,-0.06,249.19,280.0,0.0,0.0,0.0,0.0
1776357628881326328,54225,0.0,0.0,0.0,0.3,0.08,0.02,-0.0,-3.69,3.69,-0.03,-0.04,-0.33,0.25,-0.31,0.06,245.93,277.0,0.0,0.0,0.0,0.0
1776357628979595488,54325,0.0,0.5,0.0,1.0,-0.04,0.0,-0.0,-3.69,3.69,0.04,-0.03,-0.4,0.06,0.25,-0.19,249.19,277.0,0.0,0.0,0.0,0.0
1776357629081956487,54425,0.0,0.5,0.0,1.1,0.18,-0.06,-0.0,-3.69,3.69,0.02,0.07,-0.4,0.12,-0.12,0.12,245.07,281.0,0.0,0.0,0.0,0.0
1776357629180278787,54524,0.0,0.0,0.0,1.0,-0.02,0.06,-0.0,-3.69,3.69,0.11,0.02,-0.44,-0.0,-0.0,-0.06,245.07,278.0,0.0,0.0,0.0,0.0
1776357629282694261,54625,0.0,0.6,0.0,0.7,0.06,-0.08,-0.0,-3.69,3.69,0.0,-0.04,-0.34,-0.0,0.19,0.0,244.9,278.0,0.0,0.0,0.0,0.0
1776357629381003283,54725,0.0,0.2,0.0,1.1,0.1,-0.14,-0.0,-3.69,3.69,0.0,0.07,-0.33,0.06,0.12,0.0,250.39,278.0,0.0,0.0,0.0,0.0
1776357629483414239,54825,0.0,0.2,0.0,1.2,0.1,0.02,-0.0,-3.69,3.69,-0.2,-0.1,-0.34,-0.19,-0.12,-0.12,245.93,281.0,0.0,0.0,0.0,0.0
1776357629581690909,54925,0.004,0.2,0.0,0.5,0.0,-0.08,-0.0,-3.69,3.69,-0.06,-0.02,-0.38,0.12,0.44,0.06,246.1,281.0,0.0,0.0,0.0,0.0
1776357629679994005,55025,0.004,0.2,0.0,0.9,0.02,-0.12,-0.0,-3.69,3.69,0.07,0.09,-0.42,-0.12,-0.06,-0.12,246.1,276.0,0.0,0.0,0.0,0.0
1776357629778274600,55124,0.0,0.2,0.0,0.9,-0.04,0.06,-0.0,-3.69,3.69,0.05,0.01,-0.39,-0.12,-0.12,-0.06,243.87,279.0,0.0,0.0,0.0,0.0
1776357629880689927,55224,0.0,1.1,0.0,0.5,0.14,-0.04,-0.0,-3.69,3.69,0.09,0.04,-0.41,-0.06,-0.06,-0.06,246.1,279.0,0.0,0.0,0.0,0.0
1776357629978988486,55324,0.0,0.1,0.0,0.3,-0.04,-0.08,-0.0,-3.69,3.69,-0.05,0.02,-0.34,-0.0,0.06,0.0,246.1,279.0,0.0,0.0,0.0,0.0
1776357630081386234,55425,0.0,0.5,0.0,0.8,0.0,-0.02,-0.0,-3.69,3.69,0.0,0.02,-0.39,0.25,-0.44,0.06,246.1,279.0,0.0,0.0,0.0,0.0
1776357630179631951,55525,0.008,0.2,0.0,0.4,0.06,0.06,-0.0,-3.69,3.69,0.01,0.01,-0.46,-0.0,0.19,-0.12,245.07,276.0,0.0,0.0,0.0,0.0
1776357630282080638,55625,0.004,0.2,0.0,1.1,0.04,0.04,-0.0,-3.69,3.69,-0.01,0.06,-0.32,0.12,0.12,0.0,246.1,280.0,0.0,0.0,0.0,0.0
1776357630384557882,55726,0.0,0.5,0.0,1.2,-0.08,-0.04,-0.0,-3.69,3.69,-0.03,-0.05,-0.42,0.19,-0.0,0.0,241.82,280.0,0.0,0.0,0.0,0.0
1776357630482799876,55827,0.0,0.2,0.0,1.1,0.02,-0.1,-0.0,-3.69,3.69,0.03,-0.0,-0.42,-0.0,0.12,0.0,245.07,279.0,0.0,0.0,0.0,0.0
1776357630581082908,55926,0.0,0.9,0.0,0.8,0.02,0.0,-0.0,-3.69,3.69,0.02,-0.02,-0.38,0.06,0.25,-0.06,245.07,278.0,0.0,0.0,0.0,0.0
1776357630683494188,56026,0.0,0.1,0.0,0.6,-0.16,0.02,-0.0,-3.69,3.69,0.0,0.03,-0.38,-0.06,0.12,0.0,241.82,278.0,0.0,0.0,0.0,0.0
1776357630781787997,56126,0.0,0.0,0.0,0.4,0.04,-0.16,-0.0,-3.69,3.69,0.04,-0.01,-0.38,0.12,-0.31,0.06,241.47,279.0,0.0,0.0,0.0,0.0
1776357630884196129,56226,0.0,0.2,0.0,0.8,-0.1,-0.1,-0.0,-3.69,3.69,0.04,0.05,-0.37,-0.12,0.19,-0.12,246.1,276.0,0.0,0.0,0.0,0.0
1776357630982494364,56326,0.0,0.4,0.0,0.5,0.0,-0.02,-0.0,-3.69,3.69,-0.02,0.02,-0.39,-0.0,-0.0,0.19,246.1,276.0,0.0,0.0,0.0,0.0
1776357631090838777,56426,0.0,0.0,0.0,1.1,-0.02,-0.14,-0.0,-3.69,3.69,0.07,0.06,-0.36,-0.0,-0.12,-0.06,246.1,279.0,0.0,0.0,0.0,0.0
1776357631183186035,56525,0.0,0.1,0.0,0.3,0.0,-0.06,-0.0,-3.69,3.69,0.08,0.07,-0.41,0.06,-0.25,0.12,245.07,276.0,0.0,0.0,0.0,0.0
1776357631281450856,56625,0.0,0.2,0.0,0.2,-0.06,-0.1,-0.0,-3.69,3.69,0.13,-0.0,-0.36,-0.12,0.37,-0.19,246.1,276.0,0.0,0.0,0.0,0.0
1776357631383881720,56725,0.0,0.3,0.0,1.0,0.0,-0.02,-0.0,-3.69,3.69,0.0,0.06,-0.37,-0.0,-0.0,0.06,241.99,283.0,0.0,0.0,0.0,0.0
1776357631482188189,56824,0.0,0.8,0.0,0.5,0.12,-0.1,-0.0,-3.69,3.69,0.0,0.01,-0.38,-0.06,-0.06,-0.06,246.1,283.0,0.0,0.0,0.0,0.0
1776357631580486509,56924,0.0,0.5,0.0,0.9,-0.04,0.04,-0.0,-3.69,3.69,0.02,-0.03,-0.35,-0.0,0.12,-0.06,246.1,277.0,0.0,0.0,0.0,0.0
1776357631682889873,57024,0.0,0.5,0.0,0.1,0.02,0.04,-0.0,-3.69,3.69,0.0,0.07,-0.38,-0.0,-0.06,-0.06,246.1,282.0,0.0,0.0,0.0,0.0
1776357631781198990,57123,0.0,0.5,0.0,0.2,0.1,0.0,-0.0,-3.69,3.69,0.04,0.03,-0.38,0.31,-0.12,0.19,241.99,282.0,0.0,0.0,0.0,0.0
1776357631889562119,57223,0.0,0.2,0.0,0.9,0.02,-0.06,-0.0,-3.69,3.69,0.04,-0.03,-0.38,0.12,0.06,0.0,244.9,275.0,0.0,0.0,0.0,0.0
1776357631981899211,57324,0.0,0.2,0.0,0.3,-0.08,0.0,-0.0,-3.69,3.69,0.06,0.09,-0.36,-0.06,0.37,-0.12,241.99,280.0,0.0,0.0,0.0,0.0
1776357632080180641,57423,0.004,0.1,0.0,0.2,0.0,-0.04,-0.0,-3.69,3.69,-0.02,-0.05,-0.4,0.12,-0.37,0.12,245.07,280.0,0.0,0.0,0.0,0.0
1776357632182592220,57523,0.0,0.0,0.0,1.1,0.04,-0.06,-0.0,-3.69,3.69,0.01,0.02,-0.38,-0.0,-0.0,-0.19,246.1,280.0,0.0,0.0,0.0,0.0
1776357632280892367,57623,0.0,0.3,0.0,1.1,0.0,-0.06,-0.0,-3.69,3.69,0.01,0.05,-0.36,-0.06,-0.06,0.25,240.79,280.0,0.0,0.0,0.0,0.0
1776357632379190940,57722,0.004,0.0,0.0,1.1,-0.04,-0.12,-0.0,-3.69,3.69,-0.1,-0.06,-0.35,0.12,0.12,0.06,245.07,279.0,0.0,0.0,0.0,0.0
1776357632481589333,57822,0.0,0.2,0.0,1.0,0.08,-0.14,-0.0,-3.69,3.69,0.03,-0.01,-0.41,-0.06,0.19,0.0,245.76,281.0,0.0,0.0,0.0,0.0
1776357632579895814,57923,0.0,0.6,0.0,0.8,-0.1,0.0,-0.0,-3.69,3.69,0.05,0.06,-0.37,-0.0,-0.37,0.19,246.1,281.0,0.0,0.0,0.0,0.0
1776357632678161201,58022,0.0,0.3,0.0,1.3,-0.1,-0.2,-0.0,-3.69,3.69,0.04,-0.0,-0.37,-0.06,0.12,-0.19,245.07,280.0,0.0,0.0,0.0,0.0
1776357632780590557,58122,0.004,-0.1,0.0,0.9,-0.04,-0.1,-0.0,-3.69,3.69,-0.09,0.02,-0.36,0.06,0.25,-0.06,249.36,278.0,0.0,0.0,0.0,0.0
1776357632878940927,58222,0.0,0.0,0.0,0.7,0.0,0.04,-0.0,-3.69,3.69,0.05,0.05,-0.36,0.12,-0.31,0.19,249.36,278.0,0.0,0.0,0.0,0.0
1776357632981294449,58321,0.0,0.2,0.0,0.9,-0.04,0.1,-0.0,-3.69,3.69,0.06,-0.02,-0.39,0.06,-0.44,0.06,249.19,282.0,0.0,0.0,0.0,0.0
1776357633079589264,58422,0.0,0.6,0.004,0.5,0.02,0.02,-0.0,-3.69,3.69,0.03,0.05,-0.37,0.12,0.06,-0.06,250.39,279.0,0.0,0.0,0.0,0.0
1776357633182011835,58522,0.0,0.1,0.0,1.0,-0.08,-0.08,-0.0,-3.69,3.69,-0.01,-0.04,-0.37,0.12,-0.06,0.12,250.39,279.0,0.0,0.0,0.0,0.0
1776357633280288291,58621,0.0,0.8,0.0,0.8,-0.08,-0.14,-0.0,-3.69,3.69,-0.1,-0.0,-0.37,0.06,0.12,-0.19,250.39,279.0,0.0,0.0,0.0,0.0
1776357633378583728,58721,0.0,-0.1,0.0,1.0,0.06,-0.02,-0.0,-3.69,3.69,-0.02,0.05,-0.31,0.19,-0.25,0.0,250.39,275.0,0.0,0.0,0.0,0.0
1776357633481031744,58821,0.0,0.2,0.0,1.0,-0.02,-0.06,-0.0,-3.69,3.69,-0.2,-0.07,-0.37,-0.06,-0.37,0.19,246.1,275.0,0.0,0.0,0.0,0.0
1776357633579299200,58920,0.0,0.4,0.0,1.1,-0.08,-0.02,-0.0,-3.69,3.69,0.14,0.03,-0.38,-0.06,0.12,0.06,246.1,282.0,0.0,0.0,0.0,0.0
1776357633677571249,59020,0.0,0.0,0.0,1.2,-0.06,-0.08,-0.0,-3.69,3.69,-0.03,-0.03,-0.4,-0.06,-0.0,0.0,241.82,282.0,0.0,0.0,0.0,0.0
1776357633779980486,59120,0.004,0.2,0.0,1.1,0.02,-0.12,-0.0,-3.69,3.69,0.02,0.05,-0.39,-0.19,0.31,0.0,245.07,277.0,0.0,0.0,0.0,0.0
1776357633878290739,59220,0.0,0.4,0.0,0.8,-0.08,0.0,-0.0,-3.63,3.69,0.05,-0.01,-0.38,-0.06,-0.56,-0.06,245.07,279.0,0.0,0.0,0.0,0.0
1776357633980707681,59321,0.0,0.3,0.0,0.3,-0.1,-0.18,-0.0,-3.63,3.69,0.0,0.09,-0.38,0.12,-1.69,0.37,246.1,279.0,0.0,0.0,0.0,0.0
1776357634078949099,59422,0.0,1.0,0.0,0.7,-0.1,0.04,0.06,-3.56,3.69,0.02,0.05,-0.44,-0.06,1.0,-0.31,240.79,280.0,0.0,0.0,0.0,0.0
1776357634181393201,59522,0.0,0.4,0.0,0.9,-0.1,-0.1,0.06,-3.63,3.69,0.02,-0.06,-0.36,-0.0,1.0,-0.12,246.1,281.0,0.0,0.0,0.0,0.0
1776357634279659337,59622,0.0,0.7,0.0,0.7,-0.14,-0.06,0.06,-3.63,3.69,0.02,-0.16,-0.42,0.06,-0.12,0.0,240.79,281.0,0.0,0.0,0.0,0.0
1776357634382073495,59722,0.0,0.1,0.0,0.6,0.02,0.0,0.06,-3.63,3.75,0.21,0.22,-0.22,-0.19,-0.81,0.06,250.39,279.0,0.0,0.0,0.0,0.0
1776357634480367705,59823,0.0,0.3,0.0,0.8,-0.02,0.02,0.06,-3.63,3.69,0.12,0.19,-0.46,0.12,0.12,0.12,249.19,279.0,0.0,0.0,0.0,0.0
1776357634582782214,59923,0.0,-0.1,0.0,0.9,-0.14,-0.12,0.06,-3.63,3.69,-0.02,-0.08,-0.37,-0.44,1.31,-0.25,246.1,279.0,0.0,0.0,0.0,0.0
1776357634681098684,60023,0.0,0.3,0.0,0.7,-0.04,-0.02,0.06,-3.69,3.69,0.0,-0.04,-0.38,0.19,-0.25,0.19,240.79,276.0,0.0,0.0,0.0,0.0
1776357634783509712,60123,0.0,0.4,0.0,1.1,-0.08,-0.02,0.06,-3.69,3.75,0.01,0.13,-0.37,-0.0,-0.37,0.19,245.07,276.0,0.0,0.0,0.0,0.0
1776357634881790403,60223,0.004,0.2,0.0,0.8,-0.16,0.0,0.06,-3.69,3.75,0.05,0.11,-0.39,0.06,0.37,-0.12,240.79,281.0,0.0,0.0,0.0,0.0
1776357634984166264,60323,0.0,0.7,0.0,0.5,0.0,-0.02,0.06,-3.69,3.75,-0.04,-0.1,-0.4,-0.19,0.75,-0.25,245.07,276.0,0.0,0.0,0.0,0.0
1776357635082441604,60424,0.0,0.5,0.0,0.9,0.02,-0.12,0.06,-3.75,3.75,0.02,-0.03,-0.39,0.25,-0.12,0.06,246.1,276.0,0.0,0.0,0.0,0.0
1776357635184881923,60525,0.0,0.3,0.0,0.7,0.0,-0.06,0.06,-3.75,3.75,0.03,-0.05,-0.39,-0.0,-0.25,0.12,246.1,278.0,0.0,0.0,0.0,0.0
1776357635283190296,60624,0.004,0.4,0.0,1.0,0.14,-0.02,0.06,-3.69,3.75,0.02,0.16,-0.38,-0.06,0.19,-0.12,246.1,278.0,0.0,0.0,0.0,0.0
1776357635385568559,60724,0.0,0.5,0.0,1.0,-0.2,-0.04,0.06,-3.75,3.75,-0.01,0.13,-0.38,0.12,0.12,-0.06,250.39,278.0,0.0,0.0,0.0,0.0
1776357635483886839,60824,0.0,0.2,0.0,0.3,0.06,-0.06,0.06,-3.75,3.75,0.0,-0.14,-0.39,-0.06,0.37,-0.19,241.82,281.0,0.0,0.0,0.0,0.0
1776357635582185563,60923,0.0,0.4,0.0,1.1,-0.06,-0.02,0.06,-3.75,3.75,0.0,0.06,-0.36,0.06,0.12,0.25,245.07,277.0,0.0,0.0,0.0,0.0
1776357635684581715,61023,0.0,0.7,0.0,0.8,-0.1,-0.08,0.06,-3.75,3.75,0.0,0.15,-0.36,0.19,-0.5,0.25,244.9,277.0,0.0,0.0,0.0,0.0
1776357635782910162,61123,0.0,0.1,0.0,0.3,-0.06,-0.06,0.06,-3.75,3.75,0.03,0.11,-0.39,-0.06,0.19,0.0,245.07,278.0,0.0,0.0,0.0,0.0
1776357635881159793,61223,0.0,0.5,0.0,0.8,0.0,-0.08,0.06,-3.75,3.75,0.05,-0.0,-0.35,-0.06,0.44,-0.25,245.07,278.0,0.0,0.0,0.0,0.0
1776357635983594853,61323,0.004,0.5,0.0,1.0,-0.18,-0.06,0.06,-3.75,3.75,0.03,-0.05,-0.43,-0.0,-0.25,0.06,246.27,276.0,0.0,0.0,0.0,0.0
1776357636081821114,61424,0.0,0.1,0.0,0.3,-0.1,0.06,0.06,-3.75,3.75,-0.05,-0.03,-0.38,0.25,-0.06,-0.12,245.07,279.0,0.0,0.0,0.0,0.0
1776357636184292855,61523,0.004,0.0,0.0,0.8,-0.14,-0.18,0.06,-3.75,3.75,0.02,0.16,-0.4,-0.06,-0.25,0.06,245.07,279.0,0.0,0.0,0.0,0.0
1776357636286681650,61624,0.0,0.2,0.0,0.5,-0.04,-0.1,0.06,-3.75,3.75,0.0,0.03,-0.35,-0.0,0.12,-0.19,246.1,277.0,0.0,0.0,0.0,0.0
1776357636384984612,61725,0.0,1.0,0.0,0.5,-0.02,0.0,0.06,-3.75,3.75,0.01,-0.0,-0.34,0.12,0.06,-0.06,246.1,278.0,0.0,0.0,0.0,0.0
1776357636493554909,61825,0.0,0.4,0.004,0.1,0.08,-0.06,0.06,-3.75,3.75,0.0,-0.0,-0.38,-0.12,-0.0,0.19,245.07,278.0,0.0,0.0,0.0,0.0
1776357636585678054,61925,0.0,0.1,0.0,0.6,0.02,0.02,0.06,-3.75,3.75,0.04,0.05,-0.34,-0.06,0.06,0.0,249.19,278.0,0.0,0.0,0.0,0.0
1776357636683987478,62024,0.0,0.2,0.0,0.9,-0.1,-0.12,0.06,-3.75,3.75,-0.03,0.09,-0.37,0.06,0.19,0.0,250.05,280.0,0.0,0.0,0.0,0.0
1776357636786386311,62125,0.004,0.2,0.0,0.3,-0.04,0.02,0.06,-3.75,3.75,0.03,0.04,-0.39,-0.12,0.19,0.06,250.39,280.0,0.0,0.0,0.0,0.0
1776357636884685791,62225,0.0,0.9,0.0,0.5,0.14,0.02,0.06,-3.75,3.75,0.02,0.02,-0.35,-0.06,-0.06,0.06,249.36,274.0,0.0,0.0,0.0,0.0
1776357636987087605,62325,0.0,0.0,0.0,0.2,-0.04,-0.12,0.06,-3.75,3.75,0.01,0.01,-0.38,-0.12,-0.0,0.12,250.22,274.0,0.0,0.0,0.0,0.0
1776357637089449936,62426,0.0,0.3,0.0,0.9,-0.04,0.0,0.06,-3.75,3.75,0.01,0.08,-0.39,0.06,0.25,-0.12,250.39,279.0,0.0,0.0,0.0,0.0
1776357637187784302,62527,0.0,0.0,0.0,0.8,-0.04,-0.12,0.06,-3.75,3.75,0.0,0.03,-0.39,-0.0,0.31,-0.19,249.19,279.0,0.0,0.0,0.0,0.0
1776357637286085687,62626,0.0,0.2,0.0,0.6,0.0,0.0,0.06,-3.75,3.75,0.03,-0.0,-0.37,-0.0,0.12,0.0,249.36,279.0,0.0,0.0,0.0,0.0
1776357637388477756,62726,0.0,0.5,0.0,0.8,-0.02,-0.06,0.06,-3.75,3.75,0.0,0.07,-0.37,0.06,-0.19,-0.06,250.22,279.0,0.0,0.0,0.0,0.0
1776357637486776455,62826,0.008,0.4,0.0,1.2,-0.1,-0.12,0.06,-3.75,3.75,0.02,0.06,-0.37,0.06,-0.12,-0.06,246.1,281.0,0.0,0.0,0.0,0.0
1776357637589179802,62926,0.0,0.3,0.0,1.1,-0.04,0.06,0.06,-3.75,3.75,0.05,0.03,-0.38,-0.0,0.06,-0.06,250.22,281.0,0.0,0.0,0.0,0.0
1776357637687473446,63026,0.0,0.3,0.0,1.1,-0.04,-0.08,0.06,-3.75,3.75,0.01,-0.0,-0.4,-0.0,-0.12,-0.12,246.1,280.0,0.0,0.0,0.0,0.0
1776357637785788571,63126,0.0,0.7,0.0,0.8,-0.06,-0.1,0.06,-3.75,3.75,0.03,0.06,-0.38,0.06,-0.25,0.06,246.1,280.0,0.0,0.0,0.0,0.0
1776357637888178288,63225,0.0,0.0,0.0,0.8,0.0,0.06,0.06,-3.75,3.75,0.01,-0.0,-0.38,-0.06,0.06,-0.06,246.1,280.0,0.0,0.0,0.0,0.0
1776357637986479617,63325,0.004,0.3,0.0,0.8,0.0,-0.18,0.06,-3.75,3.75,0.0,0.06,-0.36,0.19,0.06,0.12,245.07,281.0,0.0,0.0,0.0,0.0
1776357638084759780,63425,0.0,0.3,0.0,0.9,0.0,-0.04,0.06,-3.75,3.75,0.04,-0.01,-0.38,-0.06,-0.19,-0.06,248.16,276.0,0.0,0.0,0.0,0.0
1776357638187180828,63524,0.0,0.6,0.0,0.9,0.0,-0.04,0.06,-3.75,3.75,0.0,0.06,-0.39,-0.0,0.19,-0.12,249.19,276.0,0.0,0.0,0.0,0.0
1776357638285481265,63624,0.0,0.5,0.0,0.3,-0.04,-0.06,0.06,-3.75,3.75,0.07,0.06,-0.38,-0.19,-0.25,0.12,250.22,279.0,0.0,0.0,0.0,0.0
1776357638383789981,63724,0.0,0.1,0.0,1.1,0.02,-0.1,0.06,-3.75,3.75,0.04,-0.02,-0.39,0.06,-0.0,-0.19,249.36,279.0,0.0,0.0,0.0,0.0
1776357638486181491,63823,0.0,0.3,0.0,1.1,-0.12,-0.16,0.06,-3.75,3.75,0.01,0.11,-0.37,-0.06,-0.0,0.06,249.19,278.0,0.0,0.0,0.0,0.0
1776357638584469817,63924,0.0,0.4,0.0,1.0,0.02,-0.1,0.06,-3.75,3.75,0.0,0.04,-0.37,0.19,-0.31,0.12,249.19,279.0,0.0,0.0,0.0,0.0
1776357638686878587,64024,0.0,0.3,0.0,0.9,0.08,0.02,0.06,-3.75,3.75,0.0,-0.01,-0.37,0.12,-0.06,-0.06,249.19,279.0,0.0,0.0,0.0,0.0
1776357638785199488,64123,0.0,0.3,0.0,1.2,-0.04,-0.14,0.06,-3.75,3.75,0.02,0.09,-0.4,-0.06,0.31,-0.06,253.48,281.0,0.0,0.0,0.0,0.0
1776357638887585091,64224,0.0,0.0,0.0,0.7,-0.06,0.0,0.06,-3.75,3.75,0.01,0.06,-0.41,0.06,-0.12,0.19,249.19,278.0,0.0,0.0,0.0,0.0
1776357638985855343,64325,0.0,0.1,0.0,0.9,-0.1,-0.04,0.06,-3.75,3.75,0.07,-0.0,-0.4,-0.06,0.06,0.12,250.39,278.0,0.0,0.0,0.0,0.0
1776357639084138652,64424,0.0,0.3,0.0,0.8,-0.06,-0.06,0.06,-3.75,3.75,0.0,0.01,-0.4,-0.06,0.31,-0.06,240.27,278.0,0.0,0.0,0.0,0.0
1776357639186579624,64524,0.0,0.3,0.0,0.2,-0.06,-0.02,0.06,-3.75,3.75,0.06,0.05,-0.39,-0.0,0.12,0.06,250.39,278.0,0.0,0.0,0.0,0.0
1776357639288987335,64625,0.0,0.4,0.0,0.1,0.06,0.08,0.06,-3.75,3.75,0.02,0.06,-0.4,0.06,-0.06,0.06,240.27,280.0,0.0,0.0,0.0,0.0
1776357639387236123,64726,0.0,0.3,0.0,0.4,-0.12,-0.1,0.06,-3.75,3.75,0.03,-0.02,-0.41,0.12,-0.0,0.06,249.19,278.0,0.0,0.0,0.0,0.0
1776357639489677927,64827,0.0,0.2,0.0,1.3,0.0,-0.16,0.06,-3.75,3.75,0.04,0.04,-0.4,-0.06,0.31,-0.19,250.22,278.0,0.0,0.0,0.0,0.0
1776357639592093047,64928,0.0,0.4,0.0,0.3,-0.02,-0.02,0.06,-3.75,3.75,0.0,0.12,-0.35,0.06,-0.19,0.06,249.19,279.0,0.0,0.0,0.0,0.0
1776357639690370056,65028,0.0,0.4,0.0,0.8,-0.1,-0.02,0.06,-3.75,3.75,0.03,-0.04,-0.4,0.06,0.06,-0.19,249.19,277.0,0.0,0.0,0.0,0.0
1776357639792777120,65129,0.0,0.1,0.0,0.7,-0.04,-0.06,0.06,-3.75,3.75,0.02,0.06,-0.4,0.06,0.12,-0.12,250.39,277.0,0.0,0.0,0.0,0.0
1776357639891070074,65228,0.0,0.4,0.0,1.3,-0.06,-0.02,0.06,-3.75,3.75,0.08,0.02,-0.4,0.12,0.06,-0.06,250.39,280.0,0.0,0.0,0.0,0.0
1776357639989306232,65328,0.0,0.3,0.0,0.4,0.08,0.04,0.06,-3.75,3.75,0.01,-0.01,-0.41,-0.0,0.37,-0.06,250.39,278.0,0.0,0.0,0.0,0.0
1776357640091751278,65428,0.0,0.1,0.0,0.2,-0.12,-0.06,0.06,-3.75,3.75,0.0,0.08,-0.39,0.06,0.12,-0.12,249.19,278.0,0.0,0.0,0.0,0.0
1776357640190078991,65528,0.0,0.5,0.0,0.7,0.08,-0.08,0.06,-3.75,3.75,0.04,0.01,-0.42,-0.06,-0.25,0.0,250.39,279.0,0.0,0.0,0.0,0.0
1776357640292474478,65628,0.0,0.5,0.0,0.2,-0.02,-0.02,0.06,-3.75,3.75,0.01,-0.03,-0.39,-0.06,0.37,-0.19,250.39,281.0,0.0,0.0,0.0,0.0
1776357640390776987,65728,0.0,0.0,0.0,1.0,0.08,0.0,0.06,-3.75,3.75,0.02,0.08,-0.4,-0.06,0.12,0.12,249.19,281.0,0.0,0.0,0.0,0.0
1776357640489119052,65827,0.0,0.4,0.0,0.7,-0.08,-0.16,0.06,-3.75,3.75,0.01,0.04,-0.39,-0.06,-0.31,0.12,250.39,278.0,0.0,0.0,0.0,0.0
1776357640591471298,65928,0.0,0.3,0.0,1.1,0.1,-0.08,0.06,-3.75,3.75,0.03,-0.0,-0.39,-0.0,0.12,0.0,250.39,278.0,0.0,0.0,0.0,0.0
1776357640689770955,66028,0.0,0.2,0.0,0.3,0.0,-0.04,0.06,-3.75,3.75,0.05,0.02,-0.39,0.06,-0.06,0.0,250.39,279.0,0.0,0.0,0.0,0.0
1776357640792167554,66127,0.0,0.0,0.0,0.9,-0.14,0.06,0.06,-3.75,3.75,0.0,0.03,-0.37,-0.0,-0.06,0.0,250.39,280.0,0.0,0.0,0.0,0.0
1776357640890478859,66227,0.0,0.1,0.0,0.5,-0.08,-0.12,0.06,-3.75,3.75,0.01,0.01,-0.4,0.06,-0.06,0.0,250.39,280.0,0.0,0.0,0.0,0.0
1776357640988770460,66327,0.004,0.5,0.0,0.9,0.12,0.08,0.06,-3.75,3.75,0.03,0.04,-0.42,0.06,-0.19,0.06,250.22,279.0,0.0,0.0,0.0,0.0
1776357641091166931,66426,0.004,0.0,0.0,-0.1,-0.08,-0.06,0.06,-3.75,3.75,0.0,0.04,-0.39,-0.0,-0.06,-0.06,249.36,278.0,0.0,0.0,0.0,0.0
1776357641189443717,66527,0.0,0.5,0.0,0.6,0.0,-0.16,0.06,-3.75,3.75,0.03,0.04,-0.43,-0.0,0.06,0.0,249.36,278.0,0.0,0.0,0.0,0.0
1776357641291869907,66628,0.0,0.3,0.0,1.0,-0.1,0.0,0.06,-3.75,3.75,0.0,-0.0,-0.41,-0.06,0.12,0.06,249.36,280.0,0.0,0.0,0.0,0.0
1776357641390154082,66727,0.0,0.9,0.012,0.6,0.0,-0.06,0.06,-3.75,3.75,0.02,0.03,-0.36,-0.06,0.25,0.06,249.19,279.0,0.0,0.0,0.0,0.0
1776357641492568810,66827,0.0,0.4,0.0,0.5,-0.06,-0.18,0.06,-3.75,3.75,0.01,0.02,-0.38,0.12,-0.12,0.06,250.39,279.0,0.0,0.0,0.0,0.0
1776357641590870762,66928,0.0,0.0,0.0,0.4,-0.14,-0.16,0.06,-3.75,3.75,0.01,0.04,-0.39,0.12,0.12,-0.06,249.19,277.0,0.0,0.0,0.0,0.0
1776357641693303582,67028,0.0,0.2,0.0,0.1,0.02,0.0,0.06,-3.75,3.75,0.03,-0.0,-0.39,-0.12,-0.0,-0.06,249.19,277.0,0.0,0.0,0.0,0.0
1776357641791591165,67128,0.004,0.2,0.0,0.2,-0.04,0.02,0.06,-3.75,3.75,0.02,0.05,-0.38,-0.12,-0.12,0.0,250.22,277.0,0.0,0.0,0.0,0.0
1776357641889846469,67228,0.0,0.3,0.0,0.4,0.04,-0.02,0.06,-3.75,3.75,0.05,0.02,-0.38,-0.06,0.12,0.12,249.19,281.0,0.0,0.0,0.0,0.0
1776357641992251974,67328,0.0,0.2,0.0,0.4,-0.08,-0.02,0.06,-3.75,3.75,0.02,0.06,-0.4,-0.0,0.12,-0.06,250.22,281.0,0.0,0.0,0.0,0.0
1776357642090526263,67428,0.0,0.2,0.0,0.6,-0.04,0.02,0.06,-3.75,3.75,0.03,0.05,-0.36,-0.06,-0.0,0.0,250.22,278.0,0.0,0.0,0.0,0.0
1776357642188830901,67527,0.0,0.3,0.0,1.1,0.04,0.02,0.06,-3.75,3.75,0.05,0.01,-0.35,0.12,-0.0,-0.06,249.19,277.0,0.0,0.0,0.0,0.0
1776357642291269479,67627,0.0,0.9,0.0,1.0,-0.04,0.04,0.06,-3.75,3.75,0.03,0.03,-0.37,0.06,-0.19,0.0,249.19,277.0,0.0,0.0,0.0,0.0
1776357642389561858,67727,0.0,0.8,0.0,0.1,0.04,-0.08,0.06,-3.75,3.75,0.01,0.02,-0.35,0.06,-0.06,0.06,249.19,280.0,0.0,0.0,0.0,0.0
1776357642491966455,67826,0.0,0.1,0.0,0.8,-0.02,0.02,0.06,-3.75,3.75,0.0,0.02,-0.37,-0.0,-0.06,-0.06,245.59,281.0,0.0,0.0,0.0,0.0
1776357642590268167,67926,0.0,0.2,0.0,0.3,-0.14,0.04,0.06,-3.75,3.75,0.03,0.06,-0.36,-0.0,-0.19,-0.06,245.59,281.0,0.0,0.0,0.0,0.0
1776357642688579454,68026,0.0,0.4,0.0,1.1,-0.04,0.08,0.06,-3.75,3.75,0.01,0.02,-0.4,0.06,0.12,0.0,249.19,277.0,0.0,0.0,0.0,0.0
1776357642790982162,68125,0.004,0.0,0.0,0.9,-0.08,-0.14,0.06,-3.75,3.75,0.02,0.05,-0.41,-0.06,0.12,-0.12,241.3,277.0,0.0,0.0,0.0,0.0
1776357642889264263,68225,0.0,0.0,0.0,1.3,0.0,-0.02,0.06,-3.75,3.75,0.03,0.05,-0.36,0.06,-0.0,0.0,240.27,279.0,0.0,0.0,0.0,0.0
1776357642991637859,68325,0.0,0.3,0.0,1.0,-0.02,0.04,0.06,-3.75,3.75,0.04,0.01,-0.37,-0.06,0.06,-0.19,240.27,279.0,0.0,0.0,0.0,0.0
1776357643089939741,68425,0.004,0.2,0.0,0.0,0.02,-0.16,0.06,-3.75,3.75,0.0,0.07,-0.39,-0.0,-0.06,-0.06,240.27,279.0,0.0,0.0,0.0,0.0
1776357643198438237,68525,0.004,1.0,0.0,1.1,0.04,-0.06,0.06,-3.75,3.75,0.04,0.04,-0.36,0.06,0.06,0.0,250.22,278.0,0.0,0.0,0.0,0.0
1776357643290673310,68626,0.0,0.1,0.0,0.5,-0.14,0.0,0.06,-3.75,3.75,0.02,0.02,-0.38,-0.0,0.06,0.06,249.19,278.0,0.0,0.0,0.0,0.0
1776357643388974226,68725,0.0,0.3,0.0,1.1,0.16,-0.12,0.06,-3.75,3.75,0.03,0.04,-0.39,0.06,-0.12,0.06,249.19,278.0,0.0,0.0,0.0,0.0
1776357643491372342,68825,0.0,0.4,0.0,0.3,0.0,-0.06,0.06,-3.75,3.75,0.01,-0.0,-0.4,0.06,0.12,0.06,250.22,277.0,0.0,0.0,0.0,0.0
1776357643589668092,68925,0.0,0.0,0.0,0.8,-0.02,0.0,0.06,-3.75,3.75,0.04,0.06,-0.38,-0.0,-0.06,0.12,250.22,280.0,0.0,0.0,0.0,0.0
1776357643687984434,69024,0.0,0.1,0.0,0.3,0.04,-0.06,0.06,-3.75,3.75,0.0,0.02,-0.37,-0.0,-0.06,0.0,249.19,280.0,0.0,0.0,0.0,0.0
1776357643790371475,69124,0.0,0.2,0.0,0.6,-0.1,-0.18,0.06,-3.75,3.75,0.03,0.02,-0.37,0.25,-0.12,0.0,253.31,277.0,0.0,0.0,0.0,0.0
1776357643888666596,69224,0.0,0.5,0.0,0.2,-0.08,-0.04,0.06,-3.75,3.75,0.04,0.01,-0.38,-0.0,-0.25,0.06,250.22,277.0,0.0,0.0,0.0,0.0
1776357643986926605,69323,0.0,0.7,0.0,0.9,0.14,-0.04,0.06,-3.75,3.75,-0.01,-0.0,-0.37,-0.0,-0.0,-0.06,253.31,277.0,0.0,0.0,0.0,0.0
1776357644089340853,69424,0.0,0.1,0.0,1.0,0.04,-0.1,0.06,-3.75,3.75,0.02,0.06,-0.38,0.12,-0.06,0.06,254.51,279.0,0.0,0.0,0.0,0.0
1776357644191761599,69524,0.004,0.3,0.0,0.5,0.0,0.12,0.06,-3.75,3.75,0.01,0.08,-0.39,-0.12,-0.19,0.12,244.56,279.0,0.0,0.0,0.0,0.0
1776357644290074942,69625,0.0,0.7,0.0,0.2,-0.1,-0.14,0.06,-3.75,3.75,0.01,-0.0,-0.39,0.12,-0.0,-0.06,254.33,279.0,0.0,0.0,0.0,0.0
1776357644392468595,69726,0.0,0.3,0.0,0.3,0.08,-0.02,0.06,-3.75,3.75,0.0,0.04,-0.38,0.06,0.25,-0.12,254.51,280.0,0.0,0.0,0.0,0.0
1776357644490768921,69826,0.004,0.3,0.0,0.5,0.0,0.06,0.06,-3.75,3.75,0.02,0.03,-0.37,-0.12,-0.0,0.06,253.31,280.0,0.0,0.0,0.0,0.0
1776357644593161518,69926,0.0,0.4,0.0,1.0,-0.04,-0.04,0.06,-3.75,3.75,0.03,0.01,-0.36,-0.0,-0.06,0.12,254.51,279.0,0.0,0.0,0.0,0.0
1776357644691462139,70026,0.0,0.2,0.0,0.3,0.02,0.04,0.06,-3.75,3.75,0.04,0.09,-0.37,-0.06,-0.06,0.0,253.48,282.0,0.0,0.0,0.0,0.0
1776357644789771298,70126,0.004,0.1,0.0,1.0,-0.06,-0.12,0.06,-3.75,3.75,0.02,0.05,-0.36,0.12,-0.0,0.06,253.48,282.0,0.0,0.0,0.0,0.0
1776357644892167840,70225,0.0,0.2,0.0,0.5,0.02,0.06,0.06,-3.75,3.75,0.02,-0.0,-0.4,0.12,-0.0,-0.12,254.33,281.0,0.0,0.0,0.0,0.0
1776357644990470850,70325,0.0,0.4,0.0,0.3,0.1,-0.12,0.06,-3.75,3.75,0.01,0.03,-0.35,0.06,0.06,-0.06,253.31,280.0,0.0,0.0,0.0,0.0
1776357645088714772,70425,0.004,0.1,0.0,0.7,0.04,0.02,0.06,-3.75,3.75,0.03,0.05,-0.37,0.06,-0.06,0.06,253.48,280.0,0.0,0.0,0.0,0.0
1776357645191157593,70524,0.0,0.3,0.0,0.7,-0.08,-0.04,0.06,-3.75,3.75,0.03,0.04,-0.38,0.12,-0.12,-0.06,254.33,278.0,0.0,0.0,0.0,0.0
1776357645289462772,70624,0.004,0.4,0.0,0.6,0.1,0.02,0.06,-3.75,3.75,0.03,0.02,-0.37,-0.06,0.06,0.12,253.31,278.0,0.0,0.0,0.0,0.0
1776357645391871278,70724,0.0,-0.1,0.0,0.5,0.0,0.08,0.06,-3.75,3.75,-0.01,-0.0,-0.35,-0.0,-0.19,0.06,254.33,277.0,0.0,0.0,0.0,0.0
1776357645490163068,70824,0.0,0.3,0.0,0.5,0.0,-0.1,0.06,-3.75,3.75,0.05,0.04,-0.37,-0.12,0.06,-0.06,253.31,278.0,0.0,0.0,0.0,0.0
1776357645592563092,70924,0.0,0.3,0.0,0.9,-0.04,-0.12,0.06,-3.75,3.75,0.01,0.06,-0.37,-0.0,0.25,-0.06,254.51,278.0,0.0,0.0,0.0,0.0
1776357645690914419,71025,0.0,0.2,0.0,1.2,-0.06,-0.08,0.06,-3.75,3.75,0.03,0.06,-0.37,-0.12,-0.12,0.06,249.19,280.0,0.0,0.0,0.0,0.0
1776357645793260536,71126,0.0,0.5,0.0,0.7,-0.04,-0.02,0.06,-3.75,3.75,0.03,-0.0,-0.4,-0.06,-0.25,0.12,249.19,280.0,0.0,0.0,0.0,0.0
1776357645895659209,71227,0.004,0.2,0.0,0.3,-0.04,-0.21,0.06,-3.75,3.75,0.04,0.02,-0.37,-0.06,0.12,-0.06,250.22,280.0,0.0,0.0,0.0,0.0
1776357645993959424,71327,0.0,0.3,0.0,0.3,0.0,-0.1,0.06,-3.75,3.75,0.09,0.08,-0.37,-0.31,0.06,0.0,253.31,278.0,0.0,0.0,0.0,0.0
1776357646092223033,71427,0.0,0.2,0.0,0.2,-0.1,-0.02,0.06,-3.75,3.75,-0.04,-0.02,-0.41,0.06,-0.12,0.06,249.19,279.0,0.0,0.0,0.0,0.0
1776357646194655522,71527,0.0,0.1,0.0,1.0,-0.16,0.06,0.06,-3.75,3.75,0.02,0.02,-0.38,-0.0,0.37,0.0,253.48,279.0,0.0,0.0,0.0,0.0
1776357646293008278,71627,0.0,0.4,0.0,0.5,0.08,-0.08,0.06,-3.75,3.75,0.01,0.06,-0.36,-0.12,0.12,-0.06,254.33,275.0,0.0,0.0,0.0,0.0
1776357646395351063,71727,0.0,0.6,0.0,0.3,-0.02,0.02,0.06,-3.75,3.75,-0.02,0.04,-0.38,-0.0,0.12,0.06,250.22,275.0,0.0,0.0,0.0,0.0
1776357646493662781,71827,0.0,0.3,0.0,0.5,-0.04,-0.21,0.06,-3.75,3.75,0.05,-0.04,-0.4,-0.06,0.37,-0.12,254.51,281.0,0.0,0.0,0.0,0.0
1776357646591965555,71926,0.0,0.3,0.0,1.2,-0.12,-0.06,0.06,-3.75,3.75,0.02,0.13,-0.36,0.06,-0.0,-0.06,253.48,277.0,0.0,0.0,0.0,0.0
1776357646694364636,72026,0.0,0.3,0.0,0.9,-0.1,-0.08,0.06,-3.75,3.75,0.02,0.02,-0.37,-0.06,-0.12,0.0,244.56,277.0,0.0,0.0,0.0,0.0
1776357646792655484,72126,0.0,0.2,0.0,0.7,0.0,-0.1,0.06,-3.75,3.75,-0.01,-0.02,-0.41,-0.0,0.25,-0.19,253.48,277.0,0.0,0.0,0.0,0.0
1776357646890946017,72225,0.0,0.1,0.0,0.4,-0.04,0.04,0.06,-3.75,3.75,0.05,0.07,-0.37,-0.19,0.06,0.0,250.22,280.0,0.0,0.0,0.0,0.0
1776357646993348395,72325,0.0,0.3,0.0,0.2,-0.1,-0.06,0.06,-3.75,3.75,-0.01,0.14,-0.35,-0.06,0.19,-0.12,253.48,280.0,0.0,0.0,0.0,0.0
1776357647091621914,72425,0.0,0.2,0.0,0.5,-0.04,-0.1,0.06,-3.75,3.75,0.01,-0.0,-0.38,-0.19,-0.37,0.0,253.48,278.0,0.0,0.0,0.0,0.0
1776357647200024726,72525,0.0,0.5,0.0,1.1,-0.16,0.04,0.06,-3.75,3.75,0.08,0.06,-0.35,0.06,0.06,-0.06,253.31,280.0,0.0,0.0,0.0,0.0
1776357647292354923,72625,0.0,0.2,0.0,0.3,0.06,0.04,0.06,-3.75,3.75,0.0,0.05,-0.35,0.12,-0.56,0.19,254.51,280.0,0.0,0.0,0.0,0.0
1776357647390594681,72725,0.0,0.2,0.0,0.6,0.08,-0.04,0.06,-3.75,3.75,0.04,-0.0,-0.4,-0.0,0.06,0.0,253.31,281.0,0.0,0.0,0.0,0.0
1776357647493064080,72825,0.0,0.3,0.0,0.4,0.0,-0.1,0.06,-3.75,3.75,0.0,-0.0,-0.39,0.12,0.12,-0.12,254.33,281.0,0.0,0.0,0.0,0.0
1776357647591325689,72925,0.0,0.5,0.0,1.2,-0.06,-0.06,0.06,-3.75,3.75,0.0,0.08,-0.37,-0.0,-0.06,0.12,254.51,281.0,0.0,0.0,0.0,0.0
1776357647693750292,73025,0.0,0.3,0.0,0.5,0.0,-0.1,0.06,-3.75,3.75,0.05,0.03,-0.38,0.12,0.06,-0.06,254.51,280.0,0.0,0.0,0.0,0.0
1776357647792082865,73125,0.004,0.4,0.0,1.0,0.0,0.0,0.06,-3.75,3.75,0.0,0.03,-0.37,-0.0,0.25,0.06,253.48,280.0,0.0,0.0,0.0,0.0
1776357647894455097,73225,0.0,0.4,0.0,1.2,0.14,-0.1,0.06,-3.75,3.75,0.08,0.03,-0.39,-0.12,-0.06,0.12,253.31,278.0,0.0,0.0,0.0,0.0
1776357647992746707,73326,0.004,0.3,0.0,1.2,0.02,-0.1,0.06,-3.75,3.75,0.0,-0.0,-0.41,0.06,0.06,0.0,254.33,278.0,0.0,0.0,0.0,0.0
1776357648090999155,73425,0.0,0.2,0.0,0.9,0.14,-0.06,0.06,-3.75,3.75,0.0,0.04,-0.4,-0.0,0.12,0.12,244.56,278.0,0.0,0.0,0.0,0.0
1776357648193447242,73525,0.004,0.2,0.0,0.6,-0.08,0.02,0.06,-3.75,3.75,0.01,-0.01,-0.42,-0.0,0.25,0.0,245.59,279.0,0.0,0.0,0.0,0.0
1776357648291744337,73625,0.0,0.3,0.0,1.0,-0.08,-0.06,0.06,-3.75,3.75,0.0,0.05,-0.37,-0.0,-0.0,0.06,245.93,282.0,0.0,0.0,0.0,0.0
1776357648390048820,73724,0.0,0.2,0.0,0.9,-0.1,-0.14,0.06,-3.75,3.75,0.03,0.05,-0.36,0.06,-0.12,-0.12,244.39,282.0,0.0,0.0,0.0,0.0
1776357648492451666,73824,0.0,0.2,0.0,0.9,0.06,-0.04,0.06,-3.75,3.75,-0.02,-0.0,-0.38,-0.0,-0.31,-0.25,240.27,278.0,0.0,0.0,0.0,0.0
1776357648590729353,73925,0.0,0.5,0.0,0.4,-0.06,-0.12,0.06,-3.75,3.75,0.04,0.01,-0.28,-0.12,-0.19,0.0,244.39,278.0,0.0,0.0,0.0,0.0
1776357648693153347,74024,0.004,0.3,0.0,0.3,0.08,-0.08,0.06,-3.75,3.75,0.17,-0.0,-0.29,0.12,-1.63,0.25,241.3,281.0,0.0,0.0,0.0,0.0
1776357648795543193,74125,0.0,0.6,0.0,0.7,-0.04,-0.1,0.06,-3.63,3.75,-0.02,0.34,-0.4,-0.12,0.19,-0.19,241.3,284.0,0.0,0.0,0.0,0.0
1776357648893849436,74225,0.0,0.4,0.0,0.2,-0.18,-0.02,0.06,-3.69,3.69,0.05,-0.04,-0.34,-0.06,-0.0,-0.06,249.88,284.0,0.0,0.0,0.0,0.0
1776357648992174068,74324,0.0,0.1,0.0,0.3,0.0,0.04,0.06,-3.69,3.75,-0.02,-0.08,-0.43,-0.31,0.69,-0.19,11972.59,275.0,0.0,0.0,0.0,0.0
1776357649094499270,74424,0.0,0.6,0.0,0.2,-0.12,-0.06,0.06,-3.69,3.69,0.07,0.09,-0.36,0.19,-0.75,0.12,241.99,203.0,0.0,0.0,0.0,0.0
1776357649192862628,74525,0.0,0.6,0.0,1.1,0.08,0.02,0.06,-3.63,3.75,-0.03,-0.0,-0.37,0.12,0.75,-0.31,199.63,203.0,0.0,0.0,0.0,0.0
1776357649295239773,74625,0.0,0.2,0.0,0.9,-0.08,0.0,0.06,-3.63,3.75,0.1,0.06,-0.37,-0.0,0.63,-0.31,194.82,220.0,0.0,0.0,0.0,0.0
1776357649393548168,74726,0.0,0.6,0.0,0.3,-0.12,-0.06,0.06,-3.69,3.69,0.01,-0.04,-0.4,0.06,-0.12,-0.12,194.82,228.0,0.0,0.0,0.0,0.0
1776357649491848544,74825,0.004,0.2,0.0,1.0,-0.1,0.1,0.06,-3.69,3.75,0.01,-0.07,-0.4,-0.19,-0.44,0.31,182.3,228.0,0.0,0.0,0.0,0.0
1776357649594244060,74925,0.004,0.3,0.0,0.5,0.14,0.0,0.06,-3.63,3.75,0.03,0.17,-0.38,0.12,-1.0,0.19,203.74,221.0,0.0,0.0,0.0,0.0
1776357649696646316,75026,0.004,0.1,0.0,0.6,-0.14,0.04,0.06,-3.56,3.75,0.03,0.04,-0.42,0.12,0.19,0.0,190.54,221.0,0.0,0.0,0.0,0.0
1776357649794960637,75126,0.0,0.3,0.0,0.9,-0.02,0.04,0.06,-3.56,3.75,0.08,-0.05,-0.39,0.12,0.31,-0.37,194.82,221.0,0.0,0.0,0.0,0.0
1776357649897346690,75226,0.0,0.8,0.0,0.6,-0.06,0.1,0.06,-3.56,3.75,0.02,0.08,-0.4,0.06,-0.31,0.0,223.64,229.0,0.0,0.0,0.0,0.0
1776357649995646492,75327,0.0,0.1,0.0,1.0,-0.04,0.02,0.06,-3.63,3.75,-0.34,-0.05,-0.4,-0.44,0.81,-0.63,216.26,229.0,0.0,0.0,0.0,0.0
1776357650093886855,75426,0.0,0.6,0.0,0.7,-0.02,0.06,-0.0,-3.69,3.75,0.3,0.05,-0.25,0.81,0.19,-0.63,302.35,232.0,0.0,0.0,0.0,0.0
1776357650196342615,75527,0.008,0.3,0.0,0.8,-0.14,-0.16,-0.0,-3.69,3.81,-0.03,0.01,-0.53,-0.31,-0.06,0.25,288.63,234.0,0.0,0.0,0.0,0.0
1776357650294629811,75627,0.004,0.3,0.0,0.7,0.1,-0.14,-0.0,-3.69,3.81,-0.01,-0.0,-0.46,-0.25,0.31,0.12,293.26,234.0,0.0,0.0,0.0,0.0
1776357650398955028,75726,0.0,0.4,0.0,0.8,0.1,0.04,-0.0,-3.63,3.81,0.01,0.05,-0.36,0.12,-0.31,-0.12,11970.7,233.0,0.0,0.0,0.0,0.0
1776357650495343915,75826,0.0,0.2,0.0,0.3,-0.12,-0.04,-0.0,-3.63,3.81,0.04,0.01,-0.37,-0.06,0.12,-0.19,288.12,234.0,0.0,0.0,0.0,0.0
1776357650603757344,75926,0.0,0.2,0.0,0.9,0.04,-0.1,-0.0,-3.69,3.81,0.05,-0.0,-0.39,0.06,-0.37,0.0,283.83,234.0,0.0,0.0,0.0,0.0
1776357650696049314,76026,0.0,0.3,0.0,1.2,-0.16,-0.12,-0.0,-3.69,3.81,0.04,0.08,-0.39,-0.19,-0.19,-0.06,288.12,233.0,0.0,0.0,0.0,0.0
1776357650794331751,76126,0.0,0.3,0.0,1.2,-0.14,0.08,-0.0,-3.63,3.81,-0.02,-0.01,-0.4,0.06,0.12,-0.19,305.44,233.0,0.0,0.0,0.0,0.0
1776357650896742288,76226,0.0,0.3,0.0,0.3,-0.12,-0.04,-0.0,-3.69,3.81,0.01,0.02,-0.39,0.19,-0.37,0.06,301.15,235.0,0.0,0.0,0.0,0.0
1776357650995032539,76325,0.0,0.5,0.0,0.4,0.08,-0.06,-0.0,-3.69,3.81,0.04,0.09,-0.4,-0.19,-0.19,-0.06,276.11,233.0,0.0,0.0,0.0,0.0
1776357651103357010,76425,0.0,0.5,0.0,0.4,0.02,-0.06,-0.0,-3.69,3.81,0.01,-0.02,-0.4,-0.0,0.31,0.0,298.24,233.0,0.0,0.0,0.0,0.0
1776357651195753505,76526,0.0,0.3,0.0,0.1,0.04,-0.14,-0.0,-3.69,3.81,0.02,0.01,-0.38,0.06,-0.12,0.0,283.83,234.0,0.0,0.0,0.0,0.0
1776357651298169010,76626,0.004,0.1,0.0,0.7,0.04,-0.08,-0.0,-3.69,3.81,0.04,0.04,-0.4,-0.0,0.12,0.0,216.26,231.0,0.0,0.0,0.0,0.0
1776357651396438858,76726,0.0,0.2,0.0,0.3,-0.02,-0.06,-0.0,-3.69,3.81,0.03,-0.01,-0.37,0.19,0.19,-0.06,211.46,231.0,0.0,0.0,0.0,0.0
1776357651494797299,76826,0.0,0.3,0.0,0.8,-0.08,-0.02,-0.0,-3.69,3.81,0.01,0.04,-0.4,-0.0,-0.06,0.06,207.34,230.0,0.0,0.0,0.0,0.0
1776357651603190454,76925,0.004,0.2,0.0,0.9,0.0,-0.04,-0.0,-3.69,3.81,0.04,0.04,-0.4,-0.06,0.06,0.0,229.47,230.0,0.0,0.0,0.0,0.0
1776357651695441467,77025,0.004,0.6,0.0,0.1,-0.08,-0.16,-0.0,-3.69,3.81,0.03,-0.01,-0.37,-0.06,-0.06,-0.06,292.75,230.0,0.0,0.0,0.0,0.0
1776357651793726408,77125,0.0,0.3,0.0,0.3,-0.1,-0.1,-0.0,-3.69,3.81,0.01,0.07,-0.39,0.06,-0.19,0.0,271.31,234.0,0.0,0.0,0.0,0.0
1776357651896140968,77224,0.0,-0.1,0.0,0.7,-0.06,-0.2,-0.0,-3.69,3.81,0.03,-0.0,-0.36,-0.06,0.06,0.06,268.23,232.0,0.0,0.0,0.0,0.0
1776357651994430928,77324,0.0,0.1,0.0,0.6,0.12,0.0,-0.0,-3.69,3.81,0.01,-0.01,-0.39,-0.0,-0.19,-0.06,263.08,232.0,0.0,0.0,0.0,0.0
1776357652092710041,77424,0.0,0.7,0.0,0.8,-0.04,-0.06,-0.0,-3.69,3.81,0.0,0.03,-0.36,0.06,0.06,0.0,258.79,233.0,0.0,0.0,0.0,0.0
1776357652195138958,77523,0.0,0.3,0.0,1.0,0.06,-0.16,-0.0,-3.69,3.81,0.02,-0.0,-0.35,-0.06,-0.06,0.06,254.51,233.0,0.0,0.0,0.0,0.0
1776357652293441441,77623,0.0,0.4,0.0,0.2,-0.04,-0.1,-0.0,-3.69,3.81,0.03,0.02,-0.41,-0.06,-0.0,0.12,258.79,231.0,0.0,0.0,0.0,0.0
1776357652391708721,77723,0.0,0.4,0.0,1.0,0.1,-0.14,-0.0,-3.69,3.81,0.03,-0.0,-0.37,-0.06,-0.06,0.0,260.34,231.0,0.0,0.0,0.0,0.0
1776357652494133563,77822,0.0,0.1,0.0,0.3,-0.02,-0.02,-0.0,-3.69,3.81,0.02,0.01,-0.39,-0.06,-0.06,0.0,264.62,231.0,0.0,0.0,0.0,0.0
1776357652592426972,77922,0.0,0.7,0.0,0.3,-0.06,-0.14,-0.0,-3.69,3.81,0.03,0.02,-0.36,0.25,0.19,-0.12,268.74,230.0,0.0,0.0,0.0,0.0
1776357652694838204,78023,0.0,0.1,0.0,0.9,0.1,-0.18,-0.0,-3.69,3.81,0.06,-0.0,-0.37,-0.0,-0.0,0.19,273.03,232.0,0.0,0.0,0.0,0.0
1776357652793131724,78124,0.0,0.2,0.0,0.3,0.04,-0.14,-0.0,-3.69,3.81,0.01,0.05,-0.37,0.06,-0.19,0.12,272.0,232.0,0.0,0.0,0.0,0.0
1776357652895531400,78224,0.0,0.5,0.0,0.5,0.08,-0.04,-0.0,-3.69,3.81,0.03,0.03,-0.37,-0.0,0.19,-0.06,227.07,232.0,0.0,0.0,0.0,0.0
1776357652993833050,78324,0.0,0.5,0.0,1.1,0.14,-0.04,-0.0,-3.69,3.81,0.02,-0.0,-0.38,-0.0,0.12,-0.06,223.98,232.0,0.0,0.0,0.0,0.0
1776357653096186787,78425,0.0,0.5,0.0,0.5,0.06,0.04,-0.0,-3.69,3.81,0.03,0.01,-0.38,0.12,-0.0,0.0,211.29,231.0,0.0,0.0,0.0,0.0
1776357653198622654,78526,0.0,0.1,0.0,0.8,-0.14,-0.02,-0.0,-3.69,3.81,0.03,0.03,-0.36,-0.06,0.12,-0.06,223.98,232.0,0.0,0.0,0.0,0.0
1776357653296926143,78625,0.0,0.4,0.0,0.5,0.1,-0.1,-0.0,-3.69,3.81,0.01,0.03,-0.37,-0.0,-0.0,0.12,223.98,232.0,0.0,0.0,0.0,0.0
1776357653395208557,78725,0.0,0.9,0.0,0.8,0.12,-0.04,-0.0,-3.69,3.81,0.05,0.01,-0.37,0.06,0.06,0.0,215.58,232.0,0.0,0.0,0.0,0.0
1776357653497620016,78826,0.0,0.2,0.0,1.0,0.08,0.02,-0.0,-3.69,3.81,0.02,0.02,-0.37,-0.0,-0.12,0.0,214.55,232.0,0.0,0.0,0.0,0.0
1776357653595928671,78926,0.0,0.6,0.0,0.4,-0.08,0.12,-0.0,-3.69,3.81,0.03,0.05,-0.39,-0.06,-0.0,0.0,215.58,232.0,0.0,0.0,0.0,0.0
1776357653698321556,79026,0.0,0.1,0.0,0.7,0.02,0.02,-0.0,-3.69,3.81,0.03,-0.0,-0.37,-0.06,0.06,-0.12,214.55,234.0,0.0,0.0,0.0,0.0
1776357653796649397,79127,0.0,0.1,0.0,0.2,-0.04,-0.1,-0.0,-3.69,3.81,0.03,0.03,-0.35,-0.06,0.06,-0.06,190.36,231.0,0.0,0.0,0.0,0.0
1776357653899010874,79226,0.0,0.1,0.0,0.1,-0.06,0.06,-0.0,-3.69,3.81,0.01,0.05,-0.38,0.06,-0.0,-0.12,251.08,231.0,0.0,0.0,0.0,0.0
1776357653997322326,79326,0.0,0.5,0.0,0.5,0.02,-0.1,-0.0,-3.69,3.81,0.05,-0.04,-0.39,-0.0,-0.12,0.06,227.58,227.0,0.0,0.0,0.0,0.0
1776357654095579136,79426,0.0,0.3,0.0,1.3,-0.08,-0.21,-0.0,-3.69,3.81,0.05,0.02,-0.37,-0.12,-0.06,0.06,255.36,231.0,0.0,0.0,0.0,0.0
1776357654198046193,79525,0.0,0.9,0.0,1.0,0.08,0.0,-0.0,-3.69,3.81,0.04,0.02,-0.38,-0.06,0.19,-0.06,247.99,231.0,0.0,0.0,0.0,0.0
1776357654296331040,79625,0.004,0.2,0.0,0.2,0.02,-0.08,-0.0,-3.69,3.81,0.03,0.01,-0.38,-0.06,-0.06,0.0,242.5,234.0,0.0,0.0,0.0,0.0
1776357654398725245,79726,0.0,0.2,0.0,1.1,0.1,0.02,-0.0,-3.69,3.81,0.04,0.01,-0.36,-0.0,-0.12,0.0,246.79,234.0,0.0,0.0,0.0,0.0
1776357654497024165,79825,0.0,0.2,0.004,0.6,-0.1,-0.04,-0.0,-3.69,3.81,0.02,-0.0,-0.39,-0.06,-0.06,-0.06,229.47,232.0,0.0,0.0,0.0,0.0
1776357654599424796,79926,0.0,0.1,0.0,0.9,0.08,-0.06,-0.0,-3.69,3.81,0.03,0.01,-0.37,0.06,-0.25,0.12,238.56,232.0,0.0,0.0,0.0,0.0
1776357654697727050,80027,0.004,0.2,0.0,0.9,-0.12,0.04,-0.0,-3.69,3.81,0.03,0.02,-0.39,0.06,-0.0,-0.12,235.3,232.0,0.0,0.0,0.0,0.0
1776357654800117347,80126,0.0,-0.1,0.0,1.1,0.02,-0.04,-0.0,-3.69,3.81,0.02,0.01,-0.36,0.06,-0.0,0.06,227.58,231.0,0.0,0.0,0.0,0.0
1776357654898424972,80226,0.0,0.4,0.0,0.7,0.2,-0.08,-0.0,-3.69,3.81,0.03,0.02,-0.37,-0.12,-0.0,-0.06,219.18,233.0,0.0,0.0,0.0,0.0
1776357654996725874,80325,0.004,0.1,0.0,0.3,-0.04,0.14,-0.0,-3.69,3.81,0.02,-0.01,-0.36,-0.06,0.12,-0.06,244.9,233.0,0.0,0.0,0.0,0.0
1776357655099102567,80425,0.0,0.5,0.0,0.6,0.0,-0.04,-0.0,-3.69,3.81,0.04,0.06,-0.38,0.06,-0.06,0.0,265.14,232.0,0.0,0.0,0.0,0.0
1776357655197408531,80526,0.0,0.2,0.0,1.0,-0.14,0.0,-0.0,-3.69,3.81,0.04,-0.0,-0.38,0.12,-0.06,-0.06,232.38,232.0,0.0,0.0,0.0,0.0
1776357655299816834,80626,0.0,0.1,0.0,0.9,0.04,-0.06,-0.0,-3.69,3.81,0.02,-0.0,-0.37,-0.0,-0.12,0.0,219.86,232.0,0.0,0.0,0.0,0.0
1776357655398124706,80726,0.0,0.2,0.0,0.7,-0.02,-0.02,-0.0,-3.69,3.81,0.01,0.05,-0.38,0.12,-0.06,-0.06,219.86,230.0,0.0,0.0,0.0,0.0
1776357655500520620,80826,0.004,0.4,0.0,0.3,-0.04,-0.06,-0.0,-3.69,3.81,0.03,0.02,-0.36,-0.0,0.12,-0.06,213.86,230.0,0.0,0.0,0.0,0.0
1776357655598812936,80926,0.004,0.1,0.0,0.3,0.08,-0.02,-0.0,-3.69,3.81,0.04,0.03,-0.38,-0.06,-0.19,0.0,218.15,232.0,0.0,0.0,0.0,0.0
1776357655701215999,81027,0.0,0.3,0.0,0.8,-0.04,-0.08,-0.0,-3.69,3.81,0.05,0.01,-0.38,0.06,-0.06,0.12,214.03,231.0,0.0,0.0,0.0,0.0
1776357655799476036,81128,0.0,0.2,0.0,0.9,-0.06,-0.06,-0.0,-3.69,3.81,0.02,-0.0,-0.38,-0.0,0.12,0.0,215.06,231.0,0.0,0.0,0.0,0.0
1776357655901910118,81228,0.004,0.2,0.0,0.1,-0.02,-0.1,-0.0,-3.69,3.81,0.04,0.03,-0.39,-0.06,0.19,0.12,211.46,232.0,0.0,0.0,0.0,0.0
1776357656000214582,81328,0.0,0.9,0.0,0.5,-0.04,0.16,-0.0,-3.69,3.81,0.03,0.01,-0.38,-0.06,0.06,-0.12,211.46,232.0,0.0,0.0,0.0,0.0
1776357656102589225,81428,0.0,0.1,0.0,0.2,-0.02,-0.04,-0.0,-3.69,3.81,0.0,0.01,-0.36,-0.0,0.12,-0.06,203.06,232.0,0.0,0.0,0.0,0.0
1776357656200915881,81528,0.0,0.7,0.0,0.7,-0.12,-0.14,-0.0,-3.69,3.81,0.05,0.03,-0.35,-0.0,-0.19,0.0,203.06,234.0,0.0,0.0,0.0,0.0
1776357656303305876,81628,0.0,0.1,0.0,0.7,0.02,-0.08,-0.0,-3.69,3.81,0.03,-0.0,-0.37,-0.06,-0.06,0.0,202.03,231.0,0.0,0.0,0.0,0.0
1776357656401606420,81729,0.0,0.1,0.0,0.8,-0.02,-0.02,-0.0,-3.69,3.81,0.02,0.04,-0.38,-0.0,-0.06,0.06,207.17,231.0,0.0,0.0,0.0,0.0
1776357656499871428,81828,0.0,0.4,0.0,1.0,0.06,-0.12,-0.0,-3.69,3.81,0.02,0.03,-0.36,-0.0,-0.06,0.0,210.94,232.0,0.0,0.0,0.0,0.0
1776357656602307849,81929,0.0,0.1,0.0,0.9,-0.1,-0.12,-0.0,-3.69,3.81,0.0,-0.0,-0.36,-0.12,-0.0,-0.06,203.06,231.0,0.0,0.0,0.0,0.0
1776357656700601968,82029,0.0,0.3,0.0,1.0,-0.12,0.14,-0.0,-3.69,3.81,0.05,0.02,-0.37,-0.0,0.12,-0.06,211.46,231.0,0.0,0.0,0.0,0.0
1776357656802975037,82128,0.004,0.3,0.0,1.0,-0.1,0.08,-0.0,-3.69,3.81,0.03,0.04,-0.4,-0.0,0.31,0.0,215.06,230.0,0.0,0.0,0.0,0.0
1776357656901311082,82228,0.0,0.2,0.0,1.0,0.04,-0.14,-0.0,-3.69,3.81,0.04,-0.0,-0.37,-0.0,0.19,0.0,215.06,230.0,0.0,0.0,0.0,0.0
1776357656999628108,82328,0.0,0.2,0.0,0.9,-0.04,0.0,-0.0,-3.69,3.81,0.06,0.01,-0.38,0.06,-0.06,0.0,215.06,230.0,0.0,0.0,0.0,0.0
1776357657101997239,82427,0.0,0.4,0.0,0.7,0.08,-0.14,-0.0,-3.69,3.81,0.02,0.06,-0.38,-0.0,-0.12,0.06,215.06,230.0,0.0,0.0,0.0,0.0
1776357657200282920,82528,0.004,0.1,0.0,0.9,-0.16,-0.06,-0.0,-3.69,3.81,0.03,0.03,-0.36,-0.0,-0.0,-0.06,215.06,230.0,0.0,0.0,0.0,0.0
1776357657302703663,82628,0.004,0.2,0.0,0.8,0.0,-0.1,-0.0,-3.69,3.81,0.03,-0.0,-0.4,-0.06,0.06,0.0,213.86,232.0,0.0,0.0,0.0,0.0
1776357657401000567,82728,0.0,0.5,0.0,0.9,0.02,0.04,-0.0,-3.69,3.81,0.02,0.01,-0.36,0.12,-0.12,0.12,198.94,232.0,0.0,0.0,0.0,0.0
1776357657503409142,82828,0.0,0.5,0.0,0.2,-0.04,-0.06,-0.0,-3.69,3.81,0.02,0.03,-0.39,-0.0,0.06,-0.06,203.06,232.0,0.0,0.0,0.0,0.0
1776357657601721453,82928,0.0,0.3,0.0,0.8,0.02,-0.16,-0.0,-3.69,3.81,0.01,0.05,-0.36,-0.06,-0.0,0.0,207.17,231.0,0.0,0.0,0.0,0.0
1776357657710249435,83028,0.0,0.4,0.0,0.3,-0.1,-0.1,-0.0,-3.69,3.81,0.03,-0.01,-0.37,-0.12,0.06,0.0,203.06,231.0,0.0,0.0,0.0,0.0
1776357657802411951,83128,0.004,0.5,0.0,0.3,0.02,0.1,-0.0,-3.69,3.81,0.0,0.04,-0.38,-0.12,-0.19,0.06,213.86,231.0,0.0,0.0,0.0,0.0
1776357657900664169,83228,0.0,0.2,0.0,1.0,-0.08,0.1,-0.0,-3.69,3.81,0.02,0.07,-0.36,-0.12,-0.19,0.12,215.06,228.0,0.0,0.0,0.0,0.0
1776357658003093689,83329,0.0,0.9,0.0,0.2,0.14,-0.04,-0.0,-3.69,3.81,0.03,0.01,-0.41,0.06,-0.0,0.06,215.06,228.0,0.0,0.0,0.0,0.0
1776357658101377804,83429,0.0,0.2,0.0,1.0,0.06,0.02,-0.0,-3.69,3.81,0.01,0.01,-0.38,0.12,0.12,-0.06,223.46,229.0,0.0,0.0,0.0,0.0
1776357658203812850,83528,0.004,0.2,0.0,1.3,-0.04,-0.14,-0.0,-3.69,3.81,0.03,-0.0,-0.38,-0.0,-0.0,0.0,227.58,229.0,0.0,0.0,0.0,0.0
1776357658302100002,83628,0.0,0.9,0.0,0.6,-0.1,-0.02,-0.0,-3.69,3.81,0.04,-0.0,-0.36,-0.06,-0.12,0.0,215.06,229.0,0.0,0.0,0.0,0.0
1776357658404494844,83729,0.0,0.5,0.0,1.2,-0.08,0.08,-0.0,-3.69,3.81,0.03,0.08,-0.38,0.06,0.06,0.0,203.06,233.0,0.0,0.0,0.0,0.0
1776357658502858551,83828,0.0,0.1,0.0,0.9,-0.16,-0.02,-0.0,-3.69,3.81,0.02,0.05,-0.35,0.06,-0.12,0.06,197.91,231.0,0.0,0.0,0.0,0.0
1776357658605205134,83929,0.0,0.8,0.0,0.9,-0.14,-0.06,-0.0,-3.69,3.81,0.0,0.02,-0.39,0.19,-0.12,0.06,203.06,231.0,0.0,0.0,0.0,0.0
1776357658703498434,84030,0.0,0.0,0.0,0.9,0.06,-0.06,-0.0,-3.69,3.81,0.06,0.03,-0.35,0.06,-0.12,0.12,203.06,231.0,0.0,0.0,0.0,0.0
1776357658801791382,84129,0.004,0.4,0.0,0.8,0.0,0.08,-0.0,-3.69,3.81,0.02,0.07,-0.4,-0.0,-0.31,0.06,207.34,229.0,0.0,0.0,0.0,0.0
1776357658904198668,84229,0.0,0.3,0.0,0.7,0.0,-0.1,-0.0,-3.69,3.81,0.06,0.07,-0.39,-0.06,-0.19,0.0,207.17,229.0,0.0,0.0,0.0,0.0
1776357659002486413,84329,0.0,0.2,0.0,0.5,0.12,-0.02,-0.0,-3.69,3.81,0.0,0.08,-0.38,-0.06,0.06,-0.12,202.03,229.0,0.0,0.0,0.0,0.0
1776357659104921206,84429,0.0,0.3,0.0,0.3,0.08,0.08,-0.0,-3.69,3.81,0.0,-0.01,-0.39,0.12,0.06,0.0,198.94,229.0,0.0,0.0,0.0,0.0
1776357659203204347,84529,0.0,0.4,0.0,0.3,0.04,-0.16,-0.0,-3.69,3.81,0.03,-0.02,-0.4,-0.0,0.12,0.0,198.94,229.0,0.0,0.0,0.0,0.0
1776357659311549563,84629,0.0,0.2,0.0,0.3,-0.14,-0.1,-0.0,-3.69,3.81,0.04,0.07,-0.36,-0.0,-0.19,0.0,212.15,230.0,0.0,0.0,0.0,0.0
1776357659403886541,84728,0.0,0.4,0.0,1.0,-0.14,-0.1,-0.0,-3.69,3.81,0.05,0.03,-0.38,-0.06,-0.25,0.0,202.03,230.0,0.0,0.0,0.0,0.0
1776357659502181608,84828,0.0,0.4,0.0,0.7,0.08,-0.08,-0.0,-3.69,3.81,0.03,-0.01,-0.4,0.06,0.12,-0.06,203.06,229.0,0.0,0.0,0.0,0.0
1776357659604592254,84928,0.0,0.3,0.0,1.2,0.02,-0.2,-0.0,-3.69,3.81,0.03,0.05,-0.38,0.06,-0.12,0.0,206.66,229.0,0.0,0.0,0.0,0.0
1776357659702896636,85028,0.0,0.6,0.0,0.9,-0.06,0.02,-0.0,-3.69,3.81,0.02,0.06,-0.39,-0.0,-0.37,0.06,207.34,229.0,0.0,0.0,0.0,0.0
1776357659805307004,85129,0.0,0.2,0.0,0.2,0.08,0.0,-0.0,-3.69,3.81,0.05,0.02,-0.38,-0.06,-0.0,-0.12,207.17,228.0,0.0,0.0,0.0,0.0
1776357659903560608,85229,0.0,0.1,0.0,0.9,-0.1,-0.1,-0.0,-3.69,3.81,0.0,-0.0,-0.38,0.12,0.25,-0.12,216.26,229.0,0.0,0.0,0.0,0.0
1776357660001840545,85328,0.004,0.2,0.0,0.3,0.06,0.0,-0.0,-3.69,3.81,0.04,-0.0,-0.35,-0.0,0.25,-0.06,207.86,229.0,0.0,0.0,0.0,0.0
1776357660104279513,85429,0.004,0.3,0.0,0.7,0.06,-0.06,-0.0,-3.69,3.81,0.03,0.02,-0.37,-0.0,0.06,-0.12,207.86,230.0,0.0,0.0,0.0,0.0
1776357660202541699,85529,0.004,0.2,0.0,1.1,-0.04,-0.06,-0.0,-3.69,3.81,0.0,0.05,-0.4,-0.06,-0.12,0.06,220.89,230.0,0.0,0.0,0.0,0.0
1776357660304958167,85628,0.0,0.2,0.0,0.8,-0.08,-0.12,-0.0,-3.69,3.81,0.03,0.01,-0.41,-0.06,-0.0,0.19,221.06,230.0,0.0,0.0,0.0,0.0
1776357660403290076,85728,0.0,0.5,0.0,0.7,-0.16,-0.1,-0.0,-3.69,3.81,0.03,-0.0,-0.39,-0.12,0.06,0.0,242.5,229.0,0.0,0.0,0.0,0.0
1776357660511755596,85828,0.0,0.2,0.0,1.0,-0.06,-0.06,-0.0,-3.69,3.81,0.03,-0.0,-0.36,-0.19,0.19,-0.06,211.97,229.0,0.0,0.0,0.0,0.0
1776357660603985490,85927,0.0,0.7,0.0,0.9,-0.14,-0.08,-0.0,-3.69,3.81,0.02,0.06,-0.4,0.06,0.06,0.0,210.94,228.0,0.0,0.0,0.0,0.0
1776357660702266343,86027,0.0,0.3,0.0,1.4,-0.06,-0.2,-0.0,-3.69,3.81,0.04,-0.0,-0.39,-0.12,0.06,-0.06,231.7,228.0,0.0,0.0,0.0,0.0
1776357660804687329,86127,0.0,0.2,0.0,0.8,-0.06,0.02,-0.0,-3.69,3.81,0.02,-0.0,-0.4,-0.06,-0.19,0.12,214.89,228.0,0.0,0.0,0.0,0.0
1776357660902979571,86227,0.0,0.1,0.0,0.9,-0.02,0.0,-0.0,-3.69,3.81,0.04,0.09,-0.4,-0.06,-0.25,0.12,215.06,231.0,0.0,0.0,0.0,0.0
1776357661005390724,86327,0.0,0.4,0.004,0.4,-0.06,-0.16,-0.0,-3.69,3.81,0.02,-0.0,-0.37,-0.06,-0.0,0.19,215.06,229.0,0.0,0.0,0.0,0.0
1776357661103656159,86427,0.0,0.5,0.0,1.0,-0.04,-0.1,-0.0,-3.69,3.81,0.04,-0.02,-0.4,-0.0,-0.0,0.06,215.06,229.0,0.0,0.0,0.0,0.0
1776357661202015429,86526,0.004,0.1,0.0,1.1,0.0,-0.14,-0.0,-3.69,3.81,0.0,0.03,-0.4,-0.06,-0.0,0.0,215.06,230.0,0.0,0.0,0.0,0.0
1776357661304384960,86627,0.0,0.1,0.0,1.2,0.12,-0.12,-0.0,-3.69,3.81,0.03,-0.0,-0.4,0.12,0.06,-0.06,215.06,230.0,0.0,0.0,0.0,0.0
1776357661402691933,86726,0.0,0.3,0.0,0.4,-0.02,-0.06,-0.0,-3.69,3.81,0.01,0.01,-0.4,0.12,-0.06,-0.06,214.55,230.0,0.0,0.0,0.0,0.0
1776357661500986868,86825,0.0,0.2,0.0,0.5,0.12,-0.12,-0.0,-3.69,3.81,0.0,0.01,-0.4,0.06,0.06,0.06,215.75,233.0,0.0,0.0,0.0,0.0
1776357661603386066,86925,0.0,0.3,0.0,0.3,0.0,0.0,-0.0,-3.69,3.81,0.03,0.04,-0.4,-0.0,-0.06,-0.06,207.34,233.0,0.0,0.0,0.0,0.0
1776357661701679965,87025,0.0,0.3,0.0,1.2,-0.18,-0.04,-0.0,-3.69,3.81,0.02,-0.0,-0.38,-0.0,0.19,-0.06,215.58,233.0,0.0,0.0,0.0,0.0
1776357661804088478,87126,0.004,0.3,0.0,1.3,-0.02,-0.02,-0.0,-3.69,3.81,0.03,-0.0,-0.39,0.12,0.06,0.06,215.58,234.0,0.0,0.0,0.0,0.0
1776357661902376339,87226,0.0,0.3,0.0,0.9,-0.12,0.04,-0.0,-3.69,3.81,0.03,-0.0,-0.41,-0.12,-0.0,-0.06,218.15,234.0,0.0,0.0,0.0,0.0
1776357662004775371,87326,0.0,0.6,0.0,0.3,0.06,-0.06,-0.0,-3.69,3.81,0.03,0.02,-0.39,-0.19,0.31,0.0,219.86,232.0,0.0,0.0,0.0,0.0
1776357662103055871,87427,0.0,1.0,0.0,0.7,-0.02,-0.1,-0.0,-3.69,3.81,0.03,-0.0,-0.42,-0.0,-0.12,-0.12,215.75,233.0,0.0,0.0,0.0,0.0
1776357662205473781,87528,0.004,0.1,0.0,1.1,-0.2,0.06,-0.0,-3.69,3.81,0.01,0.04,-0.39,0.19,-0.06,0.06,211.46,233.0,0.0,0.0,0.0,0.0
1776357662303758003,87628,0.004,0.6,0.0,0.6,-0.06,-0.06,-0.0,-3.69,3.81,0.03,-0.0,-0.39,0.25,0.12,0.0,214.03,233.0,0.0,0.0,0.0,0.0
1776357662406181469,87729,0.0,0.2,0.0,1.0,-0.02,-0.04,-0.0,-3.69,3.81,0.02,-0.0,-0.4,-0.0,-0.12,0.12,272.0,233.0,0.0,0.0,0.0,0.0
1776357662504488210,87829,0.0,0.1,0.0,1.0,-0.16,0.02,-0.0,-3.69,3.81,0.03,0.01,-0.41,-0.19,-0.06,-0.06,198.94,233.0,0.0,0.0,0.0,0.0
1776357662612831763,87928,0.0,0.1,0.0,0.1,-0.12,0.06,-0.0,-3.69,3.81,0.0,0.02,-0.39,0.06,-0.19,-0.12,194.65,227.0,0.0,0.0,0.0,0.0
1776357662705177028,88028,0.0,0.1,0.0,0.9,-0.1,-0.1,-0.0,-3.69,3.81,0.03,0.06,-0.38,-0.06,-0.19,0.12,194.82,227.0,0.0,0.0,0.0,0.0
1776357662813626322,88129,0.0,0.7,0.0,0.7,0.02,-0.1,-0.0,-3.69,3.81,0.04,-0.0,-0.4,0.12,-0.12,0.0,198.94,227.0,0.0,0.0,0.0,0.0
1776357662905877419,88228,0.0,0.2,0.0,1.2,-0.02,0.0,-0.0,-3.69,3.81,0.0,0.01,-0.39,-0.12,-0.06,0.0,203.23,225.0,0.0,0.0,0.0,0.0
1776357663008270922,88329,0.004,0.3,0.0,0.5,-0.08,-0.02,-0.0,-3.69,3.81,0.01,0.04,-0.36,-0.0,-0.0,0.06,194.65,225.0,0.0,0.0,0.0,0.0
1776357663106543227,88429,0.004,0.2,0.0,1.1,-0.04,-0.1,-0.0,-3.69,3.81,0.03,-0.0,-0.38,-0.06,0.06,0.0,264.11,226.0,0.0,0.0,0.0,0.0
1776357663204881144,88528,0.004,0.3,0.0,0.7,-0.02,-0.12,-0.0,-3.69,3.81,0.02,0.03,-0.37,-0.0,-0.06,-0.06,258.79,227.0,0.0,0.0,0.0,0.0
1776357663307271340,88628,0.0,0.4,0.008,0.2,0.06,-0.08,-0.0,-3.69,3.81,0.03,0.03,-0.38,-0.0,0.06,0.12,263.94,227.0,0.0,0.0,0.0,0.0
1776357663405594849,88728,0.0,0.3,0.0,0.5,0.08,-0.04,-0.0,-3.69,3.81,0.03,-0.0,-0.39,-0.0,0.31,0.0,221.06,228.0,0.0,0.0,0.0,0.0
1776357663503868877,88827,0.004,0.0,0.0,1.0,-0.1,0.02,-0.0,-3.69,3.81,0.03,0.02,-0.38,-0.06,-0.06,0.0,220.03,227.0,0.0,0.0,0.0,0.0
1776357663606273444,88928,0.0,0.0,0.0,1.2,0.02,-0.06,-0.0,-3.69,3.81,0.01,0.01,-0.37,-0.0,0.12,0.0,220.89,227.0,0.0,0.0,0.0,0.0
1776357663704552545,89028,0.004,0.0,0.0,1.2,0.0,-0.16,-0.0,-3.69,3.81,0.03,-0.0,-0.39,0.06,0.19,0.0,238.38,229.0,0.0,0.0,0.0,0.0
1776357663802832684,89127,0.0,0.4,0.0,1.1,0.06,-0.08,-0.0,-3.69,3.81,0.02,0.02,-0.38,-0.06,-0.06,-0.06,262.91,229.0,0.0,0.0,0.0,0.0
1776357663905274455,89227,0.0,0.2,0.0,1.0,-0.14,0.02,-0.0,-3.69,3.81,0.03,0.01,-0.4,0.06,0.12,0.0,262.91,226.0,0.0,0.0,0.0,0.0
1776357664003560538,89327,0.0,0.6,0.0,1.1,0.12,-0.16,-0.0,-3.69,3.81,0.03,0.02,-0.38,-0.12,-0.0,0.06,276.11,229.0,0.0,0.0,0.0,0.0
1776357664105992374,89427,0.0,0.3,0.0,1.0,-0.1,-0.06,-0.0,-3.69,3.81,0.01,0.01,-0.37,-0.0,0.19,-0.12,271.83,229.0,0.0,0.0,0.0,0.0
1776357664204257855,89527,0.0,0.9,0.0,0.1,-0.04,-0.1,-0.0,-3.69,3.81,0.02,0.02,-0.4,-0.12,-0.06,-0.06,276.11,229.0,0.0,0.0,0.0,0.0
1776357664306744005,89627,0.0,0.7,0.0,0.3,-0.1,0.0,-0.0,-3.69,3.81,0.03,0.03,-0.36,0.12,-0.0,-0.06,284.52,231.0,0.0,0.0,0.0,0.0
1776357664404981912,89726,0.0,0.3,0.0,0.6,0.02,0.02,-0.0,-3.69,3.81,0.03,-0.0,-0.38,0.06,0.12,0.0,285.72,231.0,0.0,0.0,0.0,0.0
1776357664507377100,89827,0.0,0.2,0.0,0.2,-0.02,-0.04,-0.0,-3.69,3.81,0.03,0.04,-0.41,-0.0,-0.06,-0.06,277.32,230.0,0.0,0.0,0.0,0.0
1776357664605667766,89927,0.004,0.2,0.0,0.5,-0.12,-0.12,-0.0,-3.69,3.81,0.02,0.02,-0.37,-0.0,0.06,0.0,267.88,232.0,0.0,0.0,0.0,0.0
1776357664703958784,90027,0.0,0.1,0.0,0.4,0.06,-0.08,-0.0,-3.69,3.81,0.01,-0.0,-0.38,-0.0,-0.06,0.19,280.4,232.0,0.0,0.0,0.0,0.0
1776357664806366064,90127,0.0,0.0,0.0,1.2,-0.08,0.06,-0.0,-3.69,3.81,0.02,0.04,-0.36,-0.0,-0.12,0.0,277.32,232.0,0.0,0.0,0.0,0.0
1776357664904662194,90226,0.004,0.0,0.004,0.4,0.04,0.0,-0.0,-3.69,3.81,0.04,0.06,-0.37,-0.19,-0.0,0.06,284.52,232.0,0.0,0.0,0.0,0.0
1776357665002945767,90326,0.004,0.2,0.0,0.2,0.0,-0.12,-0.0,-3.69,3.81,0.01,0.01,-0.36,-0.0,-0.12,0.06,215.58,232.0,0.0,0.0,0.0,0.0
1776357665105328149,90426,0.0,0.3,0.0,0.4,-0.1,-0.12,-0.0,-3.69,3.81,0.03,-0.0,-0.38,-0.06,-0.0,0.0,212.15,230.0,0.0,0.0,0.0,0.0
1776357665203655918,90525,0.0,0.0,0.0,1.1,-0.06,0.04,-0.0,-3.69,3.81,0.03,0.02,-0.39,-0.06,-0.19,0.0,215.23,230.0,0.0,0.0,0.0,0.0
1776357665306059207,90626,0.004,0.2,0.0,1.0,-0.08,-0.04,-0.0,-3.69,3.81,0.03,-0.0,-0.36,0.12,0.06,-0.06,203.06,230.0,0.0,0.0,0.0,0.0
1776357665404359476,90726,0.0,0.1,0.0,0.7,-0.18,-0.16,-0.0,-3.69,3.81,0.03,0.03,-0.36,-0.0,0.06,0.06,207.17,230.0,0.0,0.0,0.0,0.0
1776357665502665856,90825,0.004,0.2,0.0,1.1,0.0,-0.1,-0.0,-3.69,3.81,0.05,0.01,-0.38,-0.06,-0.06,0.0,219.69,230.0,0.0,0.0,0.0,0.0
1776357665605049589,90926,0.004,0.3,0.0,0.2,-0.02,0.1,-0.0,-3.69,3.81,0.03,0.01,-0.35,0.06,-0.19,-0.06,228.27,230.0,0.0,0.0,0.0,0.0
1776357665703357969,91026,0.0,0.7,0.0,0.8,0.06,0.02,-0.0,-3.69,3.81,0.04,-0.02,-0.37,0.12,0.19,-0.12,215.06,229.0,0.0,0.0,0.0,0.0
1776357665805781092,91125,0.004,0.4,0.0,1.1,-0.06,-0.04,-0.0,-3.69,3.81,0.02,-0.0,-0.35,-0.06,-0.0,0.0,215.06,229.0,0.0,0.0,0.0,0.0
1776357665904060694,91225,0.0,0.1,0.0,0.9,0.06,-0.08,-0.0,-3.69,3.81,0.05,0.01,-0.4,-0.06,-0.12,-0.12,198.08,229.0,0.0,0.0,0.0,0.0
1776357666006455575,91326,0.004,0.2,0.0,0.6,-0.02,-0.04,-0.0,-3.69,3.81,0.03,0.03,-0.35,0.12,-0.12,0.12,198.94,229.0,0.0,0.0,0.0,0.0
1776357666104722761,91426,0.0,1.0,0.0,0.5,-0.02,-0.08,-0.0,-3.69,3.81,0.05,0.02,-0.39,-0.06,-0.12,0.0,198.94,230.0,0.0,0.0,0.0,0.0
1776357666207155449,91526,0.0,0.4,0.0,0.3,-0.04,-0.08,-0.0,-3.69,3.81,0.02,0.04,-0.36,-0.0,0.06,0.0,197.91,231.0,0.0,0.0,0.0,0.0
1776357666305456931,91627,0.0,0.4,0.0,1.0,0.04,0.0,-0.0,-3.69,3.81,0.02,-0.0,-0.37,-0.0,0.12,0.0,203.23,231.0,0.0,0.0,0.0,0.0
1776357666403762599,91726,0.0,0.2,0.0,0.3,-0.14,0.06,-0.0,-3.69,3.81,0.0,0.01,-0.38,-0.0,-0.0,0.0,203.06,230.0,0.0,0.0,0.0,0.0
1776357666506147675,91826,0.004,0.2,0.0,1.0,0.08,0.0,-0.0,-3.69,3.81,0.03,0.03,-0.37,-0.06,0.25,0.0,203.06,231.0,0.0,0.0,0.0,0.0
1776357666604455102,91926,0.0,0.6,0.0,0.5,0.16,0.08,-0.0,-3.69,3.81,0.01,0.01,-0.38,-0.0,-0.06,0.06,202.03,231.0,0.0,0.0,0.0,0.0
1776357666706853031,92026,0.0,0.5,0.0,0.9,0.08,-0.04,-0.0,-3.69,3.81,0.04,0.02,-0.37,0.06,-0.06,0.06,198.94,232.0,0.0,0.0,0.0,0.0
1776357666805148865,92126,0.0,0.1,0.0,1.2,-0.1,-0.04,-0.0,-3.69,3.81,0.0,-0.0,-0.35,0.06,0.06,0.0,198.94,232.0,0.0,0.0,0.0,0.0
1776357666907553164,92226,0.0,0.1,0.0,1.3,0.06,-0.12,-0.0,-3.69,3.81,0.05,0.02,-0.4,-0.0,0.06,0.06,207.86,232.0,0.0,0.0,0.0,0.0
1776357667005858961,92326,0.0,0.4,0.0,0.3,-0.04,-0.08,-0.0,-3.69,3.81,0.02,-0.0,-0.36,-0.06,0.19,0.0,202.54,231.0,0.0,0.0,0.0,0.0
1776357667108224121,92427,0.004,0.0,0.0,0.4,0.06,-0.04,-0.0,-3.69,3.81,0.01,0.03,-0.39,0.19,-0.0,0.06,203.74,231.0,0.0,0.0,0.0,0.0
1776357667206547688,92527,0.004,0.6,0.0,0.5,0.0,0.0,-0.0,-3.69,3.81,0.03,0.06,-0.35,0.06,0.06,0.06,207.86,232.0,0.0,0.0,0.0,0.0
1776357667308949071,92627,0.0,0.0,0.0,1.2,-0.02,-0.06,-0.0,-3.69,3.81,0.02,0.02,-0.4,0.12,0.06,0.0,206.83,232.0,0.0,0.0,0.0,0.0
1776357667407249933,92728,0.0,0.2,0.0,1.1,0.04,-0.16,-0.0,-3.69,3.81,0.03,-0.0,-0.38,-0.0,-0.0,-0.06,207.86,232.0,0.0,0.0,0.0,0.0
1776357667509658020,92828,0.0,0.3,0.0,0.9,0.08,-0.02,-0.0,-3.69,3.81,0.03,0.01,-0.39,0.06,-0.06,-0.06,216.78,232.0,0.0,0.0,0.0,0.0
1776357667607945642,92928,0.004,0.1,0.0,0.5,-0.02,-0.18,-0.0,-3.69,3.81,0.04,0.01,-0.38,-0.06,0.25,0.06,224.15,231.0,0.0,0.0,0.0,0.0
1776357667710352617,93029,0.0,0.9,0.0,0.8,-0.04,0.06,-0.0,-3.69,3.81,0.01,0.04,-0.37,-0.0,-0.06,-0.06,234.1,231.0,0.0,0.0,0.0,0.0
1776357667808647832,93129,0.0,0.4,0.0,0.3,0.06,-0.14,-0.0,-3.69,3.81,0.02,0.02,-0.37,-0.0,-0.06,0.06,237.36,232.0,0.0,0.0,0.0,0.0
1776357667911047733,93230,0.0,0.3,0.0,0.8,0.1,0.02,-0.0,-3.69,3.81,0.03,0.03,-0.36,0.06,-0.12,0.12,251.42,232.0,0.0,0.0,0.0,0.0
1776357668009324355,93330,0.004,0.3,0.0,0.5,-0.14,-0.1,-0.0,-3.69,3.81,0.02,0.03,-0.36,0.19,0.06,-0.06,246.27,232.0,0.0,0.0,0.0,0.0
1776357668111710137,93430,0.0,0.2,0.0,1.2,-0.14,-0.06,-0.0,-3.69,3.81,0.01,0.01,-0.4,0.12,0.06,0.06,246.27,234.0,0.0,0.0,0.0,0.0
1776357668210046437,93530,0.0,0.0,0.0,1.2,-0.12,-0.02,-0.0,-3.69,3.81,0.0,0.02,-0.37,-0.06,-0.12,-0.12,234.27,232.0,0.0,0.0,0.0,0.0
1776357668312449700,93630,0.0,0.1,0.0,0.2,-0.12,-0.1,-0.0,-3.69,3.81,0.03,0.01,-0.36,-0.06,0.19,0.06,234.1,232.0,0.0,0.0,0.0,0.0
1776357668410744647,93730,0.0,0.1,0.0,0.1,0.04,0.0,-0.0,-3.69,3.81,0.01,0.03,-0.37,-0.0,-0.12,0.06,251.42,232.0,0.0,0.0,0.0,0.0
1776357668509009576,93830,0.0,0.2,0.0,1.2,0.04,-0.1,-0.0,-3.69,3.81,0.02,0.03,-0.37,-0.12,-0.12,0.06,228.95,232.0,0.0,0.0,0.0,0.0
1776357668611435876,93930,0.0,0.7,0.0,0.8,0.16,0.02,-0.0,-3.69,3.81,0.03,-0.0,-0.36,0.06,-0.0,0.0,229.98,234.0,0.0,0.0,0.0,0.0
1776357668709750176,94030,0.0,0.4,0.0,1.0,-0.1,0.12,-0.0,-3.69,3.81,0.01,-0.0,-0.37,0.06,0.12,-0.06,243.02,232.0,0.0,0.0,0.0,0.0
