timestamp_ns,time_ms,voltage_left,current_left_ma,voltage_right,current_right_ma,motor_current_left,motor_current_right,euler_x,euler_y,euler_z,acc_lin_x,acc_lin_y,acc_lin_z,gyro_x,gyro_y,gyro_z,sonar_mm,tof_mm,rpm_left,rpm_right,rotations_left,rotations_right
1776370195702312855,1904,0.0,0.2,0.0,0.4,0.04,0.1,0.06,-1.69,4.19,0.01,-0.01,-0.34,-0.06,-0.0,0.0,218.66,192.0,0.0,0.0,0.0,0.0
1776370195804730327,2003,0.004,0.3,0.0,1.1,0.0,-0.04,0.06,-1.69,4.19,0.02,-0.01,-0.35,0.06,-0.06,-0.06,218.49,201.0,0.0,0.0,0.0,0.0
1776370195913078152,2104,0.0,0.4,0.0,0.6,-0.1,-0.14,0.06,-1.69,4.19,0.01,-0.0,-0.37,-0.0,-0.06,-0.06,214.38,201.0,0.0,0.0,0.0,0.0
1776370196005430156,2204,0.004,0.1,0.0,0.5,0.02,-0.04,0.06,-1.69,4.19,0.02,-0.0,-0.35,-0.0,-0.0,0.0,214.38,186.0,0.0,0.0,0.0,0.0
1776370196107821547,2305,0.0,0.5,0.0,0.7,-0.04,0.0,0.06,-1.69,4.19,0.01,-0.0,-0.35,-0.19,-0.12,-0.06,218.49,197.0,0.0,0.0,0.0,0.0
1776370196206098249,2405,0.0,0.4,0.028,1.1,0.12,-0.08,0.06,-1.69,4.19,0.01,-0.0,-0.36,0.06,0.12,0.0,214.38,197.0,0.0,0.0,0.0,0.0
1776370196308533140,2506,0.048,0.2,0.0,0.6,-0.08,-0.06,0.06,-1.69,4.19,0.03,-0.02,-0.33,-0.0,-0.06,0.0,213.17,193.0,0.0,0.0,0.0,0.0
1776370196406836250,2607,0.024,0.1,0.0,1.2,0.02,-0.02,0.06,-1.69,4.19,0.0,0.01,-0.33,-0.0,0.06,0.06,218.49,188.0,0.0,0.0,0.0,0.0
1776370196509223455,2707,0.016,0.3,0.02,0.1,-0.08,-0.08,0.06,-1.69,4.19,0.03,-0.0,-0.35,0.06,-0.0,0.0,214.38,188.0,0.0,0.0,0.0,0.0
1776370196607483731,2807,0.016,0.1,0.0,1.0,0.06,-0.06,0.06,-1.69,4.19,0.02,-0.0,-0.37,0.06,-0.0,0.12,214.38,188.0,0.0,0.0,0.0,0.0
1776370196709927067,2907,0.0,0.1,0.0,1.2,-0.08,-0.1,0.06,-1.69,4.19,0.02,-0.01,-0.37,0.06,0.06,-0.06,213.17,187.0,0.0,0.0,0.0,0.0
1776370196808210973,3007,0.0,0.2,0.0,0.8,-0.02,-0.2,0.06,-1.69,4.19,0.0,-0.01,-0.36,-0.12,0.06,0.12,218.49,187.0,0.0,0.0,0.0,0.0
1776370196910652976,3108,0.0,0.5,0.0,0.8,0.0,-0.06,0.06,-1.69,4.19,0.03,-0.0,-0.37,-0.0,0.19,0.12,218.66,194.0,0.0,0.0,0.0,0.0
1776370197008936975,3208,0.004,0.2,0.0,1.4,0.0,-0.14,0.06,-1.69,4.19,0.03,-0.0,-0.36,-0.06,-0.06,0.0,213.35,194.0,0.0,0.0,0.0,0.0
1776370197117271007,3308,0.0,0.6,0.0,0.9,0.06,0.12,0.06,-1.69,4.19,0.0,-0.0,-0.35,-0.0,0.06,0.06,214.38,185.0,0.0,0.0,0.0,0.0
1776370197209609536,3408,0.04,0.2,0.0,0.2,0.0,-0.1,0.06,-1.69,4.19,0.03,-0.0,-0.36,0.06,-0.0,0.0,214.38,194.0,0.0,0.0,0.0,0.0
1776370197312031384,3509,0.0,0.2,0.0,1.2,-0.08,0.08,0.06,-1.69,4.19,0.0,-0.0,-0.35,-0.0,-0.06,0.06,214.38,194.0,0.0,0.0,0.0,0.0
1776370197410334821,3610,0.032,0.2,0.0,1.1,-0.02,-0.21,0.06,-1.69,4.19,0.0,-0.0,-0.38,-0.06,-0.0,0.12,214.38,208.0,0.0,0.0,0.0,0.0
1776370197508571590,3709,0.024,0.3,0.0,0.5,-0.14,0.0,0.06,-1.69,4.19,0.01,-0.02,-0.38,0.06,0.06,0.0,214.38,196.0,0.0,0.0,0.0,0.0
1776370197611026698,3809,0.016,0.1,0.0,0.2,-0.08,-0.06,0.06,-1.69,4.19,0.04,0.01,-0.35,0.06,0.06,0.0,214.38,196.0,0.0,0.0,0.0,0.0
1776370197713446768,3910,0.0,0.6,0.012,-0.1,0.02,0.0,0.06,-1.69,4.19,0.03,-0.0,-0.37,-0.0,0.12,0.06,213.35,204.0,0.0,0.0,0.0,0.0
1776370197811706945,4011,0.004,0.3,0.0,0.9,0.06,-0.06,0.06,-1.69,4.19,0.03,-0.0,-0.33,-0.0,0.06,0.06,214.38,193.0,0.0,0.0,0.0,0.0
1776370197914145274,4111,0.0,0.8,0.004,1.2,-0.27,0.0,0.06,-1.69,4.19,0.0,-0.0,-0.35,0.06,0.06,-0.06,222.61,193.0,0.0,0.0,0.0,0.0
1776370198012405377,4211,0.004,0.2,0.0,1.2,-0.1,0.04,0.06,-1.69,4.19,0.02,-0.0,-0.32,-0.0,-0.12,-0.06,218.49,190.0,0.0,0.0,0.0,0.0
1776370198114837922,4311,0.0,0.3,0.0,1.0,-0.16,0.08,0.06,-1.69,4.19,0.03,-0.01,-0.34,0.06,-0.12,-0.06,222.78,190.0,0.0,0.0,0.0,0.0
1776370198213113038,4412,0.036,0.4,0.0,1.0,0.16,-0.12,0.06,-1.69,4.19,0.02,-0.0,-0.35,0.12,-0.12,0.06,221.58,188.0,0.0,0.0,0.0,0.0
1776370198315610585,4511,0.0,0.6,0.044,0.2,-0.02,-0.06,0.06,-1.69,4.19,0.02,0.01,-0.39,0.06,-0.12,-0.06,221.58,197.0,0.0,0.0,0.0,0.0
1776370198413806366,4612,0.0,0.7,0.0,0.9,-0.08,0.02,0.06,-1.69,4.19,0.03,-0.01,-0.37,-0.0,-0.0,0.0,222.78,197.0,0.0,0.0,0.0,0.0
1776370198518067186,4712,0.02,0.3,0.016,1.1,0.14,-0.14,0.06,-1.69,4.19,0.04,0.01,-0.37,-0.0,-0.31,0.06,11938.29,193.0,0.0,0.0,0.0,0.0
1776370198614501174,4812,0.0,0.2,0.0,0.4,-0.1,-0.04,0.06,-1.69,4.19,0.0,-0.0,-0.32,-0.0,-0.06,0.0,231.18,187.0,0.0,0.0,0.0,0.0
1776370198716937386,4913,0.0,0.2,0.0,1.0,0.02,0.0,0.06,-1.69,4.19,0.01,-0.0,-0.34,0.06,0.12,0.06,226.89,187.0,0.0,0.0,0.0,0.0
1776370198815231521,5014,0.008,0.2,0.0,0.6,-0.02,-0.08,0.06,-1.69,4.19,0.03,0.01,-0.38,-0.06,-0.12,0.12,248.33,188.0,0.0,0.0,0.0,0.0
1776370198913460877,5113,0.004,0.1,0.0,0.4,0.12,-0.18,0.06,-1.69,4.19,0.07,-0.13,-0.2,0.37,-0.44,0.0,226.89,195.0,0.0,0.0,0.0,0.0
1776370199015947904,5213,0.0,0.4,0.0,1.0,0.06,-0.06,0.06,-1.69,4.19,0.05,-0.14,-0.41,-0.06,0.37,-0.06,218.49,195.0,0.0,0.0,0.0,0.0
1776370199114216069,5313,0.004,0.1,0.0,1.1,-0.02,-0.12,0.06,-1.69,4.19,0.09,0.07,-0.41,-0.12,-0.06,-0.06,218.49,188.0,0.0,0.0,0.0,0.0
1776370199216613959,5413,0.048,0.2,0.0,0.9,0.04,-0.08,-0.0,-1.69,4.13,-0.02,-0.0,-0.33,-0.5,0.25,-0.56,222.78,188.0,0.0,0.0,0.0,0.0
1776370199314935385,5513,0.04,0.1,0.0,1.0,0.06,0.04,-0.0,-1.69,4.13,0.03,-0.18,-0.48,1.37,0.56,0.81,218.49,186.0,0.0,0.0,0.0,0.0
1776370199417409499,5613,0.0,0.4,0.028,0.6,0.0,-0.14,0.06,-1.69,4.19,-0.01,0.18,-0.39,0.44,-0.06,0.56,222.78,186.0,0.0,0.0,0.0,0.0
1776370199515602181,5712,0.0,0.2,0.008,0.5,-0.12,-0.16,0.06,-1.69,4.19,-0.07,-0.09,-0.27,-0.81,-0.12,-0.56,221.75,186.0,0.0,0.0,0.0,0.0
1776370199613886087,5812,0.012,0.6,0.0,1.4,0.04,-0.02,-0.0,-1.75,4.13,0.18,-0.3,-0.41,0.44,-0.0,0.19,222.61,205.0,0.0,0.0,0.0,0.0
1776370199716330349,5912,0.0,0.0,0.0,1.0,0.0,0.12,-0.0,-1.75,4.13,0.07,-0.1,-0.38,-0.63,0.56,-0.06,218.49,200.0,0.0,0.0,0.0,0.0
1776370199814628274,6011,0.0,0.4,0.0,0.2,-0.08,0.06,0.06,-1.75,4.13,-0.06,0.39,-0.3,0.56,-0.5,0.12,214.38,200.0,0.0,0.0,0.0,0.0
1776370199912923996,6111,0.004,0.1,0.0,0.8,0.02,-0.02,0.06,-1.75,4.13,0.01,0.19,-0.35,0.19,-0.0,-0.06,214.38,186.0,0.0,0.0,0.0,0.0
1776370200015329960,6211,0.0,0.5,0.0,1.0,0.02,-0.06,0.06,-1.75,4.13,0.14,-0.45,-0.3,-0.19,-0.88,-0.25,239.93,195.0,0.0,0.0,0.0,0.0
1776370200115642454,6311,0.0,0.7,0.0,0.4,-0.02,-0.06,-0.0,-1.75,4.38,0.04,0.39,-0.1,1.56,1.5,-0.12,11932.8,188.0,0.0,0.0,0.0,0.0
1776370200216021394,6411,0.048,0.5,0.0,1.1,-0.04,-0.08,-0.0,-2.56,4.88,0.13,0.23,-0.11,-5.44,10.44,-0.19,11934.86,188.0,0.0,0.0,0.0,0.0
1776370200314370092,6511,0.0,1.0,0.032,0.2,-0.04,-0.02,-0.25,-3.25,3.69,0.39,-0.39,1.46,-24.75,-0.44,-10.06,205.97,188.0,0.0,0.0,0.0,0.0
1776370200412639511,6610,0.028,0.3,0.0,1.0,0.06,-0.12,-1.12,-3.94,2.88,0.34,-0.3,0.96,12.5,15.19,-11.06,11934.17,208.0,0.0,0.0,0.0,0.0
1776370200521088656,6710,0.02,0.3,0.0,0.9,0.02,-0.08,-2.5,-4.44,3.81,0.14,-0.43,1.76,0.19,-4.13,-17.0,11933.31,250.0,0.0,0.0,0.0,0.0
1776370200613343241,6810,0.008,0.3,0.0,0.8,-0.02,-0.02,-4.06,-3.63,3.25,0.2,-0.05,2.48,-9.94,-13.81,-12.31,368.9,250.0,0.0,0.0,0.0,0.0
1776370200713624901,6909,0.012,0.3,0.0,0.3,-0.04,-0.08,-4.81,-2.5,2.0,-0.09,-0.0,2.13,-13.81,-9.25,-3.44,11935.71,325.0,0.0,0.0,0.0,0.0
1776370200814076341,7009,0.0,1.0,0.004,0.8,-0.02,0.0,-4.81,-2.25,0.25,-0.05,-0.0,1.09,-15.25,6.0,2.13,630.43,644.0,0.0,0.0,0.0,0.0
1776370200912333130,7109,0.0,0.3,0.0,1.1,-0.18,0.0,-4.69,-3.38,-0.81,0.09,-0.23,-1.08,-5.5,11.38,-0.44,825.94,644.0,0.0,0.0,0.0,0.0
1776370201020741145,7208,0.0,0.2,0.0,1.0,-0.04,-0.12,-5.13,-3.81,-0.56,0.21,-0.31,-3.43,16.81,-0.88,-5.13,812.91,726.0,0.0,0.0,0.0,0.0
1776370201113023743,7309,0.0,0.1,0.0,0.3,0.0,-0.04,-6.0,-2.88,1.5,-0.51,-0.46,-3.46,22.44,-19.56,-8.81,926.96,726.0,0.0,0.0,0.0,0.0
1776370201215434826,7410,0.04,0.4,0.0,0.8,-0.12,-0.12,-7.06,-1.88,3.19,-0.85,-0.22,-2.96,11.25,-3.38,-5.63,941.36,1044.0,0.0,0.0,0.0,0.0
1776370201313720110,7511,0.04,0.2,0.0,0.9,-0.1,-0.08,-6.38,-1.69,2.69,-0.25,-0.56,-1.57,-14.75,3.5,20.06,947.88,1200.0,0.0,0.0,0.0,0.0
1776370201416170323,7611,0.024,0.1,0.0,0.5,0.04,-0.08,-3.31,-2.19,1.69,0.77,0.42,-1.66,-0.12,9.56,36.5,1037.06,1200.0,0.0,0.0,0.0,0.0
1776370201518544831,7712,0.016,0.2,0.0,0.8,-0.04,-0.06,-1.25,-2.88,1.56,0.24,0.16,-0.17,-7.56,2.19,4.19,986.81,936.0,0.0,0.0,0.0,0.0
1776370201616834134,7813,0.0,0.9,0.0,0.3,0.0,-0.1,-1.56,-2.38,0.75,-0.24,0.73,-0.97,-3.06,-5.69,-1.19,976.35,1552.0,0.0,0.0,0.0,0.0
1776370201719235364,7913,0.0,0.4,0.0,0.0,0.04,-0.06,-0.81,-2.63,1.69,-0.39,0.54,-0.61,18.5,8.06,15.25,1018.71,1552.0,0.0,0.0,0.0,0.0
1776370201817545464,8013,0.0,0.2,0.0,0.1,0.1,-0.04,0.88,-3.06,3.56,-0.17,0.26,-0.62,10.06,-0.37,12.44,960.23,1693.0,0.0,0.0,0.0,0.0
1776370201919944027,8114,0.0,0.3,0.0,1.1,-0.23,-0.08,1.5,-2.63,3.5,-0.57,-0.34,0.01,-0.69,-5.81,8.25,965.54,774.0,0.0,0.0,0.0,0.0
1776370202018271849,8214,0.0,0.4,0.0,1.0,0.02,-0.12,2.56,-1.63,4.31,0.24,0.66,-0.64,10.5,-7.19,12.69,944.11,774.0,0.0,0.0,0.0,0.0
1776370202116541738,8313,0.0,0.3,0.0,0.3,0.02,-0.1,3.56,-1.5,5.19,0.35,0.38,-0.31,9.13,3.69,9.31,934.85,1767.0,0.0,0.0,0.0,0.0
1776370202218962964,8413,0.036,-0.1,0.0,0.8,-0.02,-0.18,5.44,-1.5,6.25,0.16,-0.21,-0.38,10.25,0.56,29.06,983.9,1767.0,0.0,0.0,0.0,0.0
1776370202317231964,8514,0.032,0.5,0.0,1.2,0.18,-0.1,8.31,-1.25,6.94,-0.07,-0.11,-0.17,5.13,1.94,26.0,938.45,1408.0,0.0,0.0,0.0,0.0
1776370202419598670,8614,0.0,0.5,0.0,0.5,-0.08,-0.12,10.13,-1.56,7.5,0.07,-0.45,-0.17,4.0,3.56,13.06,927.82,1879.0,0.0,0.0,0.0,0.0
1776370202522016988,8715,0.012,0.1,0.0,0.3,0.1,-0.08,11.0,-2.31,7.63,0.3,-0.15,-0.34,0.19,10.06,4.13,939.65,1879.0,0.0,0.0,0.0,0.0
1776370202620376880,8816,0.0,0.2,0.0,0.4,-0.06,-0.06,10.75,-3.38,7.31,-0.12,-0.44,-0.52,-5.31,8.44,-7.81,915.3,971.0,0.0,0.0,0.0,0.0
1776370202722759327,8916,0.0,0.4,0.0,0.6,-0.04,-0.16,9.63,-4.0,6.81,-0.14,-0.36,-0.3,-5.56,0.5,-14.69,952.34,2579.0,0.0,0.0,0.0,0.0
1776370202821045939,9017,0.008,0.2,0.0,0.1,0.02,-0.04,8.25,-4.38,6.06,0.61,-0.0,0.36,-7.81,4.06,-15.88,1119.21,2579.0,0.0,0.0,0.0,0.0
1776370202923449831,9117,0.0,0.7,0.0,0.9,0.04,0.06,6.63,-5.63,5.19,0.3,-0.32,-0.34,-0.06,14.81,-20.0,975.66,901.0,0.0,0.0,0.0,0.0
1776370203029680440,9217,0.004,0.4,0.0,0.6,-0.1,0.0,4.13,-6.75,5.88,0.13,-0.81,-0.84,14.44,-5.31,-27.0,11933.14,1857.0,0.0,0.0,0.0,0.0
1776370203124150069,9317,0.004,0.1,0.0,0.9,-0.04,-0.06,2.06,-5.75,6.56,0.54,0.56,-0.31,5.56,-15.94,-12.63,926.1,1857.0,0.0,0.0,0.0,0.0
1776370203222441880,9417,0.0,0.0,0.0,0.8,-0.12,-0.06,1.37,-5.31,6.63,0.57,0.48,-1.36,-4.0,-1.06,-4.56,912.89,947.0,0.0,0.0,0.0,0.0
1776370203324869193,9518,0.0,0.2,0.036,0.5,-0.1,-0.1,0.69,-5.06,5.38,0.96,0.13,-0.6,-9.19,-4.88,-7.44,856.64,165.0,0.0,0.0,0.0,0.0
1776370203423121873,9618,0.0,0.6,0.0,0.7,-0.04,0.0,0.75,-4.19,4.56,0.94,0.17,0.11,-2.44,-12.38,7.38,954.23,165.0,0.0,0.0,0.0,0.0
1776370203521482481,9717,0.024,0.4,0.0,0.9,-0.1,0.04,2.06,-3.38,4.44,-0.36,-0.04,0.37,2.31,2.5,19.87,945.99,1398.0,0.0,0.0,0.0,0.0
1776370203623848238,9817,0.0,0.2,0.0,0.8,0.12,-0.06,3.81,-4.38,5.19,-1.09,-0.22,0.09,6.69,9.19,10.94,972.75,1398.0,0.0,0.0,0.0,0.0
1776370203913433906,9918,0.0,0.6,0.0,1.0,-0.16,-0.14,3.56,-3.81,5.13,-0.42,0.14,0.17,-6.0,-16.87,-9.63,1032.94,1610.0,0.0,0.0,0.0,0.0
1776370203926183196,10017,0.008,0.2,0.0,0.7,-0.06,0.0,2.38,-2.0,5.06,-0.37,0.71,-1.07,5.38,-15.94,-11.06,979.44,1447.0,0.0,0.0,0.0,0.0
1776370203938682408,10118,0.008,0.2,0.0,1.0,-0.06,-0.04,1.63,-0.75,5.94,-0.41,0.51,-0.99,2.13,-0.19,-3.75,1039.98,1447.0,0.0,0.0,0.0,0.0
1776370204025252298,10218,0.0,0.0,0.0,0.5,0.0,-0.06,2.13,-1.0,6.31,0.12,0.07,-1.11,0.56,8.75,7.88,997.1,1409.0,0.0,0.0,0.0,0.0
1776370204125481046,10318,0.0,0.0,0.0,0.9,-0.08,0.0,2.13,-1.63,6.06,0.58,-0.1,-0.74,-7.06,4.13,-10.81,11938.12,1220.0,0.0,0.0,0.0,0.0
1776370204225975207,10418,0.044,-0.1,0.0,0.9,0.08,-0.04,0.69,-1.81,4.94,0.59,0.12,-0.33,-7.44,1.0,-13.88,993.84,1220.0,0.0,0.0,0.0,0.0
1776370204324270865,10518,0.04,0.4,0.0,1.3,-0.23,-0.08,-0.06,-2.63,3.69,0.37,-0.4,0.58,-10.5,13.44,-5.13,942.39,508.0,0.0,0.0,0.0,0.0
1776370204422516651,10617,0.036,0.0,0.0,0.9,-0.14,-0.08,-0.69,-2.94,3.94,-1.23,0.18,-0.18,16.5,-3.81,-5.13,996.07,2097.0,0.0,0.0,0.0,0.0
1776370204524929329,10718,0.02,0.5,0.0,1.1,-0.14,-0.04,-1.06,-3.06,5.63,-1.81,0.31,-0.96,14.63,8.25,-6.31,959.03,2097.0,0.0,0.0,0.0,0.0
1776370204627336470,10819,0.008,0.2,0.0,0.9,-0.16,0.0,-1.81,-4.13,6.25,-0.38,-0.7,-0.26,2.19,7.44,-7.56,941.19,1305.0,0.0,0.0,0.0,0.0
1776370204725720777,10919,0.0,0.4,0.0,1.1,0.1,-0.1,-2.25,-4.56,6.38,-0.42,-0.02,-0.12,-0.63,1.5,-1.0,992.3,1305.0,0.0,0.0,0.0,0.0
1776370204823979897,11019,0.0,0.9,0.0,0.3,-0.04,-0.14,-2.25,-5.13,5.88,-0.04,-0.15,-0.86,-9.25,12.38,-0.63,968.46,1581.0,0.0,0.0,0.0,0.0
1776370204932332702,11118,0.0,0.1,0.0,0.8,-0.12,0.0,-2.13,-6.06,5.5,0.73,-0.33,-0.93,4.81,-0.37,1.5,929.36,748.0,0.0,0.0,0.0,0.0
1776370205024676547,11217,0.0,0.3,0.0,0.3,-0.08,-0.16,-2.13,-5.63,5.63,0.68,0.3,-0.54,-2.88,-6.38,-1.0,926.79,748.0,0.0,0.0,0.0,0.0
1776370205122974181,11318,0.0,0.3,0.0,0.3,0.14,-0.14,-1.94,-4.63,4.63,0.46,0.28,-0.6,-6.13,-8.13,8.06,1009.79,1742.0,0.0,0.0,0.0,0.0
1776370205225396132,11417,0.036,0.0,0.0,1.2,-0.18,-0.06,-0.37,-3.44,3.75,0.28,0.3,0.39,-8.56,-9.88,22.5,923.18,1990.0,0.0,0.0,0.0,0.0
1776370205323673488,11516,0.044,-0.2,0.0,1.1,-0.04,-0.08,2.56,-2.94,4.13,-0.99,-0.63,0.86,17.0,5.94,35.94,964.52,1990.0,0.0,0.0,0.0,0.0
1776370205422023123,11616,0.0,0.2,0.0,0.8,-0.06,-0.1,4.81,-2.69,5.31,-0.98,-0.27,-0.46,-4.81,-9.0,4.0,11934.68,837.0,0.0,0.0,0.0,0.0
1776370205524341016,11716,0.02,0.1,0.0,0.8,0.12,-0.02,4.06,-1.5,4.0,-0.2,0.36,0.04,-5.69,-10.5,-7.31,918.38,1132.0,0.0,0.0,0.0,0.0
1776370205622682170,11815,0.02,0.3,0.0,0.9,-0.04,-0.1,3.75,-1.63,4.88,-0.69,0.42,-1.03,14.31,9.44,-1.19,914.27,1132.0,0.0,0.0,0.0,0.0
1776370205720991045,11915,0.0,0.9,0.0,0.4,0.02,0.0,3.75,-2.56,5.06,-0.34,-0.15,-1.2,-5.75,4.44,1.81,963.14,818.0,0.0,0.0,0.0,0.0
1776370205819282179,12014,0.0,0.3,0.0,0.9,0.06,0.0,4.06,-1.94,4.56,0.13,0.17,-0.66,-3.0,-13.06,2.44,943.59,818.0,0.0,0.0,0.0,0.0
1776370205921686463,12113,0.0,-0.2,0.0,0.6,0.02,-0.02,3.75,-1.5,4.25,0.21,0.44,-0.97,-8.0,9.38,-8.13,973.95,3198.0,0.0,0.0,0.0,0.0
1776370206309435089,12214,0.004,0.3,0.0,0.8,-0.14,0.06,3.38,-3.0,2.94,0.5,-0.35,-0.61,-15.06,12.94,1.25,1026.43,1772.0,0.0,0.0,0.0,0.0
1776370206323104321,12314,0.0,0.3,0.0,0.9,-0.04,-0.08,3.69,-3.63,1.81,-0.16,0.27,-0.22,-4.25,1.12,-1.63,975.83,1772.0,0.0,0.0,0.0,0.0
1776370206327237878,12414,0.048,0.5,0.0,1.2,-0.04,-0.18,2.75,-2.5,3.06,-0.4,-0.04,0.56,26.19,-21.69,-16.87,11934.51,1538.0,0.0,0.0,0.0,0.0
1776370206331358194,12514,0.0,0.7,0.036,0.1,0.08,-0.1,1.12,-1.81,4.44,-1.65,0.33,-0.65,-1.37,10.25,-7.44,981.15,1326.0,0.0,0.0,0.0,0.0
1776370206421380117,12613,0.0,1.1,0.0,1.0,0.02,-0.14,1.5,-3.13,4.19,-1.16,-0.62,-0.61,7.44,4.75,9.19,1029.86,1326.0,0.0,0.0,0.0,0.0
1776370206519653449,12712,0.012,0.5,0.0,1.0,-0.14,0.1,1.81,-3.0,6.5,-0.96,0.13,-0.31,15.5,-7.19,-1.25,996.76,1581.0,0.0,0.0,0.0,0.0
1776370206622068265,12813,0.0,0.4,0.0,0.5,0.04,0.02,1.63,-3.19,6.94,-1.05,-0.19,-0.9,-5.63,8.38,-0.12,953.88,862.0,0.0,0.0,0.0,0.0
1776370207045435463,12913,0.008,0.1,0.0,1.0,0.02,-0.14,1.94,-4.13,6.44,-0.09,-0.53,-0.62,-3.31,6.88,4.0,961.43,862.0,0.0,0.0,0.0,0.0
1776370207057265327,13012,0.004,0.6,0.0,0.9,0.0,-0.08,2.19,-4.19,7.31,-0.42,0.05,0.38,15.25,-1.25,-0.81,954.05,1027.0,0.0,0.0,0.0,0.0
1776370207121797336,13113,0.012,0.2,0.0,0.5,0.08,0.0,1.81,-4.38,8.19,-0.49,-0.13,-0.5,0.69,2.63,-3.75,971.72,1027.0,0.0,0.0,0.0,0.0
1776370207135889686,13213,0.0,0.9,0.0,1.1,-0.02,-0.06,1.69,-4.69,7.31,0.07,-0.26,-0.84,-11.69,1.25,0.0,11933.31,1854.0,0.0,0.0,0.0,0.0
1776370207148539750,13313,0.0,0.1,0.0,0.3,0.02,-0.12,1.88,-4.13,6.19,0.34,-0.0,-0.65,-15.19,-11.69,2.06,961.26,1498.0,0.0,0.0,0.0,0.0
1776370207220118314,13413,0.0,0.0,0.0,0.8,-0.14,-0.16,1.69,-2.69,4.56,-0.46,0.25,-0.45,-14.69,-14.5,-2.06,948.39,1498.0,0.0,0.0,0.0,0.0
1776370207318338178,13512,0.04,0.0,0.024,0.6,0.1,0.0,2.31,-1.56,4.13,-0.48,0.07,0.09,2.81,-4.81,16.81,966.06,1662.0,0.0,0.0,0.0,0.0
1776370207420794397,13612,0.0,0.6,0.0,0.2,-0.12,-0.06,4.31,-1.25,4.88,-1.0,0.21,-0.21,4.38,2.38,19.37,11934.17,1073.0,0.0,0.0,0.0,0.0
1776370207523156208,13712,0.0,0.7,0.008,0.2,0.02,-0.2,5.56,-1.5,4.5,-0.37,0.25,-0.66,-6.69,1.25,6.38,964.86,1073.0,0.0,0.0,0.0,0.0
1776370207621467037,13812,0.0,0.2,0.0,0.7,-0.04,-0.06,6.25,-1.25,5.13,-0.64,0.38,-0.63,6.38,2.75,9.63,962.29,638.0,0.0,0.0,0.0,0.0
1776370207719775680,13913,0.0,0.4,0.0,0.2,0.0,-0.08,7.19,-1.0,6.0,-0.3,0.38,-0.52,0.69,3.81,12.75,1075.3,1434.0,0.0,0.0,0.0,0.0
1776370207822229141,14013,0.012,0.3,0.0,0.9,0.02,-0.04,9.19,-0.94,6.38,0.02,0.16,-0.38,1.94,4.38,24.12,970.0,1434.0,0.0,0.0,0.0,0.0
1776370207989428058,14113,0.004,0.1,0.0,1.0,0.06,0.04,11.5,-0.88,6.56,0.43,-0.0,-0.07,2.25,1.75,29.0,933.3,1070.0,0.0,0.0,0.0,0.0
1776370208022905149,14213,0.0,0.9,0.0,0.9,0.0,0.04,14.63,-0.69,6.69,-0.04,0.07,-0.26,-0.12,3.56,35.0,949.94,1070.0,0.0,0.0,0.0,0.0
1776370208121175788,14313,0.004,0.5,0.0,0.8,-0.12,-0.06,18.12,-0.69,6.5,0.14,-0.53,-0.46,-2.25,2.31,36.38,937.42,1921.0,0.0,0.0,0.0,0.0
1776370208229537462,14412,0.0,0.6,0.048,0.7,0.08,-0.18,21.44,-0.69,6.19,-0.01,-0.55,-0.17,-2.5,-0.0,29.94,960.91,1071.0,0.0,0.0,0.0,0.0
1776370208321910549,14513,0.0,1.0,0.036,0.6,-0.02,0.06,23.81,-0.94,6.31,-0.29,-0.62,-0.59,1.94,1.12,18.5,945.82,1071.0,0.0,0.0,0.0,0.0
1776370208424297355,14614,0.024,0.1,0.0,0.7,-0.06,0.04,25.37,-1.06,6.69,0.14,-0.29,-0.29,3.63,-1.5,16.62,979.95,2872.0,0.0,0.0,0.0,0.0
1776370208528541417,14713,0.016,0.3,0.0,0.9,-0.04,0.0,27.0,-1.19,7.0,-0.18,-0.32,-0.33,0.37,2.88,13.5,11934.0,1411.0,0.0,0.0,0.0,0.0
1776370208620908856,14813,0.0,0.3,0.0,0.5,-0.04,0.06,27.94,-1.44,6.94,-0.06,-0.28,-0.53,-4.13,1.69,8.88,961.94,1411.0,0.0,0.0,0.0,0.0
1776370208723280662,14913,0.0,0.9,0.0,0.9,-0.02,0.06,28.69,-1.5,6.81,-0.04,-0.08,-0.53,2.38,-0.25,4.19,966.4,1520.0,0.0,0.0,0.0,0.0
1776370208821599116,15012,0.0,0.3,0.0,1.0,-0.06,0.02,29.06,-1.44,7.25,-0.16,-0.0,-0.54,2.63,-0.44,5.13,965.72,1520.0,0.0,0.0,0.0,0.0
1776370208924014015,15113,0.0,0.3,0.0,0.8,-0.1,-0.06,29.44,-1.56,7.13,0.19,-0.15,-0.42,-2.75,2.56,2.44,942.91,1048.0,0.0,0.0,0.0,0.0
1776370209022305765,15214,0.0,0.2,0.0,0.7,-0.04,-0.18,29.37,-1.56,7.19,-0.26,0.01,0.0,3.06,-2.31,-2.63,1005.5,976.0,0.0,0.0,0.0,0.0
1776370209124705770,15313,0.0,0.4,0.0,1.2,0.12,-0.04,29.0,-1.31,7.5,0.03,0.2,-0.38,-3.88,-3.88,-3.81,996.76,976.0,0.0,0.0,0.0,0.0
1776370209223001535,15413,0.04,0.3,0.0,1.2,0.0,-0.04,28.94,-0.81,7.0,0.19,0.34,-0.39,-2.13,-2.75,3.44,954.74,1069.0,0.0,0.0,0.0,0.0
1776370209321308392,15512,0.036,0.2,0.0,0.0,0.08,0.08,29.62,-0.63,7.19,-0.27,-0.05,-0.3,2.5,-0.5,7.81,953.54,2312.0,0.0,0.0,0.0,0.0
1776370209423705546,15612,0.02,0.5,0.0,0.3,0.02,-0.12,30.12,-0.31,6.94,0.2,0.17,-0.31,-4.25,-3.75,3.13,962.11,2312.0,0.0,0.0,0.0,0.0
1776370209521991051,15712,0.016,0.3,0.0,0.8,0.08,-0.06,30.25,-0.06,6.94,-0.09,0.13,-0.38,2.06,1.44,1.06,1011.51,1808.0,0.0,0.0,0.0,0.0
1776370209620276537,15812,0.004,0.2,0.0,0.8,0.04,-0.23,30.44,-0.06,6.94,-0.01,0.14,-0.42,-1.63,0.25,2.69,1007.05,1317.0,0.0,0.0,0.0,0.0
1776370209728629244,15911,0.004,0.2,0.0,0.9,0.0,-0.29,30.75,-0.0,6.94,0.02,0.06,-0.38,2.19,-0.37,3.94,989.55,1317.0,0.0,0.0,0.0,0.0
1776370209821010308,16011,0.004,0.3,0.0,0.8,0.0,-0.23,31.06,-0.0,7.06,-0.13,0.01,-0.26,0.25,-0.63,1.56,975.83,1200.0,0.0,0.0,0.0,0.0
1776370209919320795,16110,0.0,0.4,0.0,1.2,-0.16,-0.16,31.06,0.06,7.13,0.04,-0.0,-0.23,-0.81,-0.06,0.06,950.8,2159.0,0.0,0.0,0.0,0.0
1776370210027685427,16209,0.0,0.2,0.0,1.1,0.02,-0.21,31.06,0.12,6.94,0.06,0.08,-0.31,-3.13,-0.63,-0.94,957.83,2159.0,0.0,0.0,0.0,0.0
1776370210120018487,16310,0.0,0.1,0.0,0.5,0.04,-0.04,31.0,0.12,6.75,0.08,0.07,-0.43,-1.56,1.19,-0.06,987.15,1078.0,0.0,0.0,0.0,0.0
1776370210218329785,16409,0.04,0.2,0.0,0.7,-0.04,-0.12,31.0,0.12,6.69,0.05,0.05,-0.33,0.75,-0.88,0.25,988.01,1078.0,0.0,0.0,0.0,0.0
1776370210320724008,16509,0.032,0.2,0.024,0.5,-0.02,0.0,31.06,0.12,6.69,0.01,0.02,-0.42,0.5,-0.31,1.06,949.08,1730.0,0.0,0.0,0.0,0.0
1776370210419028306,16609,0.02,0.2,0.0,0.6,-0.18,-0.04,31.12,0.19,6.81,0.12,0.01,-0.32,2.0,0.44,0.44,955.94,1546.0,0.0,0.0,0.0,0.0
1776370210517310788,16708,0.02,0.3,0.0,0.9,0.02,-0.02,31.12,0.19,7.13,-0.06,-0.01,-0.31,2.44,-0.75,-0.12,959.2,1546.0,0.0,0.0,0.0,0.0
1776370210619688882,16808,0.012,0.2,0.0,0.7,-0.14,-0.12,31.12,0.25,7.25,0.01,-0.0,-0.29,0.81,-0.75,-0.88,962.46,1550.0,0.0,0.0,0.0,0.0
1776370210718024420,16908,0.0,0.3,0.0,0.3,-0.04,-0.02,30.87,0.31,7.31,-0.02,-0.0,-0.26,0.56,-1.5,-3.0,1023.34,1059.0,0.0,0.0,0.0,0.0
1776370210816326125,17007,0.0,0.3,0.0,1.0,-0.02,-0.06,30.56,0.44,7.31,-0.02,0.03,-0.34,-0.81,-1.0,-3.06,985.95,1059.0,0.0,0.0,0.0,0.0
1776370210918735442,17106,0.004,0.7,0.0,0.3,0.0,-0.12,30.31,0.44,7.31,-0.1,0.06,-0.27,-0.81,-0.81,-3.5,935.88,1321.0,0.0,0.0,0.0,0.0
1776370211017008887,17207,0.0,0.5,0.0,0.7,0.0,-0.12,29.87,0.5,7.13,0.0,0.07,-0.34,-2.19,-1.0,-4.0,937.08,1321.0,0.0,0.0,0.0,0.0
1776370211119425180,17308,0.0,0.5,0.0,0.7,0.1,-0.06,29.5,0.56,6.94,0.04,0.08,-0.39,-1.94,-1.12,-3.19,951.48,1435.0,0.0,0.0,0.0,0.0
1776370211221827233,17409,0.048,0.5,0.028,1.2,-0.02,-0.02,29.19,0.63,6.88,0.05,0.05,-0.34,-0.0,-0.81,-2.63,934.5,895.0,0.0,0.0,0.0,0.0
1776370211320133693,17510,0.036,0.3,0.0,0.8,0.06,-0.08,29.0,0.69,6.88,0.02,0.06,-0.29,-0.25,-1.5,-2.56,972.06,895.0,0.0,0.0,0.0,0.0
1776370211418434209,17609,0.024,0.1,0.0,1.1,-0.08,-0.1,28.81,0.75,6.81,0.13,0.19,-0.29,-1.12,-0.25,-0.37,951.31,1083.0,0.0,0.0,0.0,0.0
1776370211520792428,17709,0.0,0.2,0.0,0.8,0.0,-0.02,28.87,0.81,6.75,0.09,0.01,-0.36,-0.94,0.37,0.81,957.31,1290.0,0.0,0.0,0.0,0.0
1776370211619095740,17809,0.012,0.5,0.0,0.8,-0.18,-0.06,29.0,0.81,6.63,0.06,-0.0,-0.4,0.88,0.19,0.63,948.91,1290.0,0.0,0.0,0.0,0.0
1776370211721549793,17908,0.012,0.4,0.0,0.5,0.04,-0.06,29.0,0.75,6.81,0.05,-0.0,-0.3,2.44,-0.06,-0.69,979.95,1166.0,0.0,0.0,0.0,0.0
1776370211819879199,18009,0.0,0.6,0.0,0.5,0.08,-0.02,28.94,0.81,7.06,0.01,0.02,-0.36,1.19,-1.0,-0.81,962.63,1962.0,0.0,0.0,0.0,0.0
1776370211922233732,18110,0.0,0.2,0.0,0.4,-0.16,-0.08,28.87,0.94,7.19,-0.01,0.05,-0.25,2.56,0.06,0.06,944.11,1962.0,0.0,0.0,0.0,0.0
1776370212020552044,18209,0.0,0.5,0.0,1.0,0.02,-0.06,28.87,0.88,7.38,0.0,-0.0,-0.3,0.44,-0.12,-0.19,960.4,1883.0,0.0,0.0,0.0,0.0
1776370212122958593,18310,0.0,0.3,0.0,0.6,-0.06,-0.1,28.87,0.88,7.44,0.11,0.07,-0.38,1.56,0.88,0.0,942.56,1364.0,0.0,0.0,0.0,0.0
1776370212221242234,18410,0.0,0.3,0.0,1.1,-0.04,0.0,28.81,0.75,7.69,0.11,-0.18,-0.44,3.94,1.88,-2.06,1010.82,1364.0,0.0,0.0,0.0,0.0
1776370212319534968,18509,0.0,0.9,0.02,0.3,-0.06,0.02,28.31,0.44,8.0,0.05,0.05,-0.13,2.0,3.44,-8.31,945.31,1216.0,0.0,0.0,0.0,0.0
1776370212421981962,18609,0.036,0.3,0.0,0.7,-0.06,-0.16,27.25,-0.25,8.06,0.06,-0.35,-0.26,-0.37,6.88,-15.38,947.19,1216.0,0.0,0.0,0.0,0.0
1776370212520245955,18710,0.016,0.1,0.0,0.8,0.1,-0.21,25.19,-1.19,8.06,-0.09,-0.44,-0.41,1.31,2.06,-24.69,975.15,1317.0,0.0,0.0,0.0,0.0
1776370212622601262,18809,0.02,0.1,0.0,0.3,-0.06,-0.08,22.44,-1.56,8.19,-0.26,-0.08,-0.1,-0.56,-2.25,-32.19,932.79,1815.0,0.0,0.0,0.0,0.0
1776370212720965053,18910,0.0,0.5,0.0,1.2,0.04,-0.06,18.87,-2.0,7.94,-0.09,0.02,-0.49,-1.19,-0.44,-38.5,971.03,1815.0,0.0,0.0,0.0,0.0
1776370212823305989,19010,0.008,0.3,0.0,1.0,0.06,-0.14,14.94,-2.56,7.81,0.19,0.07,-0.5,1.0,-0.37,-40.63,949.08,1433.0,0.0,0.0,0.0,0.0
1776370212921644502,19109,0.0,-0.2,0.0,0.6,-0.12,-0.06,11.25,-2.69,7.94,-0.05,0.41,-0.09,5.94,-4.63,-34.25,954.4,1466.0,0.0,0.0,0.0,0.0
1776370213024083495,19210,0.0,1.0,0.0,1.1,0.0,-0.12,8.38,-2.5,8.19,-0.07,0.46,0.13,2.13,-1.06,-25.44,966.92,1466.0,0.0,0.0,0.0,0.0
1776370213130315202,19310,0.0,0.2,0.0,1.0,0.06,-0.04,6.31,-2.63,8.19,0.05,0.18,0.0,-0.19,-0.19,-18.06,11934.34,1119.0,0.0,0.0,0.0,0.0
1776370213230709729,19410,0.048,0.1,0.0,1.0,-0.04,-0.14,4.75,-2.75,8.06,0.01,0.15,-0.33,-0.81,0.12,-15.06,933.82,607.0,0.0,0.0,0.0,0.0
1776370213323031666,19510,0.044,0.2,0.0,1.2,-0.06,-0.02,3.44,-3.13,8.19,0.15,-0.07,-0.12,6.06,3.19,-13.5,1055.58,607.0,0.0,0.0,0.0,0.0
1776370213421389083,19610,0.032,0.1,0.0,0.8,0.02,-0.12,2.0,-3.38,8.75,-0.04,-0.02,-0.02,6.44,-2.88,-15.06,954.74,1153.0,0.0,0.0,0.0,0.0
1776370213523715293,19709,0.024,0.3,0.008,0.4,-0.06,-0.04,0.69,-3.31,9.19,0.04,0.1,0.17,3.0,-1.37,-11.25,957.83,1153.0,0.0,0.0,0.0,0.0
1776370213623871964,19810,0.016,0.1,0.0,0.8,-0.16,0.04,-0.37,-3.44,9.06,0.24,-0.07,-0.11,-0.31,-0.5,-11.25,11935.2,1782.0,0.0,0.0,0.0,0.0
1776370213724436309,19910,0.0,0.5,0.0,0.1,-0.12,-0.1,-1.44,-3.44,9.0,0.22,0.09,-0.15,2.19,-3.5,-11.0,1099.31,1914.0,0.0,0.0,0.0,0.0
1776370213830661737,20009,0.004,0.3,0.0,0.3,-0.1,0.0,-2.38,-3.25,9.13,0.18,0.2,-0.06,2.31,-1.0,-6.06,11935.03,2020.0,0.0,0.0,0.0,0.0
1776370213921056603,20109,0.0,0.0,0.0,1.3,-0.12,-0.08,-2.75,-3.25,9.25,0.04,-0.05,-0.02,2.0,-1.0,-3.63,909.64,2020.0,0.0,0.0,0.0,0.0
1776370214031371179,20209,0.004,0.2,0.0,0.9,0.16,-0.08,-3.19,-3.25,9.25,0.27,-0.06,-0.07,0.25,0.19,-5.0,11934.86,971.0,0.0,0.0,0.0,0.0
1776370214121764134,20308,0.004,0.1,0.0,1.1,0.16,0.0,-3.75,-3.25,9.19,0.14,-0.12,-0.1,2.06,-3.81,-5.44,925.07,971.0,0.0,0.0,0.0,0.0
1776370214220031971,20409,0.044,0.1,0.0,1.2,0.04,-0.06,-4.38,-3.13,9.19,0.12,-0.11,-0.1,0.69,-2.0,-8.63,924.04,518.0,0.0,0.0,0.0,0.0
1776370214322447049,20508,0.044,0.3,0.0,0.7,0.04,-0.06,-5.44,-3.0,9.25,-0.05,-0.0,0.03,1.31,-4.13,-12.94,938.45,1139.0,0.0,0.0,0.0,0.0
1776370214420758072,20608,0.0,0.1,0.028,0.8,0.16,-0.08,-6.75,-2.69,9.25,-0.27,0.1,0.02,-0.88,-7.94,-14.75,923.01,1139.0,0.0,0.0,0.0,0.0
1776370214529123720,20708,0.0,0.5,0.0,0.9,0.14,0.08,-8.63,-1.88,9.25,-0.08,0.2,-0.02,0.12,-9.5,-20.75,11935.2,1198.0,0.0,0.0,0.0,0.0
1776370214621431025,20808,0.0,0.6,0.0,1.0,0.0,0.0,-10.56,-1.69,9.38,-0.49,0.04,-0.25,0.88,-2.06,-21.19,961.09,1198.0,0.0,0.0,0.0,0.0
1776370214723856140,20908,0.0,0.3,0.0,0.9,-0.04,-0.04,-13.0,-1.81,9.44,-0.16,0.24,-0.24,-0.94,-0.75,-29.56,947.71,1821.0,0.0,0.0,0.0,0.0
1776370214822152329,21009,0.0,-0.2,0.0,0.2,0.1,-0.04,-16.06,-2.44,9.25,0.05,0.09,0.34,-1.63,3.44,-33.38,982.87,1893.0,0.0,0.0,0.0,0.0
1776370214920458167,21108,0.012,0.1,0.0,0.7,0.02,0.02,-19.25,-3.25,8.81,-0.58,-0.09,-0.18,0.06,-1.25,-33.88,923.87,1893.0,0.0,0.0,0.0,0.0
1776370215024774890,21208,0.0,0.4,0.0,0.3,-0.1,0.02,-22.75,-3.38,8.88,-0.22,-0.02,-0.29,-4.56,-4.38,-36.38,11935.03,1972.0,0.0,0.0,0.0,0.0
1776370215121156172,21308,0.0,0.0,0.0,1.1,-0.1,-0.06,-26.62,-3.88,8.06,0.07,-0.02,-0.63,-1.75,-1.75,-42.69,963.49,1251.0,0.0,0.0,0.0,0.0
1776370215223562783,21408,0.0,0.9,0.0,1.0,-0.14,-0.04,-31.31,-4.38,8.44,0.77,-0.23,0.36,13.63,0.06,-53.5,928.67,1251.0,0.0,0.0,0.0,0.0
1776370215321859173,21508,0.036,0.1,0.032,0.2,-0.06,0.16,-37.13,-5.63,9.69,-0.05,-0.17,0.04,22.25,6.44,-60.06,940.51,461.0,0.0,0.0,0.0,0.0
1776370215424243951,21608,0.0,0.3,0.0,0.6,0.06,0.02,-42.31,-7.25,11.19,0.02,-0.18,-0.28,16.94,5.31,-49.38,924.04,461.0,0.0,0.0,0.0,0.0
1776370215522539063,21708,0.024,0.3,0.016,0.5,0.08,-0.06,-47.38,-8.44,11.5,0.32,0.16,-0.15,6.75,0.06,-53.06,906.72,1039.0,0.0,0.0,0.0,0.0
1776370215620811433,21808,0.012,0.2,0.0,1.1,0.02,-0.12,-52.69,-9.38,11.25,0.36,0.12,-0.17,8.0,-2.25,-55.81,926.44,1895.0,0.0,0.0,0.0,0.0
1776370215725209284,21909,0.0,0.4,0.008,0.3,0.0,-0.16,-58.5,-10.13,11.0,0.07,0.09,0.23,8.88,-3.13,-60.88,11932.63,1061.0,0.0,0.0,0.0,0.0
1776370215821532250,22009,0.0,0.5,0.0,1.0,0.1,-0.06,-64.5,-10.75,10.5,-0.22,0.23,-0.15,3.81,-3.5,-60.0,1036.55,1061.0,0.0,0.0,0.0,0.0
1776370215923969621,22109,0.008,0.4,0.0,0.6,0.02,-0.02,-69.87,-11.25,9.75,0.07,0.05,-0.36,2.19,-9.06,-50.81,964.17,1498.0,0.0,0.0,0.0,0.0
1776370216034302559,22210,0.0,0.3,0.0,1.0,0.14,-0.1,-74.44,-10.81,9.0,-0.11,0.27,-0.4,3.0,-13.38,-40.5,11936.06,1389.0,0.0,0.0,0.0,0.0
1776370216124669563,22310,0.004,0.3,0.0,0.5,0.08,-0.1,-77.69,-9.94,9.0,-0.19,0.59,0.06,6.75,-10.56,-25.37,932.27,1389.0,0.0,0.0,0.0,0.0
1776370216227065170,22410,0.052,0.3,0.0,1.0,-0.04,-0.02,-80.12,-9.13,9.25,0.17,0.67,-0.22,5.38,-8.31,-25.81,934.67,1336.0,0.0,0.0,0.0,0.0
1776370216325397483,22511,0.0,0.2,0.0,1.0,-0.14,-0.02,-83.19,-8.19,8.94,0.46,0.47,0.06,3.88,-17.25,-33.0,942.39,1336.0,0.0,0.0,0.0,0.0
1776370216423687758,22610,0.0,0.6,0.0,1.2,-0.1,-0.06,-86.25,-6.44,8.88,0.43,0.82,0.17,7.56,-17.06,-27.69,929.7,1304.0,0.0,0.0,0.0,0.0
1776370216526021032,22710,0.0,0.7,0.0,0.7,0.06,-0.12,-88.81,-5.06,8.75,0.2,0.52,0.14,0.5,-8.75,-22.37,920.27,671.0,0.0,0.0,0.0,0.0
1776370216624352196,22809,0.016,0.4,0.0,0.3,-0.08,0.06,-90.69,-4.25,8.19,0.26,0.47,0.1,-3.13,-3.69,-17.5,935.7,671.0,0.0,0.0,0.0,0.0
1776370216722684417,22909,0.008,0.3,0.004,0.5,0.08,-0.06,-92.06,-4.0,7.5,0.2,0.45,-0.18,-4.13,-0.37,-15.38,962.8,982.0,0.0,0.0,0.0,0.0
1776370216825076876,23009,0.016,0.5,0.004,0.2,0.0,0.06,-93.56,-3.69,6.94,0.25,0.29,-0.16,-0.94,-2.13,-16.81,945.48,982.0,0.0,0.0,0.0,0.0
1776370216923378300,23109,0.004,0.3,0.0,1.1,-0.08,-0.06,-95.19,-3.31,6.69,0.14,0.07,-0.05,1.06,-7.5,-15.31,1006.19,1116.0,0.0,0.0,0.0,0.0
1776370217021636463,23208,0.004,0.0,0.0,1.0,-0.08,-0.08,-96.62,-3.06,6.63,0.09,0.04,0.0,0.69,0.06,-13.63,947.54,1003.0,0.0,0.0,0.0,0.0
1776370217124080846,23309,0.0,0.4,0.0,0.5,-0.02,-0.02,-98.19,-3.13,6.56,-0.03,0.11,-0.33,-1.37,-3.75,-20.75,923.7,1003.0,0.0,0.0,0.0,0.0
1776370217222315728,23409,0.044,0.0,0.0,1.0,-0.08,0.04,-100.62,-2.81,6.44,0.43,-0.05,-0.05,3.31,-6.06,-29.37,933.3,1880.0,0.0,0.0,0.0,0.0
1776370217324780148,23510,0.0,0.2,0.0,0.8,0.1,-0.06,-103.69,-3.0,6.38,0.42,-0.54,0.09,7.94,-0.63,-31.87,932.1,1240.0,0.0,0.0,0.0,0.0
1776370217427190975,23610,0.032,0.5,0.02,0.5,0.04,-0.06,-106.81,-3.19,6.94,0.26,-0.46,-0.48,7.0,-6.44,-32.31,942.91,1240.0,0.0,0.0,0.0,0.0
1776370217525422523,23711,0.0,0.1,0.0,0.7,0.0,-0.2,-110.25,-2.69,7.38,-0.57,-0.17,-0.69,5.44,-13.69,-37.94,916.84,947.0,0.0,0.0,0.0,0.0
1776370217627837721,23812,0.016,0.1,0.0,1.1,-0.04,-0.21,-114.37,-2.13,7.56,-0.25,0.21,-0.67,1.19,-4.69,-43.69,957.83,1372.0,0.0,0.0,0.0,0.0
1776370217726176438,23912,0.0,0.5,0.0,0.4,0.04,-0.04,-118.62,-2.63,7.88,0.26,0.07,-0.54,11.25,3.5,-42.75,919.41,1372.0,0.0,0.0,0.0,0.0
1776370217828576894,24011,0.004,0.3,0.0,0.3,-0.12,0.0,-122.25,-3.44,9.19,-0.42,0.13,0.01,17.69,-1.69,-28.5,905.01,761.0,0.0,0.0,0.0,0.0
1776370217926883444,24112,0.004,0.3,0.0,0.8,-0.06,0.0,-124.5,-3.5,10.5,0.09,0.51,0.58,12.81,-2.13,-14.69,888.03,761.0,0.0,0.0,0.0,0.0
1776370218029272974,24212,0.0,0.4,0.0,0.2,0.02,0.02,-125.31,-3.25,11.19,0.21,0.49,0.46,10.69,1.81,-1.56,844.64,709.0,0.0,0.0,0.0,0.0
1776370218127581928,24311,0.0,0.4,0.0,1.1,-0.1,-0.1,-125.31,-3.56,12.0,-0.03,0.14,-0.1,5.31,2.0,3.81,862.99,814.0,0.0,0.0,0.0,0.0
1776370218237901948,24412,0.04,-0.1,0.0,0.5,-0.08,-0.02,-124.56,-3.75,12.31,0.44,0.35,0.26,3.38,10.5,11.19,11933.66,1959.0,0.0,0.0,0.0,0.0
1776370218328277649,24512,0.032,0.1,0.024,0.2,-0.14,-0.08,-123.19,-4.0,12.94,-0.17,-0.27,0.41,1.94,-4.25,15.5,918.21,1959.0,0.0,0.0,0.0,0.0
1776370218426550418,24611,0.0,0.0,0.0,0.3,0.08,-0.08,-121.69,-2.88,12.56,0.23,-0.09,-0.38,-9.94,-11.0,18.69,859.39,2089.0,0.0,0.0,0.0,0.0
1776370218528944315,24712,0.0,0.7,0.0,0.8,-0.02,-0.14,-120.06,-2.06,11.81,0.52,0.07,0.04,-4.88,1.5,12.88,838.64,2089.0,0.0,0.0,0.0,0.0
1776370218629193618,24812,0.0,0.4,0.0,0.8,0.1,-0.12,-119.12,-2.44,11.69,-0.3,-0.12,-0.26,-0.37,7.94,8.31,11936.23,869.0,0.0,0.0,0.0,0.0
1776370218729724741,24912,0.004,0.1,0.0,0.6,0.0,-0.06,-118.12,-2.94,11.38,0.38,-0.85,-0.51,-2.75,6.13,10.56,869.85,791.0,0.0,0.0,0.0,0.0
1776370218827934268,25013,0.0,0.0,0.0,1.2,-0.04,-0.06,-117.25,-2.56,11.31,-0.3,0.02,-0.09,-2.0,-2.0,6.81,888.71,791.0,0.0,0.0,0.0,0.0
1776370218930374814,25113,0.0,0.2,0.0,1.1,0.0,-0.21,-117.12,-2.56,10.94,0.3,-0.42,-0.17,-4.06,-3.19,-2.94,891.63,1150.0,0.0,0.0,0.0,0.0
1776370219030606394,25213,0.0,0.1,0.0,0.9,0.14,-0.04,-117.5,-2.13,10.75,0.14,-0.07,-0.28,2.31,-5.06,-2.31,11933.31,1324.0,0.0,0.0,0.0,0.0
1776370219131081902,25313,0.0,0.0,0.0,0.9,-0.08,-0.02,-117.81,-2.06,11.06,-0.14,-0.08,-0.07,2.5,1.31,-4.75,851.67,1324.0,0.0,0.0,0.0,0.0
1776370219229381260,25413,0.0,0.9,0.048,0.4,-0.02,-0.04,-118.5,-2.44,11.13,0.07,-0.37,-0.22,0.37,-1.0,-7.69,867.1,1330.0,0.0,0.0,0.0,0.0
1776370219327647711,25513,0.0,1.0,0.02,0.7,-0.04,-0.16,-119.44,-2.44,11.13,0.09,-0.14,-0.04,1.44,-3.38,-11.5,881.0,1330.0,0.0,0.0,0.0,0.0
1776370219430085642,25613,0.0,0.4,0.0,1.3,0.08,-0.08,-120.75,-2.38,11.19,0.0,-0.0,-0.02,0.94,-3.19,-13.38,11935.37,1971.0,0.0,0.0,0.0,0.0
1776370219528356204,25713,0.0,0.7,0.0,0.9,0.0,-0.08,-122.0,-2.44,11.13,0.11,-0.0,-0.12,-0.31,-1.5,-11.63,861.44,1098.0,0.0,0.0,0.0,0.0
1776370219636716648,25812,0.016,0.1,0.0,1.0,-0.12,-0.1,-123.06,-2.5,11.13,0.16,-0.03,-0.15,0.75,-1.63,-9.88,850.47,1098.0,0.0,0.0,0.0,0.0
1776370219729102420,25912,0.0,0.3,0.0,0.9,-0.04,-0.06,-123.94,-2.44,11.19,0.1,0.07,-0.17,2.13,-2.19,-8.06,851.15,1252.0,0.0,0.0,0.0,0.0
1776370219829305886,26012,0.0,0.6,0.0,0.1,-0.02,-0.08,-124.69,-2.38,11.31,0.01,0.07,0.0,1.88,-1.25,-7.63,11932.63,1225.0,0.0,0.0,0.0,0.0
1776370219929789709,26113,0.004,0.4,0.0,1.0,-0.16,-0.04,-125.37,-2.44,11.44,0.07,-0.04,-0.03,0.37,-0.12,-6.0,889.23,1225.0,0.0,0.0,0.0,0.0
1776370220032234085,26214,0.0,0.3,0.0,1.1,-0.12,-0.06,-125.87,-2.44,11.38,0.1,0.06,-0.05,-0.69,-1.69,-5.06,872.08,1173.0,0.0,0.0,0.0,0.0
1776370220130493439,26313,0.0,0.2,0.0,1.1,-0.12,0.0,-126.31,-2.44,11.31,0.13,0.04,-0.1,-0.5,-0.31,-3.44,876.02,1173.0,0.0,0.0,0.0,0.0
1776370220232899386,26413,0.0,0.1,0.04,0.5,0.02,0.16,-126.5,-2.44,11.25,0.08,0.03,-0.15,0.25,0.63,-1.06,908.61,1084.0,0.0,0.0,0.0,0.0
1776370220331170166,26514,0.032,0.1,0.0,0.5,-0.06,-0.08,-126.56,-2.5,11.31,0.13,-0.02,-0.14,0.94,0.63,0.0,874.82,1163.0,0.0,0.0,0.0,0.0
1776370220429450336,26614,0.024,0.2,0.0,0.8,0.02,-0.04,-126.62,-2.5,11.5,0.16,-0.05,-0.02,2.25,-0.25,-1.19,889.23,1163.0,0.0,0.0,0.0,0.0
1776370220531862838,26714,0.016,0.2,0.0,0.8,0.08,-0.02,-126.75,-2.5,11.63,0.16,-0.16,-0.07,0.94,-1.88,-1.94,863.85,1042.0,0.0,0.0,0.0,0.0
1776370220630166397,26814,0.0,0.1,0.008,0.3,-0.1,0.0,-127.12,-2.38,11.63,0.1,-0.0,-0.01,0.44,-2.19,-5.06,895.4,770.0,0.0,0.0,0.0,0.0
1776370220732591529,26914,0.0,0.1,0.0,0.3,-0.08,0.04,-127.56,-2.38,11.56,0.14,-0.07,-0.11,-0.37,-1.25,-3.94,867.28,770.0,0.0,0.0,0.0,0.0
1776370220832802641,27014,0.008,0.3,0.0,1.3,-0.1,-0.21,-128.0,-2.31,11.56,0.13,-0.04,-0.12,0.25,-0.81,-4.63,11935.03,1260.0,0.0,0.0,0.0,0.0
1776370220933273645,27114,0.0,0.2,0.0,0.5,-0.04,0.0,-128.44,-2.31,11.5,0.06,-0.03,-0.11,0.19,-1.88,-4.0,830.92,1048.0,0.0,0.0,0.0,0.0
1776370221031598741,27214,0.0,0.3,0.0,0.9,-0.02,0.04,-128.88,-2.31,11.5,0.1,-0.0,-0.08,-0.56,-0.63,-3.75,853.56,1048.0,0.0,0.0,0.0,0.0
1776370221134000148,27315,0.0,0.2,0.0,0.6,0.14,-0.08,-129.19,-2.25,11.38,0.06,0.08,-0.06,-0.56,-1.12,-2.13,844.81,2387.0,0.0,0.0,0.0,0.0
1776370221232301722,27416,0.048,0.1,0.0,0.9,-0.04,-0.14,-129.31,-2.25,11.25,0.05,0.04,-0.08,-1.63,-0.06,-0.31,828.0,1516.0,0.0,0.0,0.0,0.0
1776370221334706925,27515,0.032,0.4,0.0,0.9,-0.04,-0.14,-129.31,-2.25,11.13,0.06,0.02,-0.22,-1.06,0.25,0.5,834.0,1516.0,0.0,0.0,0.0,0.0
1776370221433029352,27615,0.028,0.4,0.016,1.2,0.02,0.02,-129.25,-2.25,11.06,0.08,-0.03,-0.16,0.81,-0.25,1.31,842.24,895.0,0.0,0.0,0.0,0.0
1776370221531255073,27715,0.0,0.4,0.0,0.8,0.0,-0.04,-129.06,-2.25,11.25,0.06,-0.02,-0.04,1.0,0.31,1.81,841.04,895.0,0.0,0.0,0.0,0.0
1776370221633691814,27814,0.0,0.6,0.008,0.3,-0.04,-0.06,-128.88,-2.19,11.31,0.1,-0.0,-0.1,0.94,0.06,2.38,844.47,1174.0,0.0,0.0,0.0,0.0
1776370221733918219,27914,0.004,0.2,0.0,0.5,-0.04,-0.14,-128.63,-2.13,11.44,0.11,-0.03,-0.06,0.88,0.5,2.56,11934.0,826.0,0.0,0.0,0.0,0.0
1776370221840378549,28014,0.004,0.4,0.0,0.8,-0.06,-0.08,-128.38,-2.06,11.44,0.07,-0.1,-0.05,0.5,0.19,2.5,862.99,826.0,0.0,0.0,0.0,0.0
1776370221934649848,28113,0.0,0.2,0.0,0.3,-0.12,-0.08,-128.25,-2.06,11.44,0.08,-0.13,-0.1,0.12,0.06,0.56,11933.31,1340.0,0.0,0.0,0.0,0.0
1776370222032925125,28213,0.0,0.6,0.0,0.8,0.1,-0.04,-128.25,-2.06,11.44,0.09,-0.04,-0.02,-0.0,-0.63,-0.56,11934.17,1404.0,0.0,0.0,0.0,0.0
1776370222139359878,28313,0.0,0.4,0.0,0.2,0.12,-0.08,-128.38,-2.06,11.44,0.05,-0.05,-0.07,-0.31,-0.44,-1.25,859.39,1404.0,0.0,0.0,0.0,0.0
1776370222231710696,28412,0.04,0.4,0.04,0.3,0.0,-0.16,-128.5,-2.06,11.38,0.06,-0.0,-0.05,-0.69,-0.63,-1.63,839.15,869.0,0.0,0.0,0.0,0.0
1776370222334113804,28513,0.0,0.1,0.032,0.8,-0.14,-0.02,-128.63,-2.06,11.31,0.07,-0.01,-0.07,-0.81,-0.0,-0.75,835.55,869.0,0.0,0.0,0.0,0.0
1776370222432404653,28613,0.024,0.2,0.0,0.8,-0.1,0.0,-128.69,-2.06,11.25,0.02,0.02,-0.08,-0.5,-0.06,-0.94,857.16,1290.0,0.0,0.0,0.0,0.0
1776370222530676817,28713,0.012,0.3,0.0,1.2,-0.1,-0.1,-128.75,-2.06,11.19,0.06,-0.02,-0.05,-0.94,-0.19,-0.25,845.15,1160.0,0.0,0.0,0.0,0.0
1776370222633084387,28814,0.012,0.2,0.0,0.9,-0.08,-0.1,-128.75,-2.06,11.06,0.1,-0.06,-0.02,-1.19,-0.56,-0.94,858.87,1160.0,0.0,0.0,0.0,0.0
1776370222731369292,28914,0.0,0.2,0.0,0.4,0.0,-0.06,-128.94,-2.06,10.94,0.0,-0.01,-0.1,-1.75,-1.06,-1.69,852.87,1575.0,0.0,0.0,0.0,0.0
1776370222833810900,29015,0.0,1.0,0.0,0.5,-0.08,-0.16,-129.06,-2.06,10.75,0.09,0.09,-0.12,-0.75,-0.12,-0.69,878.08,2288.0,0.0,0.0,0.0,0.0
1776370222936208618,29116,0.0,0.1,0.0,0.5,-0.02,-0.18,-129.13,-2.06,10.69,0.09,-0.03,-0.04,-1.0,-0.31,-0.88,866.08,2288.0,0.0,0.0,0.0,0.0
1776370223034505523,29216,0.0,1.0,0.0,0.9,0.1,-0.08,-129.13,-2.06,10.56,0.11,0.02,-0.16,-0.75,-0.31,-0.44,888.2,684.0,0.0,0.0,0.0,0.0
1776370223136911127,29317,0.0,0.1,0.0,0.9,0.0,-0.08,-129.19,-2.0,10.56,0.12,0.04,-0.03,0.31,-0.25,-0.63,879.79,1145.0,0.0,0.0,0.0,0.0
1776370223235216567,29417,0.044,0.2,0.0,1.1,-0.02,-0.1,-129.13,-2.0,10.56,0.11,0.02,-0.1,0.19,-0.69,1.0,892.66,1145.0,0.0,0.0,0.0,0.0
1776370223337627245,29516,0.036,0.3,0.0,0.2,0.06,0.1,-129.0,-2.0,10.56,0.09,0.02,-0.04,0.63,0.63,2.63,875.68,1558.0,0.0,0.0,0.0,0.0
1776370223435906203,29617,0.0,0.9,0.0,1.0,-0.08,-0.06,-128.56,-1.94,10.56,0.04,0.1,-0.04,-0.81,0.31,5.63,837.43,1247.0,0.0,0.0,0.0,0.0
1776370223538260751,29717,0.012,0.3,0.0,0.8,-0.06,-0.06,-127.94,-1.81,10.5,0.07,0.02,-0.16,-0.63,1.5,7.69,866.08,1247.0,0.0,0.0,0.0,0.0
1776370223636560246,29816,0.0,0.2,0.004,0.4,0.14,-0.04,-127.12,-1.81,10.56,0.08,-0.06,-0.04,-0.0,1.44,9.56,856.47,1975.0,0.0,0.0,0.0,0.0
1776370223734943149,29916,0.008,0.2,0.0,1.1,-0.1,-0.04,-126.25,-1.75,10.56,0.05,-0.13,-0.05,-0.12,-0.0,8.0,866.76,1975.0,0.0,0.0,0.0,0.0
1776370223837312790,30016,0.0,0.1,0.0,1.2,0.08,0.0,-125.56,-1.63,10.56,0.13,-0.14,-0.08,-0.63,0.81,5.81,929.53,1303.0,0.0,0.0,0.0,0.0
1776370223935620693,30115,0.0,1.0,0.0,0.8,0.06,0.06,-125.06,-1.63,10.5,0.05,-0.15,-0.06,-0.63,0.31,3.94,870.71,843.0,0.0,0.0,0.0,0.0
1776370224033923187,30215,0.0,0.4,0.0,0.4,-0.08,-0.1,-124.87,-1.63,10.44,0.09,-0.14,-0.13,-0.44,1.0,0.75,862.47,843.0,0.0,0.0,0.0,0.0
1776370224136314122,30315,0.0,0.9,0.0,0.8,0.02,-0.02,-124.87,-1.75,10.44,0.08,-0.11,-0.15,1.19,-0.44,-1.81,861.79,956.0,0.0,0.0,0.0,0.0
1776370224234612336,30415,0.0,0.1,0.0,1.3,0.06,0.02,-125.25,-1.81,10.63,0.09,-0.06,-0.11,1.5,-1.31,-3.81,936.9,1746.0,0.0,0.0,0.0,0.0
1776370224343033710,30515,0.036,0.1,0.028,0.9,-0.1,0.0,-125.56,-1.75,10.75,0.05,0.02,-0.15,2.56,-0.63,-3.06,876.71,1746.0,0.0,0.0,0.0,0.0
1776370224435294004,30615,0.02,0.3,0.0,1.0,0.08,0.06,-125.94,-1.81,11.06,0.01,-0.16,-0.04,3.44,-0.94,-3.63,832.46,1155.0,0.0,0.0,0.0,0.0
1776370224533580292,30714,0.012,0.2,0.0,0.9,0.0,-0.1,-126.37,-1.69,11.31,0.0,0.05,-0.06,1.56,-2.94,-4.88,856.99,1049.0,0.0,0.0,0.0,0.0
1776370224635987764,30814,0.008,0.5,0.008,1.1,-0.02,-0.06,-126.69,-1.5,11.44,0.15,0.14,-0.06,1.69,-2.06,-0.44,924.39,1049.0,0.0,0.0,0.0,0.0
1776370224734369758,30914,0.0,0.1,0.0,0.7,0.1,-0.08,-126.56,-1.37,11.63,0.08,-0.0,-0.07,1.94,0.88,2.81,918.55,860.0,0.0,0.0,0.0,0.0
1776370224832620064,31013,0.0,0.0,0.0,0.8,-0.08,-0.02,-126.19,-1.31,11.75,0.06,0.01,-0.07,1.37,-0.06,4.13,908.78,860.0,0.0,0.0,0.0,0.0
1776370224935029443,31113,0.0,0.0,0.0,0.5,0.18,-0.06,-125.75,-1.25,11.88,0.08,-0.0,0.01,1.81,0.31,5.13,903.98,1003.0,0.0,0.0,0.0,0.0
1776370225033326269,31213,0.0,0.2,0.0,0.8,-0.02,-0.08,-125.12,-1.19,12.0,0.0,0.03,-0.07,0.88,1.56,6.44,890.43,1322.0,0.0,0.0,0.0,0.0
1776370225135723997,31313,0.0,0.2,0.0,0.3,0.02,0.0,-124.56,-1.19,12.06,-0.03,0.04,-0.09,-0.0,0.63,6.19,836.75,1322.0,0.0,0.0,0.0,0.0
1776370225234073043,31413,0.0,0.9,0.0,0.9,0.08,0.02,-123.87,-1.06,12.06,-0.01,0.14,-0.07,-1.06,0.19,7.94,819.77,1171.0,0.0,0.0,0.0,0.0
1776370225332341699,31513,0.036,0.1,0.0,0.9,0.0,-0.14,-122.94,-0.94,11.94,0.0,0.14,-0.05,-1.12,2.44,11.56,887.34,1375.0,0.0,0.0,0.0,0.0
1776370225434730872,31612,0.0,1.0,0.008,0.1,0.02,0.02,-121.69,-1.0,11.81,-0.01,0.02,-0.07,-1.81,3.0,13.06,11932.28,968.0,0.0,0.0,0.0,0.0
1776370225532991583,31712,0.02,0.1,0.012,0.8,-0.06,-0.04,-120.37,-0.94,11.69,-0.01,-0.01,-0.06,-1.25,2.69,12.75,841.55,968.0,0.0,0.0,0.0,0.0
1776370225633212773,31812,0.0,0.3,0.0,0.1,0.06,-0.1,-119.25,-1.0,11.5,0.0,-0.07,-0.04,-2.81,1.5,10.06,11933.48,1113.0,0.0,0.0,0.0,0.0
1776370225733727839,31912,0.008,0.2,0.0,0.3,0.1,-0.1,-118.37,-0.88,11.25,0.0,-0.1,-0.07,-2.81,1.31,8.5,871.22,1113.0,0.0,0.0,0.0,0.0
1776370225832048199,32012,0.0,0.6,0.0,0.6,0.0,0.04,-117.62,-0.94,11.0,-0.02,-0.15,-0.15,-3.13,1.44,6.0,851.5,1630.0,0.0,0.0,0.0,0.0
1776370225930340652,32111,0.004,0.9,0.0,0.9,-0.06,-0.02,-117.25,-0.88,10.81,-0.01,-0.14,-0.15,-0.94,-0.37,2.25,872.42,1630.0,0.0,0.0,0.0,0.0
1776370226032741603,32210,0.0,0.3,0.0,1.1,0.0,-0.06,-117.19,-0.88,10.75,0.07,-0.15,-0.14,0.12,0.37,0.63,863.5,1308.0,0.0,0.0,0.0,0.0
1776370226131041608,32311,0.0,1.0,0.0,0.7,-0.04,-0.14,-117.19,-0.88,10.88,0.02,-0.12,-0.12,1.69,-0.0,-1.88,854.07,2060.0,0.0,0.0,0.0,0.0
1776370226241395918,32410,0.0,0.2,0.0,0.7,0.0,-0.12,-117.5,-0.81,11.0,0.0,-0.07,-0.03,0.5,-1.31,-3.13,11932.45,822.0,0.0,0.0,0.0,0.0
1776370226331746877,32510,0.036,0.5,0.016,0.3,0.14,-0.18,-117.87,-0.88,11.0,0.07,-0.09,-0.04,0.19,-1.06,-4.31,877.39,822.0,0.0,0.0,0.0,0.0
1776370226430039809,32610,0.016,0.2,0.0,0.9,0.0,-0.06,-118.37,-0.81,11.0,0.04,-0.06,-0.05,0.31,-0.94,-5.5,843.44,969.0,0.0,0.0,0.0,0.0
1776370226538427084,32709,0.012,0.2,0.0,1.1,0.04,-0.04,-118.94,-0.81,10.94,0.03,-0.09,-0.04,0.12,-1.19,-6.19,11934.86,2062.0,0.0,0.0,0.0,0.0
1776370226630713336,32809,0.0,0.5,0.0,1.1,-0.04,0.04,-119.69,-0.88,10.94,0.01,-0.11,-0.12,0.06,-1.19,-7.56,859.9,2062.0,0.0,0.0,0.0,0.0
1776370226733142062,32909,0.004,0.2,0.0,0.8,-0.04,-0.12,-120.44,-0.88,11.0,-0.03,-0.15,-0.14,1.56,-1.37,-9.88,869.51,2062.0,0.0,0.0,0.0,0.0
1776370226833344435,33010,0.0,0.0,0.004,0.6,-0.14,0.06,-121.5,-0.94,11.13,0.02,-0.13,-0.07,2.0,-2.0,-12.56,11934.86,967.0,0.0,0.0,0.0,0.0
1776370226933852387,33111,0.0,1.1,0.0,0.7,-0.06,-0.02,-122.81,-0.94,11.31,0.01,-0.01,-0.09,1.56,-1.88,-11.75,861.79,808.0,0.0,0.0,0.0,0.0
1776370227034063055,33211,0.0,0.3,0.0,1.0,0.02,0.06,-123.94,-0.94,11.44,0.06,-0.0,-0.1,1.75,-2.13,-10.56,11934.51,1211.0,0.0,0.0,0.0,0.0
1776370227134540467,33311,0.0,0.1,0.0,0.7,-0.08,-0.02,-124.87,-1.0,11.56,-0.09,-0.0,-0.04,0.69,-1.12,-9.25,870.71,1211.0,0.0,0.0,0.0,0.0
1776370227232842174,33411,0.0,0.1,0.0,1.1,-0.12,0.06,-125.69,-1.0,11.56,0.09,-0.01,-0.08,-0.37,-2.19,-7.94,828.69,554.0,0.0,0.0,0.0,0.0
1776370227331149067,33511,0.0,0.2,0.0,0.8,0.02,-0.08,-126.37,-0.94,11.56,0.03,0.1,-0.09,0.5,-0.63,-6.06,863.16,554.0,0.0,0.0,0.0,0.0
1776370227433533827,33610,0.0,0.2,0.0,0.6,0.06,-0.04,-126.94,-1.06,11.56,0.05,-0.02,-0.12,0.75,-0.88,-4.94,11937.43,1367.0,0.0,0.0,0.0,0.0
1776370227531813682,33710,0.0,0.8,0.0,0.6,-0.18,0.04,-127.37,-1.0,11.63,0.0,0.03,-0.04,0.63,-0.81,-4.19,891.29,523.0,0.0,0.0,0.0,0.0
1776370227634213405,33810,0.0,0.4,0.0,1.3,-0.12,0.04,-127.75,-1.06,11.69,-0.03,0.05,-0.07,0.31,-0.81,-2.88,838.64,523.0,0.0,0.0,0.0,0.0
1776370227732550539,33910,0.004,0.3,0.0,1.2,0.0,0.02,-128.06,-1.06,11.63,0.05,0.02,-0.08,-0.63,0.5,-2.63,841.55,959.0,0.0,0.0,0.0,0.0
1776370227834946317,34011,0.0,1.0,0.0,0.3,0.0,-0.08,-128.25,-1.12,11.63,0.01,-0.0,-0.15,0.06,-0.56,-1.75,841.55,959.0,0.0,0.0,0.0,0.0
1776370227933250802,34111,0.0,0.1,0.0,1.2,0.04,-0.12,-128.44,-1.19,11.63,0.05,0.11,-0.09,0.12,1.25,-1.56,832.46,1078.0,0.0,0.0,0.0,0.0
1776370228035661767,34211,0.004,0.7,0.0,0.3,-0.14,-0.06,-128.44,-1.37,11.56,-0.38,0.13,0.2,-4.13,2.63,1.88,836.06,1011.0,0.0,0.0,0.0,0.0
1776370228133941860,34312,0.0,0.1,0.0,0.3,-0.06,-0.18,-128.31,-1.63,10.69,0.4,-0.24,-0.2,-9.38,2.44,-0.81,849.27,1011.0,0.0,0.0,0.0,0.0
1776370228242309815,34412,0.048,0.1,0.0,0.8,-0.02,-0.14,-128.5,-1.75,10.31,0.11,-0.09,-0.47,2.94,-1.75,-3.5,843.95,1187.0,0.0,0.0,0.0,0.0
1776370228334660953,34511,0.0,0.3,0.0,1.2,-0.04,-0.04,-128.88,-1.63,10.56,-0.02,0.03,0.06,2.94,-0.75,-4.81,838.12,1291.0,0.0,0.0,0.0,0.0
1776370228432944731,34611,0.028,0.3,0.0,0.8,-0.16,-0.04,-129.44,-1.75,10.75,-0.01,-0.04,-0.09,0.44,0.12,-5.31,881.0,1291.0,0.0,0.0,0.0,0.0
1776370228535323692,34711,0.02,0.1,0.0,1.1,-0.02,-0.1,-129.94,-1.81,10.75,0.01,0.02,-0.07,1.0,-1.06,-6.06,851.84,670.0,0.0,0.0,0.0,0.0
1776370228633662509,34810,0.012,0.9,0.0,0.9,0.04,-0.04,-130.56,-1.81,10.88,-0.04,0.01,-0.06,1.31,-0.88,-5.81,855.78,670.0,0.0,0.0,0.0,0.0
1776370228742010964,34910,0.0,0.4,0.0,0.2,0.06,-0.08,-131.06,-1.81,10.88,0.0,-0.0,-0.02,-0.81,-1.56,-4.25,870.71,1624.0,0.0,0.0,0.0,0.0
1776370228834358471,35011,0.004,0.4,0.0,0.9,0.0,-0.23,-131.38,-1.75,10.69,0.02,0.03,-0.19,-1.56,-1.12,-2.56,850.13,1926.0,0.0,0.0,0.0,0.0
1776370228932677065,35111,0.0,0.3,0.0,0.4,-0.08,-0.16,-131.56,-1.75,10.56,0.19,-0.02,0.0,-1.12,-0.63,-2.13,851.15,1926.0,0.0,0.0,0.0,0.0
1776370229035055174,35211,0.0,0.0,0.0,0.9,-0.08,-0.12,-132.0,-1.75,10.44,0.09,-0.14,-0.05,-1.31,-1.69,-5.31,874.14,915.0,0.0,0.0,0.0,0.0
1776370229145396662,35312,0.0,0.7,0.0,0.9,-0.04,0.04,-132.56,-1.75,10.19,0.06,0.03,-0.15,-2.0,-0.94,-6.19,11933.14,857.0,0.0,0.0,0.0,0.0
1776370229235762873,35412,0.044,0.2,0.0,0.8,0.08,-0.06,-133.31,-1.75,10.0,0.08,-0.06,-0.13,-0.69,-2.44,-8.06,877.91,857.0,0.0,0.0,0.0,0.0
1776370229338150777,35513,0.0,0.3,0.0,1.1,-0.06,-0.1,-134.19,-1.5,10.13,0.1,0.29,-0.37,2.75,-6.56,-7.69,843.95,1349.0,0.0,0.0,0.0,0.0
1776370229436477998,35613,0.0,0.1,0.0,0.9,-0.08,0.02,-134.81,-0.94,10.44,-0.01,0.8,0.08,4.31,-3.13,-5.38,870.71,1051.0,0.0,0.0,0.0,0.0
1776370229538863513,35713,0.016,0.4,0.0,0.8,-0.06,-0.1,-135.31,-0.81,11.13,-0.22,0.41,-0.2,7.56,0.81,-5.0,860.07,1051.0,0.0,0.0,0.0,0.0
1776370229637130326,35813,0.016,0.3,0.0,1.2,0.06,0.0,-135.88,-1.06,11.81,0.37,-0.38,0.13,6.06,1.44,-7.5,826.97,1654.0,0.0,0.0,0.0,0.0
1776370229735434528,35913,0.012,0.0,0.0,1.0,0.06,-0.08,-136.94,-1.31,12.5,-0.05,-0.18,-0.15,7.19,-0.75,-14.94,867.96,1176.0,0.0,0.0,0.0,0.0
1776370229837856766,36014,0.016,0.3,0.0,1.1,0.0,-0.02,-138.81,-1.37,12.88,0.12,0.14,0.19,3.25,-5.38,-18.56,836.23,1176.0,0.0,0.0,0.0,0.0
1776370229936162506,36114,0.004,0.0,0.0,0.1,0.0,0.02,-140.31,-1.44,12.75,0.32,-0.21,-0.21,-2.13,-2.56,-11.13,855.96,1182.0,0.0,0.0,0.0,0.0
1776370230038554408,36213,0.0,0.1,0.0,1.2,-0.21,-0.14,-140.94,-1.25,12.31,0.62,-0.36,-0.41,0.88,-4.5,-1.56,830.75,1182.0,0.0,0.0,0.0,0.0
1776370230140959310,36314,0.004,0.2,0.0,0.2,0.0,0.0,-141.19,-0.94,12.63,-0.4,-0.14,0.33,-1.19,-0.44,-7.63,907.23,1388.0,0.0,0.0,0.0,0.0
1776370230247211353,36415,0.048,0.3,0.0,0.1,0.02,-0.06,-142.44,-1.19,11.81,0.0,0.11,0.17,-11.75,1.75,-15.31,11934.51,851.0,0.0,0.0,0.0,0.0
1776370230337532636,36515,0.036,0.9,0.0,0.5,-0.06,-0.06,-143.06,-2.06,11.06,0.24,0.09,-0.44,-3.0,12.38,-0.12,865.05,851.0,0.0,0.0,0.0,0.0
1776370230439937908,36615,0.0,0.8,0.028,0.9,-0.1,-0.08,-142.38,-3.44,11.19,-0.11,-0.12,-0.34,4.69,15.38,9.81,894.03,957.0,0.0,0.0,0.0,0.0
1776370230538224071,36715,0.0,0.2,0.024,0.3,-0.06,0.0,-141.38,-4.38,11.44,0.28,-0.32,-0.15,-0.81,6.31,8.06,831.95,1223.0,0.0,0.0,0.0,0.0
1776370230640642325,36815,0.016,0.2,0.0,0.8,0.02,-0.06,-140.56,-4.75,11.56,-0.11,-0.17,-0.35,3.13,2.25,7.13,826.63,1223.0,0.0,0.0,0.0,0.0
1776370230743108838,36916,0.008,0.2,0.0,0.7,-0.08,-0.14,-140.0,-4.94,11.75,-0.07,-0.37,-0.02,-0.06,-2.63,5.44,846.35,1402.0,0.0,0.0,0.0,0.0
1776370230877437465,37017,0.0,0.3,0.0,1.2,-0.04,-0.02,-139.94,-4.38,11.75,0.01,-0.09,0.01,-1.25,-8.63,-2.19,832.63,1053.0,0.0,0.0,0.0,0.0
1776370230939676072,37116,0.004,0.3,0.0,0.8,-0.02,-0.12,-140.69,-3.75,11.5,0.18,0.01,-0.17,-2.0,-7.25,-9.13,939.82,1053.0,0.0,0.0,0.0,0.0
1776370231042040028,37216,0.004,0.2,0.0,1.1,-0.2,-0.06,-141.56,-3.38,11.38,0.03,0.03,0.12,0.5,-3.75,-9.5,875.51,912.0,0.0,0.0,0.0,0.0
1776370231140368819,37316,0.004,0.9,0.0,0.8,0.04,-0.16,-142.44,-3.38,11.25,-0.08,-0.0,-0.26,-1.88,-2.31,-8.94,848.58,912.0,0.0,0.0,0.0,0.0
1776370231238676814,37415,0.048,0.2,0.044,0.5,-0.04,0.04,-143.63,-3.19,11.19,0.01,0.08,-0.18,2.44,-5.06,-14.19,845.67,934.0,0.0,0.0,0.0,0.0
1776370231341070991,37515,0.044,0.3,0.0,1.0,0.0,-0.14,-144.94,-3.0,11.44,-0.04,0.19,-0.05,2.88,-2.88,-11.19,833.66,1170.0,0.0,0.0,0.0,0.0
1776370231439483376,37614,0.028,0.4,0.0,1.2,-0.02,-0.1,-145.88,-2.94,11.63,0.01,0.15,-0.17,2.75,-0.25,-7.25,11932.45,1560.0,0.0,0.0,0.0,0.0
1776370231537628497,37714,0.016,0.2,0.0,0.6,0.04,-0.04,-146.44,-3.0,11.94,0.09,0.1,-0.09,3.31,-1.0,-5.69,810.51,1560.0,0.0,0.0,0.0,0.0
1776370231640087750,37814,0.016,0.3,0.0,0.5,-0.12,-0.14,-146.94,-2.88,12.13,0.01,0.22,0.0,2.5,-1.75,-3.06,846.35,1667.0,0.0,0.0,0.0,0.0
1776370231738404374,37913,0.012,0.1,0.0,0.2,-0.06,-0.14,-147.0,-2.75,12.25,0.07,0.14,0.0,0.44,0.31,0.63,820.8,1667.0,0.0,0.0,0.0,0.0
1776370231836677627,38012,0.008,0.0,0.0,0.4,-0.06,-0.2,-146.88,-2.69,12.19,0.04,0.11,-0.1,-1.56,-0.12,2.19,871.56,1049.0,0.0,0.0,0.0,0.0
1776370231939072156,38112,0.0,0.4,0.0,0.3,-0.12,-0.02,-146.56,-2.63,12.06,0.02,0.08,-0.12,-1.44,-0.0,3.56,811.2,864.0,0.0,0.0,0.0,0.0
1776370232037378595,38213,0.0,0.0,0.0,1.1,-0.1,-0.06,-146.19,-2.56,11.94,0.04,0.08,-0.11,-0.88,-0.31,4.5,810.68,864.0,0.0,0.0,0.0,0.0
1776370232135628068,38312,0.004,0.2,0.0,0.2,0.12,0.0,-145.69,-2.44,11.81,0.0,0.09,-0.1,-1.5,0.37,5.25,816.0,919.0,0.0,0.0,0.0,0.0
1776370232238113355,38412,0.0,0.6,0.0,0.3,0.1,-0.33,-145.19,-2.38,11.75,0.03,-0.03,-0.09,-1.25,1.12,4.94,829.55,919.0,0.0,0.0,0.0,0.0
1776370232340492160,38513,0.0,0.2,0.032,1.0,-0.04,-0.04,-144.69,-2.38,11.69,-0.01,-0.02,-0.21,-0.5,0.37,4.44,845.15,1220.0,0.0,0.0,0.0,0.0
1776370232438791930,38612,0.0,-0.1,0.016,0.3,0.0,-0.08,-144.31,-2.31,11.69,0.02,-0.04,-0.11,0.56,-0.06,3.19,879.11,752.0,0.0,0.0,0.0,0.0
1776370232537030551,38712,0.016,0.3,0.0,0.4,-0.08,-0.02,-144.13,-2.25,11.75,-0.01,-0.06,-0.1,0.25,-0.37,2.13,908.95,752.0,0.0,0.0,0.0,0.0
1776370232639439763,38813,0.0,0.2,0.0,0.8,-0.14,-0.12,-144.0,-2.25,11.75,0.0,-0.01,-0.11,0.56,0.19,0.37,878.59,942.0,0.0,0.0,0.0,0.0
1776370232741886735,38914,0.0,0.3,0.0,1.1,0.02,-0.16,-144.0,-2.25,11.75,0.09,-0.0,-0.06,-0.12,-0.37,-1.5,890.08,936.0,0.0,0.0,0.0,0.0
1776370232840195487,39015,0.004,0.3,0.0,1.2,0.04,-0.16,-144.25,-2.31,11.75,0.02,0.02,-0.03,-0.31,-0.19,-2.81,891.8,936.0,0.0,0.0,0.0,0.0
1776370232950551208,39115,0.012,0.1,0.0,1.0,0.08,-0.04,-144.56,-2.38,11.69,0.07,-0.01,-0.08,-1.31,0.37,-3.75,11936.4,1234.0,0.0,0.0,0.0,0.0
1776370233040880690,39215,0.0,0.6,0.0,0.5,-0.04,-0.18,-145.06,-2.44,11.56,0.03,-0.0,-0.16,-0.12,-0.94,-5.63,836.92,2299.0,0.0,0.0,0.0,0.0
1776370233143273400,39315,0.0,1.0,0.0,0.3,-0.04,-0.08,-145.56,-2.5,11.56,0.07,0.08,-0.17,1.0,0.19,-5.19,829.72,2299.0,0.0,0.0,0.0,0.0
1776370233241580650,39415,0.0,1.0,0.0,0.8,0.06,-0.08,-146.0,-2.56,11.75,0.03,0.06,-0.13,2.94,0.06,-4.0,836.92,1127.0,0.0,0.0,0.0,0.0
1776370233343986545,39516,0.036,0.1,0.0,0.9,0.02,-0.06,-146.38,-2.69,12.0,0.02,-0.01,-0.1,2.19,0.69,-2.88,876.71,1127.0,0.0,0.0,0.0,0.0
1776370233442304072,39616,0.02,0.3,0.0,0.9,0.04,-0.14,-146.63,-2.75,12.25,0.11,-0.0,-0.07,1.88,0.06,-3.06,833.32,1421.0,0.0,0.0,0.0,0.0
1776370233544670004,39716,0.016,0.0,0.0,1.2,-0.1,0.04,-146.88,-2.81,12.38,0.05,-0.04,-0.09,1.12,0.06,-1.88,836.75,1256.0,0.0,0.0,0.0,0.0
1776370233642976957,39817,0.004,0.0,0.0,0.9,-0.12,-0.06,-147.06,-2.88,12.38,0.05,0.05,-0.07,0.44,-0.25,-1.37,849.1,1256.0,0.0,0.0,0.0,0.0
1776370233745396779,39917,0.0,0.3,0.0,1.0,-0.02,-0.12,-147.19,-2.88,12.38,0.07,0.06,-0.11,0.12,-0.75,-1.0,952.17,804.0,0.0,0.0,0.0,0.0
1776370233843684399,40017,0.004,1.1,0.0,0.3,0.1,-0.1,-147.25,-2.94,12.44,0.04,-0.0,-0.12,1.06,0.81,-0.63,935.02,1365.0,0.0,0.0,0.0,0.0
1776370233946092072,40117,0.0,1.0,0.0,0.6,-0.08,-0.02,-147.31,-2.94,12.5,0.04,0.06,-0.09,-0.0,-0.31,-0.5,943.94,1365.0,0.0,0.0,0.0,0.0
1776370234044386765,40217,0.0,0.4,0.0,0.5,0.0,-0.12,-147.31,-2.94,12.5,-0.02,0.08,-0.08,-0.06,0.06,0.69,901.75,1170.0,0.0,0.0,0.0,0.0
1776370234142692568,40316,0.0,0.3,0.0,1.0,-0.06,-0.16,-147.19,-2.94,12.5,0.0,0.11,-0.09,-0.12,0.63,1.56,863.67,899.0,0.0,0.0,0.0,0.0
1776370234245085368,40416,0.0,0.2,0.0,0.8,-0.08,-0.1,-147.06,-3.0,12.5,0.0,0.01,-0.11,-0.0,0.37,1.56,859.56,899.0,0.0,0.0,0.0,0.0
1776370234343390097,40517,0.032,0.1,0.0,0.7,-0.04,-0.21,-146.88,-2.94,12.5,0.09,0.01,-0.05,0.31,0.63,0.81,829.37,1226.0,0.0,0.0,0.0,0.0
1776370234441689030,40616,0.0,0.5,0.028,0.2,-0.1,0.02,-146.88,-3.0,12.5,0.01,-0.0,-0.03,-0.0,0.37,0.19,819.6,1054.0,0.0,0.0,0.0,0.0
1776370234544057256,40716,0.0,0.9,0.0,1.0,0.08,0.06,-146.94,-3.06,12.5,-0.04,-0.08,-0.13,-0.88,0.94,-1.06,812.74,1054.0,0.0,0.0,0.0,0.0
1776370234642361671,40816,0.012,1.1,0.012,1.0,0.0,-0.04,-146.94,-3.13,12.31,0.1,-0.02,-0.14,-1.12,0.69,-0.5,800.9,1084.0,0.0,0.0,0.0,0.0
1776370234740669141,40915,0.0,0.9,0.0,1.0,-0.1,-0.08,-147.06,-3.13,12.31,0.01,-0.01,-0.12,-0.06,-0.31,-1.44,822.34,1084.0,0.0,0.0,0.0,0.0
1776370234843088830,41015,0.004,0.1,0.0,1.0,0.02,-0.06,-147.13,-3.19,12.31,0.08,-0.02,-0.11,0.88,-0.5,-0.81,817.71,1059.0,0.0,0.0,0.0,0.0
1776370234941425838,41114,0.0,0.3,0.0,1.1,0.14,-0.08,-147.25,-3.19,12.44,0.11,-0.05,-0.12,1.44,-1.0,-0.88,816.68,774.0,0.0,0.0,0.0,0.0
1776370235043802305,41214,0.0,0.8,0.0,0.6,0.02,-0.08,-147.31,-3.0,12.56,0.0,-0.02,-0.02,1.19,-2.31,-0.69,871.56,774.0,0.0,0.0,0.0,0.0
1776370235142096236,41314,0.0,-0.1,0.0,0.8,-0.02,-0.16,-147.38,-2.88,12.63,0.02,0.01,-0.04,-0.12,-1.5,-1.0,867.45,1003.0,0.0,0.0,0.0,0.0
1776370235240400259,41413,0.044,0.5,0.0,0.9,-0.1,-0.02,-147.5,-2.81,12.63,0.0,0.03,-0.03,-0.44,-0.63,-0.44,930.56,1066.0,0.0,0.0,0.0,0.0
1776370235338696672,41513,0.0,0.6,0.0,1.2,-0.02,0.0,-147.5,-2.81,12.56,0.05,0.05,-0.12,-0.19,0.37,-0.25,845.15,1066.0,0.0,0.0,0.0,0.0
1776370235441070007,41613,0.02,0.2,0.0,1.0,-0.06,-0.08,-147.5,-2.81,12.56,0.09,-0.0,-0.09,0.69,-0.12,-0.12,852.35,1012.0,0.0,0.0,0.0,0.0
1776370235539358975,41713,0.02,1.0,0.0,1.0,-0.08,0.02,-147.44,-2.75,12.69,0.09,0.1,-0.17,1.12,0.31,0.63,855.27,1012.0,0.0,0.0,0.0,0.0
1776370235641770310,41812,0.008,0.1,0.0,0.9,0.0,-0.1,-147.44,-2.88,12.81,0.08,-0.0,-0.05,1.88,0.94,0.44,875.51,1143.0,0.0,0.0,0.0,0.0
1776370235740119001,41912,0.0,0.9,0.0,1.0,-0.12,0.04,-147.38,-3.06,12.94,0.15,0.14,-0.04,1.19,4.25,0.06,865.9,894.0,0.0,0.0,0.0,0.0
1776370235838418006,42011,0.004,-0.1,0.0,1.0,0.06,-0.08,-147.06,-3.56,12.94,0.35,0.01,0.35,0.69,9.13,6.0,846.18,894.0,0.0,0.0,0.0,0.0
1776370235936666603,42110,0.004,0.1,0.0,1.1,-0.02,0.02,-146.13,-4.25,12.63,-0.05,-0.1,0.4,-8.0,11.0,13.0,837.43,1301.0,0.0,0.0,0.0,0.0
1776370236039109365,42211,0.008,0.2,0.004,0.2,-0.04,0.08,-143.81,-4.81,11.69,0.31,-0.57,-0.12,-12.5,7.94,26.75,850.47,1217.0,0.0,0.0,0.0,0.0
1776370236137428425,42310,0.0,0.3,0.004,0.3,0.08,-0.08,-141.25,-5.19,10.56,0.62,-0.23,-0.04,-8.75,4.31,24.19,918.04,1217.0,0.0,0.0,0.0,0.0
1776370236235699131,42409,0.048,0.4,0.0,1.0,0.0,-0.2,-139.31,-5.56,10.69,0.53,-0.93,-0.25,6.0,5.5,15.0,837.26,763.0,0.0,0.0,0.0,0.0
1776370236346108530,42509,0.04,1.0,0.032,0.6,-0.04,-0.06,-138.88,-6.5,11.31,0.45,-1.02,-0.26,14.06,-7.44,-1.94,11936.57,740.0,0.0,0.0,0.0,0.0
1776370236436394227,42609,0.0,0.4,0.0,1.1,-0.02,0.12,-140.25,-7.06,11.63,0.49,-0.88,-0.12,11.44,-18.31,-14.88,11934.34,1048.0,0.0,0.0,0.0,0.0
1776370236538772283,42710,0.0,1.0,0.0,0.1,0.06,0.08,-142.5,-6.19,11.38,0.74,-0.66,0.37,1.81,-22.5,-21.81,889.4,1048.0,0.0,0.0,0.0,0.0
1776370236641199043,42810,0.008,0.3,0.0,0.9,-0.08,-0.02,-144.31,-5.19,10.69,-0.13,-0.12,0.98,-12.94,-10.06,-9.31,876.71,1048.0,0.0,0.0,0.0,0.0
1776370236739555029,42911,0.0,0.3,0.0,0.3,-0.02,-0.18,-143.81,-5.13,8.56,-0.71,-0.29,1.37,-25.75,8.94,18.12,930.39,998.0,0.0,0.0,0.0,0.0
1776370236841967381,43012,0.0,0.2,0.0,0.7,0.02,-0.06,-141.31,-5.88,6.56,-0.47,1.24,1.47,-20.06,11.94,27.44,1038.26,1123.0,0.0,0.0,0.0,0.0
1776370236942106694,43113,0.0,0.7,0.0,0.3,-0.12,-0.06,-137.88,-7.56,5.88,0.42,1.7,-0.39,-8.44,23.37,38.31,11932.45,1086.0,0.0,0.0,0.0,0.0
1776370237050551891,43213,0.0,0.3,0.0,1.0,0.04,-0.04,-134.25,-9.19,5.63,-0.37,1.49,-1.4,-13.88,14.56,29.5,11935.54,1086.0,0.0,0.0,0.0,0.0
1776370237145061846,43314,0.0,0.9,0.0,0.8,-0.08,0.0,-131.56,-10.06,3.81,-0.1,1.66,-2.11,-29.5,8.25,20.75,1012.88,1141.0,0.0,0.0,0.0,0.0
1776370237243315828,43414,0.044,0.2,0.0,1.1,-0.1,-0.12,-129.5,-10.56,1.69,1.0,0.9,-1.3,-20.19,2.63,19.87,974.46,1141.0,0.0,0.0,0.0,0.0
1776370237341621792,43513,0.028,0.1,0.0,0.9,-0.02,-0.04,-127.19,-10.69,1.06,0.43,1.47,0.16,-3.25,4.44,26.31,977.04,2016.0,0.0,0.0,0.0,0.0
1776370237444096700,43613,0.0,0.4,0.024,0.2,-0.08,-0.08,-123.94,-11.75,1.88,-1.76,2.68,1.49,4.31,18.5,40.63,1019.74,1476.0,0.0,0.0,0.0,0.0
1776370237542299051,43713,0.008,0.4,0.0,1.0,0.04,-0.06,-119.56,-14.13,3.63,-1.76,2.73,0.97,8.13,30.87,50.13,997.27,1476.0,0.0,0.0,0.0,0.0
1776370237640606479,43812,0.0,1.2,0.008,0.5,-0.08,-0.1,-115.06,-15.75,5.38,-0.2,1.82,-0.37,2.5,15.88,51.63,1019.4,2148.0,0.0,0.0,0.0,0.0
1776370237743014255,43912,0.008,0.1,0.0,0.2,-0.14,-0.02,-109.62,-16.12,6.31,-0.37,1.15,-0.65,-19.0,2.5,60.94,1011.68,2148.0,0.0,0.0,0.0,0.0
1776370237841316201,44012,0.0,0.3,0.0,1.0,0.02,-0.06,-102.5,-14.44,6.06,-0.39,0.99,-0.3,-27.75,-15.19,80.56,969.32,1313.0,0.0,0.0,0.0,0.0
1776370237939591369,44112,0.0,0.3,0.0,0.3,-0.06,-0.12,-92.81,-11.81,5.44,-0.9,0.84,0.04,-29.56,-16.44,112.31,925.24,1653.0,0.0,0.0,0.0,0.0
1776370238049951931,44212,0.008,0.2,0.0,0.3,0.0,-0.18,-80.19,-9.5,4.81,-1.74,0.85,0.79,-27.06,-8.38,141.63,11932.8,1796.0,0.0,0.0,0.0,0.0
1776370238140327367,44312,0.0,0.6,0.0,1.0,-0.1,-0.16,-65.37,-8.0,5.44,-0.76,1.13,1.49,-5.94,5.25,153.94,995.39,1796.0,0.0,0.0,0.0,0.0
1776370238250656242,44411,0.048,0.1,0.0,0.3,0.04,-0.08,-51.81,-6.69,7.88,0.16,2.09,0.01,15.69,1.25,123.25,11936.4,913.0,0.0,0.0,0.0,0.0
1776370238341024271,44511,0.0,0.2,0.0,0.9,-0.1,-0.1,-41.75,-4.81,10.0,0.51,1.78,-0.73,3.63,-0.25,94.81,945.14,913.0,0.0,0.0,0.0,0.0
1776370238439317419,44611,0.028,-0.1,0.0,0.2,-0.1,-0.08,-33.06,-3.63,10.19,-0.13,0.67,-0.7,-10.5,4.25,84.37,953.2,1274.0,0.0,0.0,0.0,0.0
1776370238541698767,44711,0.0,0.3,0.0,1.0,0.16,-0.1,-24.87,-2.06,9.38,-0.04,0.43,-0.82,-13.88,-6.75,85.31,984.75,806.0,0.0,0.0,0.0,0.0
1776370238641905022,44811,0.012,0.3,0.0,1.0,-0.06,-0.06,-16.87,-0.5,8.94,0.84,0.79,-0.15,4.0,5.5,79.31,11933.83,1851.0,0.0,0.0,0.0,0.0
1776370238748386423,44911,0.004,0.5,0.0,1.1,0.04,-0.04,-9.81,-0.88,10.75,0.26,-0.38,0.02,24.19,21.0,64.25,1017.34,1851.0,0.0,0.0,0.0,0.0
1776370238840717783,45010,0.0,0.8,0.008,0.2,0.0,-0.04,-4.25,-1.37,12.88,0.01,-1.03,0.38,14.25,14.38,50.75,893.69,2391.0,0.0,0.0,0.0,0.0
1776370238943119779,45111,0.004,0.1,0.0,0.1,0.0,0.02,0.94,-1.06,12.69,1.56,-1.02,0.56,-16.69,6.06,53.25,991.78,2391.0,0.0,0.0,0.0,0.0
1776370239041436427,45211,0.004,0.2,0.0,1.3,0.02,-0.16,5.69,-0.5,12.38,0.71,-0.4,0.41,9.75,9.13,41.38,894.72,1228.0,0.0,0.0,0.0,0.0
1776370239139729462,45310,0.0,0.3,0.0,0.3,0.14,-0.21,9.38,-0.5,12.88,-0.16,-0.52,0.11,-5.5,7.25,34.56,920.27,1228.0,0.0,0.0,0.0,0.0
1776370239242128809,45410,0.052,-0.1,0.0,1.1,-0.16,0.08,12.56,-0.31,11.56,1.16,-0.38,-0.38,-15.63,2.88,36.75,941.19,1014.0,0.0,0.0,0.0,0.0
1776370239340461234,45510,0.04,0.3,0.0,1.0,-0.08,0.0,16.69,-0.5,11.06,0.79,-0.31,-0.3,3.0,16.75,49.06,920.78,1530.0,0.0,0.0,0.0,0.0
1776370239438706120,45609,0.024,0.1,0.0,0.5,0.0,-0.04,20.81,-1.37,10.88,0.95,0.29,-0.78,6.19,14.81,35.25,947.02,1530.0,0.0,0.0,0.0,0.0
1776370239541151523,45710,0.0,0.3,0.0,0.4,0.02,-0.04,24.06,-2.44,11.31,0.22,0.45,-1.03,-0.19,16.69,29.25,886.31,1193.0,0.0,0.0,0.0,0.0
1776370239641396110,45810,0.0,1.1,0.0,0.3,0.0,0.04,26.94,-3.63,10.56,-0.71,0.23,-0.26,-20.87,17.0,28.12,11937.09,1182.0,0.0,0.0,0.0,0.0
1776370239743762846,45911,0.0,0.9,0.004,0.3,0.0,-0.2,30.31,-4.5,8.56,0.45,-0.8,0.11,-15.75,-0.88,42.56,11933.83,1462.0,0.0,0.0,0.0,0.0
1776370239852279632,46011,0.0,0.7,0.0,1.2,0.0,-0.12,33.69,-3.31,8.56,2.34,-1.01,1.4,15.75,-17.62,15.44,11934.86,1462.0,0.0,0.0,0.0,0.0
1776370239942550102,46111,0.0,1.0,0.0,0.7,0.02,0.02,33.31,-1.69,10.25,-0.5,0.26,0.4,8.5,-2.44,-14.75,857.16,1462.0,0.0,0.0,0.0,0.0
1776370240040828896,46211,0.0,0.3,0.0,1.0,0.0,-0.1,32.31,-1.94,10.31,0.33,-0.0,0.43,-5.31,3.25,0.94,837.43,1410.0,0.0,0.0,0.0,0.0
1776370240143263371,46311,0.0,0.2,0.0,1.0,-0.12,-0.1,32.88,-1.81,9.63,0.52,0.11,-0.09,-7.69,-3.25,6.5,825.43,748.0,0.0,0.0,0.0,0.0
1776370240241541664,46410,0.048,0.5,0.0,1.0,-0.1,-0.16,33.25,-1.44,9.13,-0.06,-0.27,-0.49,-1.37,-3.81,3.19,832.12,748.0,0.0,0.0,0.0,0.0
1776370240339916699,46510,0.04,0.3,0.0,0.7,0.04,-0.08,33.75,-0.75,9.0,0.47,0.24,-0.21,-2.63,-5.13,7.75,11935.54,1421.0,0.0,0.0,0.0,0.0
1776370240442222524,46610,0.0,0.4,0.0,1.0,-0.08,-0.1,34.94,-0.37,8.56,0.49,-0.04,0.13,1.88,0.44,17.0,831.09,994.0,0.0,0.0,0.0,0.0
1776370240540552373,46709,0.02,0.5,0.0,0.8,-0.06,-0.18,36.63,-0.37,8.56,0.33,-0.21,-0.24,-0.5,3.88,15.25,841.72,994.0,0.0,0.0,0.0,0.0
1776370240642943736,46809,0.012,0.0,0.0,0.5,0.12,-0.12,37.56,-0.94,8.31,0.49,-0.39,-0.25,2.0,6.94,6.06,814.11,1400.0,0.0,0.0,0.0,0.0
1776370240741239640,46910,0.012,0.4,0.0,0.3,0.02,-0.02,38.19,-1.44,8.69,-0.06,-0.36,-0.09,5.38,1.37,5.13,820.63,2090.0,0.0,0.0,0.0,0.0
1776370240839547341,47009,0.004,0.2,0.0,0.7,-0.12,-0.06,38.19,-1.37,9.06,0.19,-0.06,0.14,3.63,-3.13,-3.25,813.6,2090.0,0.0,0.0,0.0,0.0
1776370240941934149,47109,0.0,1.1,0.0,0.5,0.1,-0.16,37.56,-1.19,9.31,0.0,-0.0,-0.06,1.44,-3.13,-8.56,849.95,919.0,0.0,0.0,0.0,0.0
1776370241040243460,47210,0.0,0.3,0.0,1.1,0.04,0.02,36.63,-1.0,9.25,-0.03,0.02,-0.18,-0.69,-3.06,-11.25,863.85,919.0,0.0,0.0,0.0,0.0
1776370241142671582,47310,0.0,0.2,0.0,1.2,-0.08,-0.16,35.38,-0.94,9.38,0.03,-0.2,-0.24,3.38,-3.69,-14.0,832.8,1684.0,0.0,0.0,0.0,0.0
1776370241242867443,47410,0.0,0.3,0.0,0.6,0.0,0.02,33.75,-0.81,10.0,-0.05,-0.05,-0.14,8.0,-5.38,-17.19,11937.43,1486.0,0.0,0.0,0.0,0.0
1776370241339224108,47510,0.032,0.2,0.0,0.8,0.02,-0.23,32.0,-0.63,10.56,-0.03,-0.06,0.02,3.81,-5.81,-17.81,868.13,1486.0,0.0,0.0,0.0,0.0
1776370241441640785,47609,0.0,0.7,0.0,0.9,0.04,-0.12,30.0,-0.5,10.69,0.01,-0.17,-0.06,0.25,-6.5,-22.87,11933.14,707.0,0.0,0.0,0.0,0.0
1776370241539877927,47709,0.0,1.1,0.0,0.8,-0.06,0.0,27.75,-0.25,10.69,0.21,0.19,-0.2,1.56,-7.38,-26.5,804.68,1179.0,0.0,0.0,0.0,0.0
1776370241642345568,47810,0.004,0.4,0.0,0.8,-0.12,-0.02,24.87,-0.19,11.0,0.21,0.12,-0.23,6.44,-2.31,-27.12,804.85,1179.0,0.0,0.0,0.0,0.0
1776370241740652601,47909,0.0,0.2,0.0,1.1,-0.16,-0.12,22.62,-0.31,11.75,0.0,0.33,0.08,12.88,-3.75,-23.62,805.88,905.0,0.0,0.0,0.0,0.0
1776370241843055000,48009,0.0,0.2,0.0,0.7,0.0,-0.21,20.31,-0.44,12.81,-0.19,-0.65,0.44,7.19,-8.38,-22.87,782.55,996.0,0.0,0.0,0.0,0.0
1776370241941381106,48109,0.0,0.3,0.0,1.2,0.06,-0.06,18.37,0.5,12.94,0.0,0.52,0.15,-7.06,-20.37,-12.75,787.87,996.0,0.0,0.0,0.0,0.0
1776370242043742430,48209,0.0,0.6,0.0,0.5,0.0,-0.02,17.19,1.56,12.13,0.57,0.76,-0.44,-6.75,-0.0,-9.31,900.72,1406.0,0.0,0.0,0.0,0.0
1776370242142065832,48310,0.0,0.5,0.0,1.1,0.02,-0.2,16.62,0.81,11.81,0.57,-0.0,-0.21,7.25,13.5,-7.5,808.28,1406.0,0.0,0.0,0.0,0.0
1776370242244451877,48410,0.0,0.1,0.0,0.9,-0.16,0.02,15.94,-0.19,12.94,-0.02,-0.61,0.01,13.06,-0.31,-3.88,792.16,1054.0,0.0,0.0,0.0,0.0
1776370242342762408,48510,0.036,0.0,0.0,1.0,-0.04,-0.16,15.75,0.63,13.81,-0.44,0.81,0.38,0.37,-15.19,1.25,788.56,1329.0,0.0,0.0,0.0,0.0
1776370242445119638,48610,0.032,0.3,0.024,0.2,0.0,-0.2,15.94,1.19,13.19,0.31,0.52,-0.17,-8.5,5.94,2.31,817.2,1329.0,0.0,0.0,0.0,0.0
1776370242543435021,48710,0.0,0.1,0.0,0.9,0.04,0.0,16.31,0.5,12.63,0.36,-0.22,0.05,-3.38,3.69,4.44,823.2,1590.0,0.0,0.0,0.0,0.0
1776370242645916438,48811,0.0,0.4,0.0,1.1,-0.1,0.0,16.94,0.56,12.19,0.06,-0.02,-0.16,-4.56,-2.19,9.69,809.48,928.0,0.0,0.0,0.0,0.0
1776370242744201987,48912,0.004,0.2,0.0,0.7,-0.04,-0.21,17.87,0.75,11.75,0.12,0.09,-0.06,-3.5,3.94,9.25,861.96,928.0,0.0,0.0,0.0,0.0
1776370242844359457,49011,0.004,0.2,0.0,0.9,-0.1,-0.14,18.87,0.63,11.44,0.14,-0.18,-0.16,-1.06,0.88,12.25,11934.0,906.0,0.0,0.0,0.0,0.0
1776370242944846118,49111,0.0,0.4,0.0,1.1,0.02,0.08,20.12,0.81,11.31,0.03,0.02,-0.09,-1.31,-0.56,12.0,818.91,753.0,0.0,0.0,0.0,0.0
1776370243043151611,49212,0.0,0.0,0.0,0.3,0.08,-0.08,21.19,1.0,11.25,-0.08,0.01,-0.04,-0.63,3.0,10.5,796.96,753.0,0.0,0.0,0.0,0.0
1776370243145554341,49311,0.0,0.1,0.0,0.5,-0.02,-0.12,22.25,0.81,11.06,0.55,0.16,-0.2,-0.0,6.94,8.75,793.7,1148.0,0.0,0.0,0.0,0.0
1776370243243850092,49412,0.048,0.2,0.0,0.8,0.0,0.04,22.87,0.56,11.44,-0.22,-0.33,-0.5,8.94,-0.94,4.25,786.67,1235.0,0.0,0.0,0.0,0.0
1776370243346251988,49512,0.032,0.2,0.0,0.9,0.04,-0.14,22.62,0.88,12.69,-0.35,-0.16,0.08,10.31,-7.44,-8.56,815.31,1235.0,0.0,0.0,0.0,0.0
1776370243444573444,49611,0.0,0.1,0.0,0.4,-0.04,-0.02,21.75,1.44,13.38,0.46,0.14,0.1,4.63,-8.25,-5.63,817.03,1887.0,0.0,0.0,0.0,0.0
1776370243546971099,49712,0.008,0.1,0.0,0.7,-0.02,-0.1,21.5,2.06,13.69,0.14,0.25,0.14,5.13,-3.13,-0.12,808.28,1887.0,0.0,0.0,0.0,0.0
1776370243645242813,49812,0.0,0.3,0.0,0.6,-0.04,-0.21,21.5,2.0,14.0,-0.24,-0.18,0.05,-0.19,2.38,-1.63,773.64,1474.0,0.0,0.0,0.0,0.0
1776370243753628645,49912,0.0,0.3,0.0,0.8,-0.08,0.04,21.06,1.5,13.88,-0.04,-0.38,-0.11,-2.06,1.56,-6.75,771.75,900.0,0.0,0.0,0.0,0.0
1776370243845968238,50012,0.0,0.2,0.0,0.3,-0.06,-0.12,20.31,1.56,13.81,0.11,0.02,-0.01,-0.69,-7.13,-6.56,843.44,900.0,0.0,0.0,0.0,0.0
1776370243946242653,50112,0.0,0.1,0.0,1.0,0.02,0.04,19.81,2.38,13.69,-0.16,0.28,0.25,-3.31,-9.5,-2.06,11933.48,652.0,0.0,0.0,0.0,0.0
1776370244046664922,50212,0.0,0.1,0.0,0.4,-0.14,-0.08,19.81,3.44,13.0,0.0,0.25,0.0,-11.19,-8.75,5.44,800.22,2504.0,0.0,0.0,0.0,0.0
1776370244149077817,50313,0.0,0.2,0.0,0.3,0.0,-0.04,20.69,4.44,11.81,0.19,0.49,-0.18,-10.0,-2.44,11.94,816.0,2504.0,0.0,0.0,0.0,0.0
