timestamp_ns,time_ms,voltage_left,current_left_ma,voltage_right,current_right_ma,motor_current_left,motor_current_right,euler_x,euler_y,euler_z,acc_lin_x,acc_lin_y,acc_lin_z,gyro_x,gyro_y,gyro_z,sonar_mm,tof_mm,rpm_left,rpm_right,rotations_left,rotations_right
1776450657498405154,75438,4.0,-0.35,0.0,0.0,0.06,166.36,-196.0,-0.0,0.0,0.0,-0.0,190.0,-0.0,-0.0,0.0,0.0,,,,,
1776450660312810050,78442,0.0,0.2,0.076,0.2,-0.06,-0.08,0.06,0.63,5.31,0.04,-0.0,-0.35,-0.0,-0.0,0.06,166.36,196.0,0.0,0.0,0.0,
1776450660406787495,1904,0.0,0.7,0.0,1.4,0.0,-0.16,0.06,0.5,5.25,0.01,-0.01,-0.32,-0.06,0.19,-0.06,170.47,198.0,0.0,0.0,0.0,0.0
1776450660505103145,2003,0.104,0.2,0.0,0.6,0.04,0.06,0.06,0.5,5.25,0.0,-0.0,-0.33,-0.06,-0.12,0.06,166.36,193.0,0.0,0.0,0.0,0.0
1776450660603408795,2103,0.0,1.3,0.096,0.1,-0.06,-0.02,0.06,0.5,5.25,0.02,-0.0,-0.34,-0.0,-0.0,0.0,166.36,193.0,0.0,0.0,0.0,0.0
1776450660705863780,2203,0.0,1.1,0.084,0.1,-0.02,0.12,0.06,0.5,5.25,0.01,-0.01,-0.35,-0.0,0.06,0.06,166.36,191.0,0.0,0.0,0.0,0.0
1776450660804128153,2302,0.0,0.7,0.0,0.3,-0.16,0.14,0.06,0.5,5.25,0.0,0.01,-0.35,0.06,0.06,0.0,166.36,195.0,0.0,0.0,0.0,0.0
1776450660906523434,2403,0.0,0.3,0.056,0.6,0.08,-0.14,0.06,0.5,5.25,0.01,-0.0,-0.34,0.06,-0.12,0.0,166.36,195.0,0.0,0.0,0.0,0.0
1776450661004809251,2503,0.1,0.1,0.0,0.7,-0.04,-0.04,0.06,0.5,5.25,0.01,-0.0,-0.35,0.06,-0.0,0.06,166.36,191.0,0.0,0.0,0.0,0.0
1776450661107220551,2604,0.0,1.1,0.0,1.2,-0.08,-0.18,0.06,0.5,5.25,0.01,0.02,-0.33,-0.06,-0.06,0.12,169.96,194.0,0.0,0.0,0.0,0.0
1776450661205511701,2704,0.0,0.9,0.076,0.3,-0.06,-0.04,0.06,0.5,5.25,0.01,-0.0,-0.34,-0.0,-0.12,-0.12,169.96,194.0,0.0,0.0,0.0,0.0
1776450661307962520,2804,0.0,1.0,0.088,0.6,0.0,0.0,0.06,0.5,5.25,0.01,-0.01,-0.32,-0.0,-0.12,0.06,166.36,200.0,0.0,0.0,0.0,0.0
1776450661406188540,2904,0.0,0.7,0.0,1.4,0.08,-0.02,0.06,0.5,5.25,0.01,-0.0,-0.33,-0.12,-0.0,-0.06,169.96,196.0,0.0,0.0,0.0,0.0
1776450661508592062,3004,0.0,0.2,0.0,0.1,-0.12,-0.14,0.06,0.5,5.25,0.02,-0.0,-0.32,-0.06,0.12,0.06,170.47,196.0,0.0,0.0,0.0,0.0
1776450661606918324,3104,0.0,0.9,0.08,0.6,-0.12,-0.04,0.06,0.5,5.25,0.02,-0.01,-0.33,0.12,-0.06,-0.06,169.96,193.0,0.0,0.0,0.0,0.0
1776450661705214418,3204,0.0,0.6,0.072,0.5,0.14,-0.02,0.06,0.5,5.25,0.0,-0.0,-0.34,-0.06,-0.12,0.0,169.96,193.0,0.0,0.0,0.0,0.0
1776450661807608051,3304,0.0,0.9,0.0,1.6,0.0,0.0,0.06,0.5,5.25,0.01,-0.01,-0.35,-0.06,-0.0,-0.06,169.96,194.0,0.0,0.0,0.0,0.0
1776450661905910868,3404,0.1,0.2,0.0,1.4,-0.08,-0.1,0.06,0.5,5.25,0.01,-0.0,-0.34,-0.0,0.19,0.0,166.36,196.0,0.0,0.0,0.0,0.0
1776450662600255014,3504,0.1,1.2,0.084,0.4,-0.02,-0.1,0.06,0.5,5.25,0.01,0.01,-0.33,0.06,-0.12,0.0,166.36,196.0,0.0,0.0,0.0,0.0
1776450662606293572,3605,0.0,0.9,0.076,0.6,-0.04,-0.04,0.06,0.5,5.25,0.02,-0.0,-0.35,-0.0,0.06,-0.06,165.67,198.0,0.0,0.0,0.0,0.0
1776450662610393889,3704,0.0,1.1,0.084,0.3,-0.1,0.14,0.06,0.5,5.25,0.0,-0.01,-0.33,0.06,0.06,0.0,166.36,197.0,0.0,0.0,0.0,0.0
1776450662622149616,3805,0.0,0.6,0.072,0.3,-0.14,-0.06,0.06,0.5,5.25,0.0,-0.0,-0.33,-0.0,-0.0,0.0,166.36,197.0,0.0,0.0,0.0,0.0
1776450662635302417,3905,0.0,0.7,0.072,0.3,-0.02,-0.04,0.06,0.5,5.25,0.01,-0.02,-0.34,-0.06,-0.0,0.0,165.67,180.0,0.0,0.0,0.0,0.0
1776450662708703132,4005,0.0,0.9,0.068,0.6,-0.08,0.0,0.06,0.5,5.25,0.01,0.01,-0.35,0.06,-0.0,0.0,165.84,180.0,0.0,0.0,0.0,0.0
1776450662721168859,4105,0.0,1.4,0.0,1.2,-0.02,-0.06,0.06,0.5,5.25,0.01,-0.0,-0.33,0.06,-0.19,0.12,165.67,199.0,0.0,0.0,0.0,0.0
1776450662733694512,4205,0.1,0.3,0.0,0.4,-0.16,-0.06,0.06,0.5,5.25,0.0,-0.0,-0.32,-0.12,-0.12,0.06,169.96,198.0,0.0,0.0,0.0,0.0
1776450662806988208,4304,0.0,0.9,0.072,0.7,0.02,-0.12,0.06,0.5,5.25,0.01,-0.0,-0.33,-0.06,-0.12,0.06,165.84,198.0,0.0,0.0,0.0,0.0
1776450662909391878,4405,0.0,0.0,0.0,1.2,0.06,0.04,0.06,0.5,5.25,0.02,-0.0,-0.34,-0.12,0.06,-0.06,165.84,188.0,0.0,0.0,0.0,0.0
1776450663007693417,4505,0.108,0.1,0.0,0.8,0.14,-0.2,0.06,0.5,5.25,0.01,-0.01,-0.32,-0.06,0.12,-0.06,166.87,189.0,0.0,0.0,0.0,0.0
1776450663110107828,4605,0.1,0.1,0.0,1.1,0.1,0.0,0.06,0.5,5.25,0.02,-0.01,-0.3,-0.06,0.06,0.0,165.84,189.0,0.0,0.0,0.0,0.0
1776450663524209881,4705,0.0,0.9,0.084,0.2,0.04,-0.04,0.06,0.5,5.25,0.02,0.01,-0.33,0.06,-0.0,0.12,165.84,192.0,0.0,0.0,0.0,0.0
1776450663527937457,4805,0.0,0.9,0.084,0.5,0.14,-0.12,0.06,0.5,5.25,0.02,-0.01,-0.33,0.12,0.06,0.0,165.84,198.0,0.0,0.0,0.0,0.0
1776450663531965088,4904,0.096,0.0,0.0,1.3,0.02,-0.06,0.06,0.5,5.25,0.01,-0.0,-0.32,-0.0,0.25,-0.06,169.96,198.0,0.0,0.0,0.0,0.0
1776450663545652834,5005,0.1,1.0,0.08,0.5,-0.1,-0.04,0.06,0.5,5.25,0.0,-0.0,-0.31,0.06,0.06,0.12,169.96,193.0,0.0,0.0,0.0,0.0
1776450663609790637,5105,0.0,0.9,0.08,0.2,-0.02,0.0,0.06,0.5,5.25,0.0,-0.0,-0.31,0.06,-0.12,-0.06,165.67,193.0,0.0,0.0,0.0,0.0
1776450663712199123,5206,0.0,0.7,0.076,0.6,0.0,0.0,0.06,0.5,5.25,0.0,-0.01,-0.34,0.06,0.06,0.06,166.36,193.0,0.0,0.0,0.0,0.0
1776450663810480643,5306,0.0,0.3,0.0,1.4,-0.14,-0.1,0.06,0.5,5.25,0.02,-0.01,-0.33,-0.0,-0.06,-0.06,165.84,183.0,0.0,0.0,0.0,0.0
1776450663908773941,5406,0.0,1.4,0.08,0.5,-0.04,-0.18,0.06,0.5,5.25,0.03,-0.01,-0.32,0.12,0.12,-0.06,165.84,183.0,0.0,0.0,0.0,0.0
1776450664011172260,5507,0.0,1.0,0.084,0.4,0.08,-0.04,0.06,0.5,5.25,0.03,-0.0,-0.34,-0.0,0.12,0.0,165.84,199.0,0.0,0.0,0.0,0.0
1776450664109475040,5607,0.0,0.9,0.076,0.4,0.08,-0.08,0.06,0.5,5.25,0.02,-0.01,-0.31,-0.0,0.06,0.0,165.84,191.0,0.0,0.0,0.0,0.0
1776450664211871284,5706,0.0,0.9,0.0,1.5,0.1,-0.04,0.06,0.5,5.25,0.0,-0.01,-0.32,0.06,-0.06,0.0,165.67,191.0,0.0,0.0,0.0,0.0
1776450664310186805,5806,0.1,0.0,0.0,1.3,0.0,-0.06,0.06,0.5,5.25,0.01,-0.01,-0.35,0.12,0.12,0.06,165.67,200.0,0.0,0.0,0.0,0.0
1776450664408436066,5906,0.0,0.9,0.076,0.7,-0.1,-0.06,0.06,0.5,5.25,0.01,-0.0,-0.32,-0.12,0.12,-0.06,166.36,194.0,0.0,0.0,0.0,0.0
1776450664510862569,6005,0.0,1.1,0.0,1.6,0.16,0.0,0.06,0.5,5.25,0.02,-0.0,-0.35,0.06,-0.0,-0.06,165.84,194.0,0.0,0.0,0.0,0.0
1776450664609175534,6105,0.0,1.2,0.08,0.2,0.0,0.04,0.06,0.5,5.25,0.02,-0.01,-0.34,-0.0,0.06,0.0,166.87,198.0,0.0,0.0,0.0,0.0
1776450664711583723,6206,0.0,0.5,0.0,1.1,-0.1,0.06,0.06,0.5,5.25,0.01,-0.0,-0.32,-0.0,-0.06,0.06,164.81,197.0,0.0,0.0,0.0,0.0
1776450664809864503,6305,0.1,0.4,0.0,1.6,0.06,-0.04,0.06,0.5,5.25,0.01,-0.0,-0.34,-0.0,-0.12,0.12,165.67,197.0,0.0,0.0,0.0,0.0
1776450664912274358,6405,0.104,0.1,0.0,1.4,-0.02,-0.2,0.06,0.5,5.25,0.0,-0.01,-0.35,0.12,-0.06,0.12,166.87,195.0,0.0,0.0,0.0,0.0
1776450665010571027,6506,0.096,0.3,0.0,0.5,-0.12,-0.14,0.06,0.5,5.25,0.03,-0.0,-0.33,0.12,-0.0,0.0,166.36,195.0,0.0,0.0,0.0,0.0
1776450665118944681,6606,0.0,0.3,0.0,1.1,0.0,-0.18,0.06,0.5,5.25,0.01,-0.0,-0.33,-0.06,0.12,-0.06,165.67,197.0,0.0,0.0,0.0,0.0
1776450665211279662,6706,0.096,0.1,0.0,1.3,0.0,-0.1,0.06,0.5,5.25,0.01,-0.0,-0.34,0.06,-0.0,0.06,166.87,186.0,0.0,0.0,0.0,0.0
1776450665309537535,6807,0.0,1.0,0.08,0.3,0.04,-0.06,0.06,0.5,5.25,0.02,-0.0,-0.33,-0.0,0.12,0.12,165.67,186.0,0.0,0.0,0.0,0.0
1776450665411935649,6906,0.0,0.1,0.0,1.5,-0.06,0.0,0.06,0.5,5.25,0.01,-0.0,-0.33,0.06,-0.0,0.06,165.67,203.0,0.0,0.0,0.0,0.0
1776450665510208077,7006,0.1,1.4,0.08,0.5,-0.12,-0.1,0.06,0.5,5.25,0.0,0.01,-0.33,0.06,-0.06,-0.06,165.67,179.0,0.0,0.0,0.0,0.0
1776450665612668396,7107,0.0,1.3,0.092,0.2,-0.02,-0.16,0.06,0.5,5.25,0.01,-0.0,-0.33,-0.0,-0.0,0.06,165.84,179.0,0.0,0.0,0.0,0.0
1776450665710965731,7206,0.0,0.2,0.0,1.3,0.08,-0.06,0.06,0.5,5.25,0.01,0.02,-0.33,0.12,-0.12,0.0,165.84,191.0,0.0,0.0,0.0,0.0
1776450665813374401,7306,0.0,0.9,0.076,0.1,-0.04,-0.12,0.06,0.5,5.25,0.01,0.01,-0.32,-0.12,0.06,0.06,165.84,198.0,0.0,0.0,0.0,0.0
1776450665911663126,7407,0.0,0.3,0.0,1.6,0.1,-0.1,0.06,0.5,5.25,0.01,-0.0,-0.35,-0.0,-0.0,-0.06,165.84,198.0,0.0,0.0,0.0,0.0
1776450666014048518,7506,0.1,0.2,0.0,1.4,-0.02,-0.08,0.06,0.5,5.25,0.0,-0.0,-0.35,0.06,-0.06,-0.06,165.84,200.0,0.0,0.0,0.0,0.0
1776450666112357354,7607,0.0,0.2,0.0,1.1,-0.08,-0.02,0.06,0.5,5.25,0.01,-0.0,-0.31,-0.0,0.06,0.0,166.36,200.0,0.0,0.0,0.0,0.0
1776450666214755320,7708,0.104,0.2,0.0,1.5,-0.04,0.02,0.06,0.5,5.25,0.0,-0.0,-0.33,-0.0,0.06,0.0,165.67,198.0,0.0,0.0,0.0,0.0
1776450666313057285,7808,0.096,0.4,0.0,1.7,-0.21,0.02,0.06,0.5,5.25,0.01,-0.02,-0.32,0.06,-0.06,-0.19,165.67,192.0,0.0,0.0,0.0,0.0
1776450666415461344,7909,0.1,0.0,0.08,0.3,0.12,-0.16,0.06,0.5,5.25,0.01,-0.0,-0.32,-0.06,-0.19,0.0,165.84,192.0,0.0,0.0,0.0,0.0
1776450666513718809,8009,0.0,1.4,0.0,0.5,0.04,-0.06,0.06,0.5,5.25,0.01,-0.01,-0.31,-0.0,-0.06,0.06,165.84,195.0,0.0,0.0,0.0,0.0
1776450666616176572,8109,0.0,0.7,0.0,1.5,0.04,-0.1,0.06,0.5,5.25,0.01,-0.0,-0.34,0.06,0.06,0.12,165.67,190.0,0.0,0.0,0.0,0.0
1776450666714447426,8209,0.0,0.3,0.0,0.9,-0.12,0.0,0.06,0.5,5.25,0.01,-0.0,-0.35,-0.06,-0.0,-0.06,165.84,190.0,0.0,0.0,0.0,0.0
1776450666816842800,8309,0.1,0.4,0.08,0.3,-0.02,-0.02,0.06,0.5,5.25,0.0,-0.0,-0.36,-0.0,0.06,0.0,165.84,196.0,0.0,0.0,0.0,0.0
1776450666915153432,8410,0.0,1.2,0.0,0.3,0.02,0.06,0.06,0.5,5.25,0.02,0.01,-0.32,-0.0,-0.19,-0.06,166.36,192.0,0.0,0.0,0.0,0.0
1776450667017539954,8510,0.0,0.2,0.0,1.4,-0.04,0.0,0.06,0.5,5.25,0.01,-0.0,-0.35,-0.0,-0.0,0.12,166.53,192.0,0.0,0.0,0.0,0.0
1776450667115845993,8610,0.096,0.4,0.0,1.5,0.08,-0.21,0.06,0.5,5.25,0.01,-0.0,-0.35,-0.06,-0.19,0.0,170.64,185.0,0.0,0.0,0.0,0.0
1776450667218235385,8710,0.0,0.0,0.0,0.3,-0.1,-0.04,0.06,0.5,5.25,0.01,-0.0,-0.34,-0.12,0.12,0.0,166.36,185.0,0.0,0.0,0.0,0.0
1776450667316549128,8811,0.0,0.9,0.0,1.3,0.04,0.0,0.06,0.5,5.25,0.01,-0.0,-0.35,-0.0,-0.0,0.06,166.36,192.0,0.0,0.0,0.0,0.0
1776450667418887428,8911,0.1,0.2,0.072,0.7,-0.02,-0.12,0.06,0.5,5.25,0.0,0.01,-0.32,-0.12,0.25,-0.19,166.36,196.0,0.0,0.0,0.0,0.0
1776450667517203096,9011,0.0,0.5,0.08,0.2,0.02,-0.08,0.06,0.5,5.25,0.02,-0.0,-0.34,-0.06,-0.0,0.06,170.47,196.0,0.0,0.0,0.0,0.0
1776450667619636248,9112,0.0,0.7,0.068,0.3,-0.1,-0.08,0.06,0.5,5.25,0.0,-0.0,-0.34,-0.0,-0.0,0.0,166.36,186.0,0.0,0.0,0.0,0.0
1776450667717932843,9211,0.1,0.2,0.076,0.1,0.02,-0.08,0.06,0.5,5.25,0.01,-0.01,-0.31,0.06,-0.12,0.06,166.53,192.0,0.0,0.0,0.0,0.0
1776450667820334106,9312,0.0,1.3,0.08,0.5,-0.1,-0.12,0.06,0.5,5.25,0.0,-0.0,-0.34,0.06,0.06,-0.06,166.36,192.0,0.0,0.0,0.0,0.0
1776450668764225703,9412,0.0,0.9,0.0,1.2,0.04,-0.18,0.06,0.5,5.25,0.01,-0.0,-0.32,0.06,-0.0,0.06,166.36,188.0,0.0,0.0,0.0,0.0
1776450668767884871,9511,0.096,0.2,0.0,1.1,0.0,-0.23,0.06,0.5,5.25,0.01,-0.0,-0.35,-0.0,0.19,0.0,166.36,190.0,0.0,0.0,0.0,0.0
1776450668819735706,9611,0.1,0.7,0.072,0.4,0.04,-0.08,0.06,0.5,5.25,-0.01,0.01,-0.35,-0.0,0.12,-0.06,166.36,190.0,0.0,0.0,0.0,0.0
1776450668833375526,9711,0.096,0.3,0.0,1.5,-0.02,-0.04,0.06,0.5,5.25,-0.01,-0.0,-0.33,-0.12,-0.0,0.0,169.96,201.0,0.0,0.0,0.0,0.0
1776450668845309679,9811,0.104,-0.1,0.0,0.6,0.1,-0.1,0.06,0.5,5.25,0.01,-0.0,-0.32,-0.06,-0.06,0.06,166.36,185.0,0.0,0.0,0.0,0.0
1776450668922124580,9912,0.0,1.3,0.088,0.3,0.1,-0.14,0.06,0.5,5.25,0.01,-0.0,-0.36,0.06,-0.0,0.0,166.36,185.0,0.0,0.0,0.0,0.0
1776450668934463381,10013,0.0,1.4,0.08,0.6,-0.06,-0.1,0.06,0.5,5.25,0.01,-0.0,-0.34,0.06,0.06,-0.06,166.36,194.0,0.0,0.0,0.0,0.0
1776450668946026108,10113,0.0,1.1,0.0,0.9,0.1,-0.06,0.06,0.5,5.25,0.01,-0.0,-0.32,0.06,-0.12,0.0,169.96,194.0,0.0,0.0,0.0,0.0
1776450668958153928,10213,0.0,0.9,0.076,0.2,0.02,0.04,0.06,0.5,5.25,0.03,-0.01,-0.35,-0.0,0.12,0.06,165.84,193.0,0.0,0.0,0.0,0.0
1776450669020387415,10313,0.0,1.0,0.0,1.2,0.04,0.04,0.06,0.5,5.25,0.0,0.01,-0.34,0.12,-0.06,0.0,165.84,191.0,0.0,0.0,0.0,0.0
1776450669032556068,10414,0.1,0.1,0.0,1.0,0.0,-0.02,0.06,0.5,5.25,0.03,-0.0,-0.33,0.06,-0.0,0.0,166.87,191.0,0.0,0.0,0.0,0.0
1776450669045801148,10515,0.0,0.2,0.084,0.3,0.0,-0.12,0.06,0.5,5.25,0.03,-0.01,-0.34,-0.0,0.06,0.0,165.84,197.0,0.0,0.0,0.0,0.0
1776450669122808030,10614,0.0,0.2,0.0,1.1,0.08,0.1,0.06,0.5,5.25,0.01,0.01,-0.36,-0.0,-0.06,-0.06,165.84,196.0,0.0,0.0,0.0,0.0
1776450669221111180,10714,0.0,-0.1,0.0,1.1,-0.1,-0.04,0.06,0.5,5.25,0.03,-0.0,-0.35,-0.0,-0.06,0.12,165.84,196.0,0.0,0.0,0.0,0.0
1776450669323511369,10814,0.0,1.1,0.0,1.2,0.04,-0.18,0.06,0.5,5.25,0.03,-0.01,-0.36,-0.0,-0.0,0.0,166.87,186.0,0.0,0.0,0.0,0.0
1776450669421814797,10914,0.0,0.7,0.0,1.5,0.0,-0.12,0.06,0.5,5.25,0.01,-0.0,-0.34,-0.0,-0.06,0.06,169.96,195.0,0.0,0.0,0.0,0.0
1776450669524200152,11014,0.096,0.0,0.0,1.6,0.06,-0.02,0.06,0.5,5.25,0.0,-0.0,-0.33,0.06,-0.12,-0.06,167.38,195.0,0.0,0.0,0.0,0.0
1776450669622516284,11115,0.1,0.3,0.0,1.7,-0.14,-0.12,0.06,0.5,5.25,0.02,-0.0,-0.35,0.12,-0.0,0.06,166.36,190.0,0.0,0.0,0.0,0.0
1776450669720820008,11214,0.096,0.3,0.0,1.4,0.14,0.0,0.06,0.5,5.25,0.0,-0.0,-0.34,-0.12,0.12,0.06,166.36,190.0,0.0,0.0,0.0,0.0
1776450669823224030,11315,0.0,1.2,0.0,0.8,0.0,0.02,0.06,0.5,5.25,0.01,-0.0,-0.32,0.06,0.06,0.0,166.36,185.0,0.0,0.0,0.0,0.0
1776450669925603812,11416,0.0,0.7,0.0,1.4,-0.02,0.0,0.06,0.5,5.25,0.01,-0.0,-0.35,-0.0,0.12,0.12,166.36,190.0,0.0,0.0,0.0,0.0
1776450670023909999,11516,0.104,-0.1,0.0,1.6,-0.14,-0.02,0.06,0.5,5.25,0.02,-0.0,-0.33,0.06,-0.19,0.06,166.36,190.0,0.0,0.0,0.0,0.0
1776450670126314336,11616,0.0,0.2,0.0,0.6,0.0,-0.02,0.06,0.5,5.25,0.03,-0.0,-0.35,0.06,0.12,-0.06,166.36,193.0,0.0,0.0,0.0,0.0
1776450670224620949,11716,0.0,0.7,0.076,0.4,-0.06,-0.2,0.06,0.5,5.25,0.02,-0.0,-0.34,-0.0,-0.06,-0.06,166.36,191.0,0.0,0.0,0.0,0.0
1776450670322871970,11815,0.0,0.7,0.0,1.7,-0.06,-0.16,0.06,0.5,5.25,0.01,-0.01,-0.32,-0.0,-0.06,0.06,166.36,191.0,0.0,0.0,0.0,0.0
1776450670425268658,11915,0.0,0.2,0.0,1.2,0.04,-0.04,0.06,0.5,5.25,0.01,-0.01,-0.34,-0.06,0.06,0.06,170.47,193.0,0.0,0.0,0.0,0.0
1776450670523563808,12016,0.1,0.2,0.0,1.3,-0.04,-0.1,0.06,0.5,5.25,0.03,-0.0,-0.35,-0.12,0.06,0.0,170.47,190.0,0.0,0.0,0.0,0.0
1776450670626007386,12115,0.096,0.1,0.0,1.1,-0.04,-0.12,0.06,0.5,5.25,0.01,-0.0,-0.35,-0.06,0.12,0.0,166.36,190.0,0.0,0.0,0.0,0.0
1776450670724333870,12215,0.1,0.4,0.0,1.3,0.06,0.0,0.06,0.5,5.25,0.01,-0.0,-0.35,0.06,-0.06,0.0,166.36,193.0,0.0,0.0,0.0,0.0
1776450670832668913,12316,0.1,0.2,0.08,0.4,0.0,-0.1,0.06,0.5,5.25,0.01,-0.0,-0.34,0.12,-0.0,-0.06,164.81,184.0,0.0,0.0,0.0,0.0
1776450670925502172,12416,0.0,0.8,0.08,0.3,0.04,-0.08,0.06,0.5,5.25,0.02,-0.01,-0.35,-0.0,0.06,-0.19,169.96,184.0,0.0,0.0,0.0,0.0
1776450671023242285,12517,0.0,1.1,0.08,0.2,0.06,-0.06,0.06,0.5,5.25,0.0,-0.0,-0.35,-0.0,0.25,0.06,165.67,194.0,0.0,0.0,0.0,0.0
1776450671125692066,12616,0.0,0.9,0.076,0.3,0.06,0.0,0.06,0.5,5.25,0.02,-0.0,-0.35,-0.0,0.12,0.12,166.36,194.0,0.0,0.0,0.0,0.0
1776450671228093588,12717,0.104,0.2,0.072,0.3,0.18,-0.1,0.06,0.5,5.25,0.02,-0.01,-0.35,0.06,-0.06,0.06,166.36,194.0,0.0,0.0,0.0,0.0
1776450671326440534,12817,0.0,0.9,0.0,1.2,0.0,-0.08,0.06,0.5,5.25,0.0,0.01,-0.35,0.12,0.06,0.0,166.36,194.0,0.0,0.0,0.0,0.0
1776450671424625351,12917,0.1,0.0,0.0,1.2,0.02,-0.06,0.06,0.5,5.25,0.02,-0.01,-0.35,-0.06,-0.0,0.06,166.36,194.0,0.0,0.0,0.0,0.0
1776450671527046077,13018,0.096,0.1,0.0,1.2,0.08,-0.12,0.06,0.5,5.25,0.02,-0.0,-0.35,0.06,0.06,0.0,166.36,198.0,0.0,0.0,0.0,0.0
1776450671629502914,13119,0.104,0.1,0.0,1.2,0.0,0.02,0.06,0.5,5.25,0.01,-0.0,-0.3,-0.06,0.12,0.0,169.96,198.0,0.0,0.0,0.0,0.0
1776450671727789397,13218,0.0,1.0,0.076,0.4,0.0,-0.08,0.06,0.5,5.25,0.01,-0.01,-0.34,-0.0,-0.12,0.0,167.38,198.0,0.0,0.0,0.0,0.0
1776450671830196086,13319,0.096,0.1,0.0,1.4,-0.08,-0.18,0.06,0.5,5.25,0.03,-0.0,-0.34,0.06,-0.12,-0.12,167.38,196.0,0.0,0.0,0.0,0.0
1776450671928509699,13420,0.108,0.2,0.0,1.6,-0.14,-0.1,0.06,0.5,5.25,0.01,-0.0,-0.33,-0.0,-0.12,-0.06,166.36,196.0,0.0,0.0,0.0,0.0
1776450672030879981,13519,0.096,0.4,0.0,1.7,-0.02,-0.06,0.06,0.5,5.25,0.01,-0.0,-0.34,-0.0,-0.0,0.0,166.36,201.0,0.0,0.0,0.0,0.0
1776450672129171223,13620,0.0,1.4,0.08,0.2,0.02,-0.08,0.06,0.5,5.25,0.01,-0.0,-0.34,0.19,-0.0,0.06,166.36,198.0,0.0,0.0,0.0,0.0
1776450672231589338,13721,0.0,0.3,0.0,1.4,-0.04,0.06,0.06,0.5,5.25,0.01,-0.0,-0.35,-0.06,-0.19,-0.06,166.36,198.0,0.0,0.0,0.0,0.0
1776450672329884451,13820,0.0,1.3,0.08,0.3,0.04,-0.04,0.06,0.5,5.25,0.01,-0.03,-0.36,-0.06,-0.0,0.0,166.36,191.0,0.0,0.0,0.0,0.0
1776450672432271455,13921,0.0,1.4,0.08,0.3,0.04,-0.02,0.06,0.5,5.25,0.02,-0.0,-0.33,0.06,0.06,0.0,166.36,188.0,0.0,0.0,0.0,0.0
1776450672530557160,14022,0.096,0.1,0.0,1.1,-0.04,-0.2,0.06,0.5,5.25,0.01,-0.01,-0.31,-0.0,-0.0,0.06,166.36,188.0,0.0,0.0,0.0,0.0
1776450672638926203,14121,0.0,0.7,0.072,0.2,-0.02,-0.02,0.06,0.5,5.25,0.0,-0.01,-0.36,-0.0,-0.0,0.0,166.36,199.0,0.0,0.0,0.0,0.0
1776450672731274036,14221,0.1,0.1,0.0,1.6,-0.04,-0.04,0.06,0.5,5.25,0.02,-0.0,-0.35,0.12,0.06,0.0,166.36,194.0,0.0,0.0,0.0,0.0
1776450672829518890,14321,0.104,0.1,0.0,0.5,0.02,0.04,0.06,0.5,5.25,0.01,-0.0,-0.35,-0.06,0.06,0.12,167.04,194.0,0.0,0.0,0.0,0.0
1776450672931964172,14422,0.0,1.4,0.084,0.2,-0.1,-0.1,0.06,0.5,5.25,0.0,-0.0,-0.33,-0.12,-0.06,0.06,166.36,187.0,0.0,0.0,0.0,0.0
1776450673030234062,14522,0.0,1.0,0.088,0.4,0.06,-0.04,0.06,0.5,5.25,0.01,-0.0,-0.35,-0.0,-0.06,0.0,171.16,197.0,0.0,0.0,0.0,0.0
1776450673132680714,14621,0.0,1.3,0.0,1.1,0.14,-0.08,0.06,0.5,5.25,0.02,-0.01,-0.33,-0.0,0.06,0.0,170.47,197.0,0.0,0.0,0.0,0.0
1776450673230970420,14721,0.0,0.9,0.0,0.3,-0.02,-0.06,0.06,0.5,5.25,0.02,-0.01,-0.34,-0.0,-0.06,0.06,166.36,191.0,0.0,0.0,0.0,0.0
1776450673333371498,14822,0.0,1.1,0.076,0.1,0.2,-0.04,0.06,0.5,5.25,0.0,-0.02,-0.35,-0.12,-0.0,0.0,166.36,191.0,0.0,0.0,0.0,0.0
1776450673431692463,14922,0.0,1.5,0.0,1.2,0.08,-0.06,0.06,0.5,5.25,0.01,-0.02,-0.35,-0.06,-0.12,0.0,166.36,191.0,0.0,0.0,0.0,0.0
1776450673534018392,15022,0.0,0.1,0.0,1.3,0.12,-0.08,0.06,0.5,5.25,0.01,-0.0,-0.36,-0.12,-0.12,0.0,166.36,198.0,0.0,0.0,0.0,0.0
1776450673632368894,15122,0.0,1.2,0.084,0.4,-0.02,-0.02,0.06,0.5,5.25,0.01,-0.0,-0.36,-0.12,-0.19,0.0,166.36,198.0,0.0,0.0,0.0,0.0
1776450673734769231,15222,0.0,0.8,0.08,0.2,0.08,-0.12,0.06,0.5,5.25,0.01,-0.0,-0.34,-0.0,-0.0,-0.12,166.36,193.0,0.0,0.0,0.0,0.0
1776450673833052992,15323,0.0,1.0,0.0,1.4,-0.12,-0.02,0.06,0.5,5.25,0.03,-0.0,-0.35,0.12,0.06,0.06,166.36,198.0,0.0,0.0,0.0,0.0
1776450673931315179,15423,0.0,0.2,0.0,1.2,-0.08,0.0,0.06,0.5,5.25,0.01,-0.0,-0.35,-0.12,0.06,0.06,166.36,198.0,0.0,0.0,0.0,0.0
1776450674033813757,15522,0.1,0.3,0.084,0.3,0.02,-0.1,0.06,0.5,5.25,0.02,-0.0,-0.38,0.06,0.12,0.06,170.64,198.0,0.0,0.0,0.0,0.0
1776450674132007296,15622,0.0,1.0,0.076,0.1,0.1,0.02,0.06,0.5,5.25,0.02,-0.0,-0.36,-0.0,-0.06,0.06,166.36,194.0,0.0,0.0,0.0,0.0
1776450674234450651,15722,0.0,1.0,0.076,0.5,0.06,-0.12,0.06,0.5,5.25,0.01,-0.0,-0.35,0.06,-0.06,-0.06,166.36,194.0,0.0,0.0,0.0,0.0
1776450674332773968,15821,0.0,0.8,0.0,1.7,-0.06,-0.12,0.06,0.5,5.25,0.01,-0.0,-0.34,-0.0,0.06,0.06,170.64,186.0,0.0,0.0,0.0,0.0
1776450674431021470,15921,0.0,0.0,0.076,0.2,-0.1,-0.1,0.06,0.5,5.25,0.02,-0.0,-0.34,0.06,0.06,0.06,166.36,186.0,0.0,0.0,0.0,0.0
1776450674533409585,16021,0.0,0.9,0.076,0.5,-0.02,-0.1,0.06,0.5,5.25,0.01,-0.01,-0.35,0.12,-0.0,0.06,171.16,192.0,0.0,0.0,0.0,0.0
1776450674631760087,16120,0.0,0.2,0.0,1.5,-0.06,0.02,0.06,0.5,5.25,0.01,-0.0,-0.34,-0.12,-0.12,-0.06,166.36,196.0,0.0,0.0,0.0,0.0
1776450674734155183,16221,0.1,0.3,0.0,1.5,0.04,-0.18,0.06,0.5,5.25,0.0,-0.0,-0.37,-0.12,-0.0,0.06,166.36,196.0,0.0,0.0,0.0,0.0
1776450674832452889,16321,0.1,0.1,0.0,1.7,-0.04,0.04,0.06,0.5,5.25,0.02,-0.0,-0.34,-0.12,0.06,0.0,170.64,198.0,0.0,0.0,0.0,0.0
1776450674930747613,16420,0.104,0.3,0.0,1.5,0.1,0.0,0.06,0.5,5.25,0.01,-0.0,-0.36,-0.0,-0.06,-0.06,170.47,189.0,0.0,0.0,0.0,0.0
1776450675033145154,16520,0.0,1.3,0.08,0.4,-0.08,-0.14,0.06,0.5,5.25,0.0,-0.0,-0.37,-0.12,-0.0,0.12,166.36,189.0,0.0,0.0,0.0,0.0
1776450675131453285,16620,0.0,0.1,0.0,1.0,0.02,-0.2,0.06,0.5,5.25,0.02,-0.01,-0.35,-0.0,-0.0,0.0,166.36,192.0,0.0,0.0,0.0,0.0
1776450675233849900,16720,0.0,1.0,0.088,0.3,0.12,-0.06,0.06,0.5,5.25,0.03,-0.0,-0.37,-0.19,-0.0,0.06,166.36,192.0,0.0,0.0,0.0,0.0
1776450675332173309,16820,0.0,1.0,0.0,1.6,0.08,-0.08,0.06,0.5,5.25,0.0,-0.0,-0.34,0.06,-0.12,-0.06,166.36,192.0,0.0,0.0,0.0,0.0
1776450675430399867,16920,0.0,1.5,0.084,0.2,0.08,-0.06,0.06,0.5,5.25,0.02,-0.0,-0.34,-0.0,-0.06,-0.12,166.36,198.0,0.0,0.0,0.0,0.0
1776450675532833130,17019,0.0,1.1,0.092,0.5,-0.06,0.12,0.06,0.5,5.25,0.0,-0.01,-0.34,-0.12,0.12,0.12,165.33,195.0,0.0,0.0,0.0,0.0
1776450675631147706,17120,0.0,1.1,0.0,1.3,-0.08,-0.04,0.06,0.5,5.25,0.02,-0.0,-0.35,-0.06,0.12,0.0,166.36,195.0,0.0,0.0,0.0,0.0
1776450675733546024,17220,0.0,0.6,0.0,1.6,-0.1,-0.08,0.06,0.5,5.25,0.02,-0.0,-0.31,0.06,0.12,0.0,166.36,203.0,0.0,0.0,0.0,0.0
1776450675831859433,17320,0.104,0.0,0.0,1.9,-0.08,-0.08,0.06,0.5,5.25,0.01,-0.0,-0.33,0.06,-0.12,-0.12,166.36,203.0,0.0,0.0,0.0,0.0
1776450675934236567,17420,0.1,0.2,0.0,1.5,0.08,-0.08,0.06,0.5,5.25,0.01,-0.02,-0.35,-0.06,0.06,0.0,166.36,190.0,0.0,0.0,0.0,0.0
1776450676032525069,17520,0.0,1.1,0.092,0.3,-0.16,-0.04,0.06,0.5,5.25,0.0,-0.0,-0.34,0.12,-0.0,0.06,170.47,186.0,0.0,0.0,0.0,0.0
1776450676130803422,17619,0.0,1.2,0.084,0.1,-0.04,-0.16,0.06,0.5,5.25,0.01,-0.0,-0.33,-0.12,-0.12,-0.06,166.36,186.0,0.0,0.0,0.0,0.0
1776450676233239630,17719,0.0,1.3,0.08,0.6,-0.02,-0.02,0.06,0.5,5.25,0.01,-0.0,-0.33,-0.0,-0.25,0.0,166.36,190.0,0.0,0.0,0.0,0.0
1776450676331555206,17819,0.0,1.5,0.08,0.5,-0.04,0.02,0.06,0.5,5.25,0.02,-0.0,-0.35,0.12,-0.06,-0.06,166.36,198.0,0.0,0.0,0.0,0.0
1776450676429802522,17918,0.0,1.3,0.076,0.1,0.0,0.02,0.06,0.5,5.25,0.01,-0.0,-0.31,0.06,-0.12,0.0,166.36,198.0,0.0,0.0,0.0,0.0
1776450676532190693,18018,0.0,1.3,0.076,0.3,-0.02,-0.06,0.06,0.5,5.25,0.01,-0.01,-0.3,-0.06,-0.06,0.06,166.36,198.0,0.0,0.0,0.0,0.0
1776450676630531991,18118,0.0,1.5,0.084,0.5,-0.06,0.06,0.06,0.5,5.25,0.01,-0.0,-0.33,-0.12,-0.0,-0.06,166.36,198.0,0.0,0.0,0.0,0.0
1776450676732939291,18219,0.0,1.3,0.0,0.5,0.02,0.0,0.06,0.5,5.25,0.0,-0.01,-0.3,0.06,-0.0,-0.12,166.36,192.0,0.0,0.0,0.0,0.0
1776450676831212126,18319,0.0,1.0,0.0,0.3,0.06,-0.12,0.06,0.5,5.25,0.02,-0.01,-0.33,-0.06,-0.12,0.06,170.47,194.0,0.0,0.0,0.0,0.0
1776450676933625185,18420,0.0,1.3,0.076,0.9,-0.18,-0.08,0.06,0.5,5.25,0.01,-0.01,-0.32,-0.0,-0.0,0.0,166.36,194.0,0.0,0.0,0.0,0.0
1776450677031889669,18520,0.104,0.0,0.0,0.2,0.12,-0.12,0.06,0.5,5.25,0.01,-0.0,-0.35,-0.0,0.06,0.06,166.36,190.0,0.0,0.0,0.0,0.0
1776450677134331283,18620,0.0,1.1,0.08,0.5,-0.12,0.0,0.06,0.5,5.25,0.02,-0.0,-0.34,0.06,0.19,0.06,166.36,204.0,0.0,0.0,0.0,0.0
1776450677232634378,18720,0.0,1.2,0.088,0.2,0.0,-0.12,0.06,0.5,5.25,0.0,-0.0,-0.32,-0.12,-0.0,0.06,166.36,204.0,0.0,0.0,0.0,0.0
1776450677335041770,18820,0.0,1.2,0.08,0.5,-0.04,-0.06,0.06,0.5,5.25,0.0,-0.0,-0.35,-0.06,0.06,0.06,166.36,195.0,0.0,0.0,0.0,0.0
1776450677433293661,18920,0.0,1.2,0.0,0.9,0.06,-0.21,0.06,0.5,5.25,0.02,-0.0,-0.32,-0.0,-0.0,0.0,166.36,198.0,0.0,0.0,0.0,0.0
1776450677531616737,19019,0.0,0.7,0.076,0.2,-0.1,-0.08,0.06,0.5,5.25,0.0,-0.0,-0.34,0.06,-0.06,0.0,166.36,198.0,0.0,0.0,0.0,0.0
1776450677634031759,19120,0.0,0.1,0.0,0.7,0.08,-0.14,0.06,0.5,5.25,0.01,-0.0,-0.33,-0.0,-0.0,0.0,166.36,201.0,0.0,0.0,0.0,0.0
1776450677732356335,19220,0.0,1.3,0.08,0.3,0.14,-0.06,0.06,0.5,5.25,0.01,-0.01,-0.34,0.19,-0.06,-0.06,166.36,192.0,0.0,0.0,0.0,0.0
1776450677840695304,19319,0.0,0.4,0.0,1.5,0.02,0.08,0.06,0.5,5.25,0.01,-0.0,-0.35,-0.0,-0.0,-0.06,166.36,192.0,0.0,0.0,0.0,0.0
1776450677933017860,19419,0.0,0.9,0.076,0.5,-0.06,-0.12,0.06,0.5,5.25,0.0,-0.01,-0.33,0.06,-0.0,0.0,166.36,197.0,0.0,0.0,0.0,0.0
1776450678041379551,19520,0.0,0.1,0.0,1.6,-0.06,0.02,0.06,0.5,5.25,0.01,-0.01,-0.32,-0.12,0.06,0.0,166.36,197.0,0.0,0.0,0.0,0.0
1776450678133711828,19619,0.1,1.3,0.072,0.3,0.18,-0.04,0.06,0.5,5.25,0.02,-0.0,-0.35,0.06,-0.12,-0.06,166.36,193.0,0.0,0.0,0.0,0.0
1776450678236112665,19720,0.0,1.2,0.088,0.5,0.0,-0.02,0.06,0.5,5.25,0.03,-0.01,-0.33,0.06,-0.19,0.06,167.56,196.0,0.0,0.0,0.0,0.0
1776450678334440074,19821,0.0,1.3,0.08,0.2,-0.04,-0.06,0.06,0.5,5.25,0.01,0.01,-0.34,-0.06,-0.12,-0.06,166.36,196.0,0.0,0.0,0.0,0.0
1776450678432693335,19920,0.0,1.3,0.0,1.3,0.02,-0.14,0.06,0.5,5.25,0.0,-0.0,-0.33,-0.0,0.06,0.0,166.36,193.0,0.0,0.0,0.0,0.0
1776450678535075617,20020,0.104,0.1,0.0,1.1,0.04,-0.02,0.06,0.5,5.25,0.01,-0.0,-0.33,-0.0,-0.06,0.06,166.36,193.0,0.0,0.0,0.0,0.0
1776450678633385693,20120,0.0,0.7,0.084,0.2,0.1,-0.08,0.06,0.5,5.25,0.02,-0.01,-0.33,-0.06,0.12,-0.06,166.36,193.0,0.0,0.0,0.0,0.0
1776450678735807085,20220,0.0,1.1,0.072,0.3,0.02,0.0,0.06,0.5,5.25,0.0,-0.01,-0.32,0.06,-0.0,0.06,166.36,200.0,0.0,0.0,0.0,0.0
1776450678834116902,20320,0.104,0.0,0.0,0.9,-0.06,-0.02,0.06,0.5,5.25,0.01,-0.02,-0.33,0.12,-0.0,-0.12,166.36,200.0,0.0,0.0,0.0,0.0
1776450678936536739,20421,0.1,0.2,0.0,1.4,-0.02,-0.14,0.06,0.5,5.25,0.02,-0.01,-0.34,0.06,-0.06,0.0,165.84,189.0,0.0,0.0,0.0,0.0
1776450679034800593,20521,0.104,0.6,0.088,1.2,0.02,0.02,0.06,0.5,5.25,0.01,-0.0,-0.32,-0.0,0.12,-0.06,170.47,190.0,0.0,0.0,0.0,0.0
1776450679137208263,20621,0.0,0.2,0.0,1.0,-0.2,-0.2,0.06,0.5,5.25,0.0,-0.0,-0.33,0.06,0.06,0.0,170.47,190.0,0.0,0.0,0.0,0.0
1776450679235479747,20721,0.0,1.0,0.0,0.7,0.0,-0.1,0.06,0.5,5.25,0.0,-0.02,-0.31,-0.06,-0.06,0.0,166.36,200.0,0.0,0.0,0.0,0.0
1776450679333810674,20820,0.0,1.5,0.08,0.3,-0.06,0.04,0.06,0.5,5.25,0.01,-0.02,-0.31,-0.06,0.12,0.06,166.36,205.0,0.0,0.0,0.0,0.0
1776450679436197233,20920,0.0,1.0,0.076,0.2,0.1,-0.14,0.06,0.5,5.25,0.01,-0.0,-0.35,0.06,0.06,0.0,167.38,205.0,0.0,0.0,0.0,0.0
1776450679534458995,21021,0.0,1.0,0.0,1.2,0.08,-0.06,0.06,0.5,5.25,0.02,-0.01,-0.33,0.12,-0.06,-0.12,166.36,187.0,0.0,0.0,0.0,0.0
1776450679636893943,21121,0.0,0.1,0.0,1.5,-0.02,-0.14,0.06,0.5,5.25,0.02,-0.02,-0.33,0.12,-0.0,0.0,166.36,198.0,0.0,0.0,0.0,0.0
1776450679739288150,21222,0.1,0.0,0.0,1.5,0.02,0.02,0.06,0.5,5.25,0.0,-0.0,-0.32,0.12,-0.06,0.06,166.36,198.0,0.0,0.0,0.0,0.0
1776450679837655670,21322,0.0,1.1,0.084,0.2,0.04,0.0,0.06,0.5,5.25,0.01,-0.0,-0.33,-0.19,-0.0,-0.12,166.36,196.0,0.0,0.0,0.0,0.0
1776450679935831765,21422,0.0,1.2,0.076,0.2,-0.02,-0.04,0.06,0.5,5.25,0.02,-0.0,-0.32,-0.0,-0.0,0.0,165.84,191.0,0.0,0.0,0.0,0.0
1776450680038296843,21523,0.0,1.4,0.072,0.2,0.16,-0.1,0.06,0.5,5.25,0.01,-0.03,-0.31,0.12,0.12,-0.06,169.96,191.0,0.0,0.0,0.0,0.0
1776450680136577696,21623,0.0,1.2,0.0,0.4,-0.04,0.12,0.06,0.5,5.25,0.01,-0.01,-0.35,-0.0,0.06,0.0,166.36,190.0,0.0,0.0,0.0,0.0
1776450680238986959,21723,0.0,0.6,0.088,0.5,0.16,-0.06,0.06,0.5,5.25,0.02,-0.0,-0.35,-0.06,-0.06,0.19,166.36,190.0,0.0,0.0,0.0,0.0
1776450680337303646,21823,0.0,1.0,0.0,1.7,0.08,-0.02,0.06,0.5,5.25,0.02,-0.0,-0.32,-0.0,-0.0,-0.06,166.36,189.0,0.0,0.0,0.0,0.0
1776450680439709391,21922,0.1,0.4,0.0,1.6,-0.02,-0.04,0.06,0.5,5.25,0.01,-0.0,-0.35,-0.06,-0.0,-0.06,166.36,192.0,0.0,0.0,0.0,0.0
1776450680537983171,22023,0.096,0.3,0.0,0.1,0.27,-0.1,0.06,0.5,5.25,0.03,-0.0,-0.32,0.12,0.06,0.06,166.36,192.0,0.0,0.0,0.0,0.0
1776450680636261617,22123,0.0,0.7,0.0,1.4,-0.16,-0.1,0.06,0.5,5.25,0.03,-0.0,-0.33,-0.06,0.12,0.06,166.36,194.0,0.0,0.0,0.0,0.0
1776450680738677028,22222,0.0,1.0,0.0,1.6,-0.08,-0.14,0.06,0.5,5.25,0.03,-0.0,-0.32,-0.0,0.12,0.06,166.36,197.0,0.0,0.0,0.0,0.0
1776450680836984974,22322,0.092,0.4,0.08,0.3,0.08,-0.02,0.06,0.5,5.25,0.02,-0.0,-0.34,-0.0,-0.0,0.06,166.36,197.0,0.0,0.0,0.0,0.0
1776450680945358369,22422,0.0,0.1,0.0,1.0,-0.02,-0.04,0.06,0.5,5.25,0.02,0.01,-0.32,-0.0,-0.0,0.12,166.36,195.0,0.0,0.0,0.0,0.0
1776450681037670887,22521,0.0,0.7,0.0,1.5,-0.04,-0.14,0.06,0.5,5.25,0.03,-0.01,-0.33,0.06,-0.06,0.06,170.64,200.0,0.0,0.0,0.0,0.0
1776450681135982334,22621,0.096,0.4,0.0,0.1,-0.14,-0.21,0.06,0.5,5.25,0.01,-0.0,-0.34,-0.06,-0.06,-0.06,166.36,200.0,0.0,0.0,0.0,0.0
1776450681238374596,22721,0.0,1.4,0.076,0.4,0.12,-0.14,0.06,0.5,5.25,0.01,-0.01,-0.34,0.06,0.06,0.0,166.36,202.0,0.0,0.0,0.0,0.0
1776450681336685321,22820,0.0,1.1,0.0,1.2,-0.14,-0.2,0.06,0.5,5.25,0.02,-0.0,-0.32,-0.0,-0.0,0.06,166.36,202.0,0.0,0.0,0.0,0.0
1776450681439009398,22920,0.0,0.3,0.0,1.6,0.08,-0.06,0.06,0.5,5.25,0.02,-0.0,-0.33,-0.0,-0.0,0.0,166.36,198.0,0.0,0.0,0.0,0.0
1776450681537340289,23021,0.1,0.3,0.0,1.5,0.08,-0.02,0.06,0.5,5.25,0.01,-0.01,-0.35,0.06,-0.25,-0.12,166.36,191.0,0.0,0.0,0.0,0.0
1776450681635688087,23120,0.1,0.0,0.0,1.9,0.12,-0.04,0.06,0.5,5.25,0.0,-0.0,-0.34,-0.0,0.06,0.0,166.36,191.0,0.0,0.0,0.0,0.0
1776450681738074239,23221,0.104,0.0,0.0,1.4,-0.12,-0.08,0.06,0.5,5.25,0.02,-0.0,-0.32,-0.06,0.06,-0.06,166.36,194.0,0.0,0.0,0.0,0.0
1776450681836368315,23321,0.1,1.2,0.08,0.1,0.1,-0.16,0.06,0.5,5.25,0.01,-0.0,-0.35,-0.0,-0.0,0.0,169.96,190.0,0.0,0.0,0.0,0.0
1776450681934670391,23420,0.0,1.3,0.076,0.2,-0.08,-0.1,0.06,0.5,5.25,0.01,-0.02,-0.33,0.12,-0.06,0.12,166.36,190.0,0.0,0.0,0.0,0.0
1776450682037063246,23520,0.0,1.1,0.0,1.0,-0.02,-0.21,0.06,0.5,5.25,0.02,-0.0,-0.34,0.06,-0.06,0.06,166.36,191.0,0.0,0.0,0.0,0.0
1776450682135372637,23620,0.0,0.7,0.072,0.5,0.06,-0.08,0.06,0.5,5.25,0.02,-0.0,-0.32,-0.0,-0.12,-0.12,166.36,202.0,0.0,0.0,0.0,0.0
1776450682237739067,23720,0.0,0.7,0.0,0.2,0.08,-0.06,0.06,0.5,5.25,0.02,-0.0,-0.32,0.06,-0.0,0.06,166.36,202.0,0.0,0.0,0.0,0.0
1776450682336054161,23820,0.0,1.1,0.072,0.2,-0.04,-0.14,0.06,0.5,5.25,0.01,-0.0,-0.34,-0.0,0.12,0.0,166.36,192.0,0.0,0.0,0.0,0.0
1776450682438426480,23920,0.0,0.3,0.076,0.4,0.02,-0.1,0.06,0.5,5.25,0.03,-0.0,-0.32,0.06,-0.12,0.0,166.36,192.0,0.0,0.0,0.0,0.0
1776450682536757963,24019,0.0,0.9,0.08,0.3,0.02,-0.06,0.06,0.5,5.25,0.03,-0.0,-0.32,-0.0,-0.06,-0.06,171.5,194.0,0.0,0.0,0.0,0.0
1776450682639153819,24120,0.0,0.7,0.0,0.2,0.06,0.04,0.06,0.5,5.25,0.01,-0.0,-0.35,-0.06,-0.12,0.06,166.36,196.0,0.0,0.0,0.0,0.0
1776450682737464580,24220,0.0,0.1,0.0,0.6,-0.02,-0.14,0.06,0.5,5.25,0.0,-0.0,-0.31,0.12,-0.0,-0.06,166.36,196.0,0.0,0.0,0.0,0.0
1776450682835762656,24320,0.0,1.4,0.08,0.0,-0.04,-0.2,0.06,0.5,5.25,0.01,-0.0,-0.35,-0.0,-0.0,0.06,166.36,195.0,0.0,0.0,0.0,0.0
1776450682938162030,24420,0.0,0.2,0.0,1.0,-0.04,-0.1,0.06,0.5,5.25,0.01,-0.01,-0.32,0.06,-0.12,0.06,166.36,190.0,0.0,0.0,0.0,0.0
1776450683036465069,24519,0.1,0.9,0.08,0.3,-0.04,-0.06,0.06,0.5,5.25,0.0,-0.0,-0.34,0.06,-0.0,0.0,166.36,190.0,0.0,0.0,0.0,0.0
1776450683134746348,24619,0.0,1.4,0.0,1.3,-0.08,-0.1,0.06,0.5,5.25,0.01,-0.01,-0.3,-0.06,0.06,0.12,170.47,193.0,0.0,0.0,0.0,0.0
1776450683237151630,24719,0.0,0.7,0.076,0.5,0.06,0.02,0.06,0.5,5.25,0.01,-0.01,-0.36,0.06,-0.0,-0.06,166.36,186.0,0.0,0.0,0.0,0.0
1776450683335467706,24818,0.0,0.9,0.076,0.5,0.08,-0.16,0.06,0.5,5.25,0.01,-0.01,-0.35,0.06,-0.0,0.0,166.36,186.0,0.0,0.0,0.0,0.0
1776450683437830413,24918,0.0,1.2,0.068,1.2,0.0,-0.2,0.06,0.5,5.25,0.0,-0.0,-0.35,-0.06,0.06,-0.12,166.36,191.0,0.0,0.0,0.0,0.0
1776450683536201359,25018,0.0,1.0,0.076,0.3,-0.08,-0.06,0.06,0.5,5.25,0.01,-0.0,-0.34,-0.0,-0.0,0.19,166.36,191.0,0.0,0.0,0.0,0.0
1776450683634445361,25118,0.0,0.6,0.08,0.3,-0.08,0.0,0.06,0.5,5.25,0.01,-0.01,-0.35,-0.12,0.06,0.0,167.38,193.0,0.0,0.0,0.0,0.0
1776450683736852309,25219,0.104,0.0,0.0,1.7,-0.1,-0.1,0.06,0.5,5.25,0.03,-0.0,-0.36,0.06,-0.12,0.0,166.36,196.0,0.0,0.0,0.0,0.0
1776450683845243519,25319,0.0,1.5,0.072,0.3,0.06,0.06,0.06,0.5,5.25,0.02,-0.0,-0.35,-0.25,-0.12,0.0,162.24,196.0,0.0,0.0,0.0,0.0
1776450683937548093,25419,0.0,0.4,0.0,1.1,-0.08,-0.16,0.06,0.5,5.25,0.01,-0.0,-0.35,-0.0,-0.19,0.06,166.36,203.0,0.0,0.0,0.0,0.0
1776450684039950170,25520,0.1,0.3,0.0,1.1,0.02,-0.1,0.06,0.5,5.25,0.01,-0.0,-0.34,0.06,-0.06,0.06,166.36,195.0,0.0,0.0,0.0,0.0
1776450684138285728,25620,0.0,0.2,0.0,1.4,-0.08,0.06,0.06,0.5,5.25,0.0,-0.0,-0.35,0.06,-0.0,0.06,166.36,195.0,0.0,0.0,0.0,0.0
1776450684236551026,25719,0.104,-0.1,0.0,1.6,-0.08,-0.06,0.06,0.5,5.25,0.02,-0.02,-0.34,-0.12,-0.0,0.06,166.36,193.0,0.0,0.0,0.0,0.0
1776450684338954752,25819,0.104,0.1,0.0,1.4,0.02,0.0,0.06,0.5,5.25,0.03,-0.0,-0.34,-0.0,-0.06,0.06,166.36,200.0,0.0,0.0,0.0,0.0
1776450684437209976,25920,0.104,0.1,0.0,1.6,-0.08,-0.06,0.06,0.5,5.25,0.03,-0.0,-0.37,-0.0,-0.0,0.0,166.36,200.0,0.0,0.0,0.0,0.0
1776450684539592776,26020,0.1,0.1,0.0,1.7,0.1,-0.02,0.06,0.5,5.25,0.01,-0.01,-0.32,-0.0,-0.0,-0.06,166.36,189.0,0.0,0.0,0.0,0.0
1776450684637943093,26120,0.104,0.2,0.0,1.4,-0.1,0.0,0.06,0.5,5.25,0.01,-0.01,-0.33,0.06,0.12,-0.06,169.96,197.0,0.0,0.0,0.0,0.0
1776450684740375448,26221,0.0,1.1,0.0,0.4,-0.04,-0.1,0.06,0.5,5.25,0.0,-0.0,-0.34,-0.12,0.12,0.06,166.36,197.0,0.0,0.0,0.0,0.0
1776450684838640691,26320,0.0,0.6,0.0,0.4,0.02,-0.21,0.06,0.5,5.25,0.0,-0.02,-0.33,-0.0,0.12,-0.06,166.36,192.0,0.0,0.0,0.0,0.0
1776450684941039028,26421,0.0,1.3,0.0,1.2,0.0,0.02,0.06,0.5,5.25,0.0,-0.0,-0.36,-0.0,0.06,0.0,166.36,192.0,0.0,0.0,0.0,0.0
1776450685039315381,26521,0.096,0.1,0.072,0.5,-0.02,0.08,0.06,0.5,5.25,0.0,-0.0,-0.32,0.06,-0.19,0.06,166.36,182.0,0.0,0.0,0.0,0.0
1776450685141730866,26621,0.0,0.9,0.0,1.4,-0.06,-0.06,0.06,0.5,5.25,0.0,-0.0,-0.35,-0.0,-0.0,0.06,166.36,196.0,0.0,0.0,0.0,0.0
1776450685240034368,26721,0.0,1.4,0.0,0.9,0.02,-0.02,0.06,0.5,5.25,0.03,-0.0,-0.36,-0.06,0.06,0.06,166.36,196.0,0.0,0.0,0.0,0.0
1776450685338327537,26821,0.108,0.4,0.072,0.2,-0.02,-0.04,0.06,0.5,5.25,0.03,-0.0,-0.35,0.06,0.06,0.12,166.36,192.0,0.0,0.0,0.0,0.0
1776450685440675800,26920,0.0,1.0,0.084,0.3,0.0,0.0,0.06,0.5,5.25,0.01,-0.02,-0.32,0.06,0.06,-0.06,166.36,197.0,0.0,0.0,0.0,0.0
1776450685539020524,27020,0.0,0.0,0.0,1.5,-0.02,-0.23,0.06,0.5,5.25,0.02,-0.0,-0.35,-0.06,-0.06,0.12,166.36,197.0,0.0,0.0,0.0,0.0
1776450685637312655,27120,0.1,0.1,0.0,1.3,-0.06,-0.1,0.06,0.5,5.25,0.01,-0.0,-0.32,-0.0,-0.0,0.12,166.36,188.0,0.0,0.0,0.0,0.0
1776450685739730696,27219,0.0,1.0,0.0,1.4,-0.16,-0.06,0.06,0.5,5.25,0.01,-0.0,-0.33,0.12,-0.19,0.0,166.36,188.0,0.0,0.0,0.0,0.0
1776450685838037939,27319,0.104,0.3,0.0,1.4,0.06,0.0,0.06,0.5,5.25,0.02,-0.01,-0.33,-0.0,-0.12,0.0,166.36,188.0,0.0,0.0,0.0,0.0
1776450685946389463,27419,0.092,0.0,0.0,1.4,-0.08,-0.08,0.06,0.5,5.25,0.0,-0.0,-0.35,-0.0,-0.06,0.06,166.36,192.0,0.0,0.0,0.0,0.0
1776450686038725037,27520,0.104,0.2,0.0,1.3,0.06,-0.06,0.06,0.5,5.25,0.02,-0.0,-0.37,-0.06,-0.12,0.06,166.36,192.0,0.0,0.0,0.0,0.0
1776450686141117096,27620,0.096,0.1,0.0,1.5,0.1,-0.08,0.06,0.5,5.25,0.02,-0.01,-0.35,0.12,-0.12,0.0,166.36,199.0,0.0,0.0,0.0,0.0
1776450686239420116,27720,0.096,0.2,0.0,1.5,0.04,0.02,0.06,0.5,5.25,0.02,-0.0,-0.34,0.06,-0.0,0.06,166.36,193.0,0.0,0.0,0.0,0.0
1776450686341820694,27821,0.0,1.3,0.088,0.3,-0.02,-0.06,0.06,0.5,5.25,0.0,-0.0,-0.35,-0.06,0.06,-0.12,166.53,193.0,0.0,0.0,0.0,0.0
1776450686440065548,27922,0.0,0.5,0.0,0.6,0.04,0.0,0.06,0.5,5.25,0.01,-0.0,-0.35,-0.0,-0.06,0.06,166.36,195.0,0.0,0.0,0.0,0.0
1776450686542494014,28022,0.0,1.2,0.0,0.1,0.04,-0.02,0.06,0.5,5.25,0.01,-0.0,-0.33,-0.06,-0.06,0.06,166.36,184.0,0.0,0.0,0.0,0.0
1776450686640801257,28122,0.0,0.7,0.0,1.4,0.02,-0.2,0.06,0.5,5.25,0.01,-0.03,-0.34,-0.0,0.06,0.06,166.36,184.0,0.0,0.0,0.0,0.0
1776450686743213575,28222,0.0,1.3,0.084,0.4,-0.02,0.0,0.06,0.5,5.25,0.0,-0.0,-0.37,-0.0,-0.0,0.0,167.04,193.0,0.0,0.0,0.0,0.0
1776450686841511151,28322,0.0,1.3,0.076,0.3,0.04,0.1,0.06,0.5,5.25,0.02,-0.0,-0.36,-0.0,-0.0,-0.06,166.36,199.0,0.0,0.0,0.0,0.0
1776450686943914377,28423,0.0,1.4,0.0,1.4,-0.02,-0.18,0.06,0.5,5.25,0.01,-0.03,-0.37,-0.0,-0.0,0.12,166.36,199.0,0.0,0.0,0.0,0.0
1776450687042204231,28523,0.1,0.2,0.0,1.0,-0.12,-0.1,0.06,0.5,5.25,0.01,-0.01,-0.35,0.06,-0.06,0.06,166.36,192.0,0.0,0.0,0.0,0.0
1776450687140516863,28622,0.0,0.6,0.0,1.5,-0.04,-0.08,0.06,0.5,5.25,0.02,0.01,-0.37,-0.12,-0.06,0.0,166.53,192.0,0.0,0.0,0.0,0.0
1776450687242907866,28722,0.1,0.0,0.0,1.1,0.06,-0.06,0.06,0.5,5.25,0.02,-0.01,-0.35,-0.0,-0.0,0.0,166.36,191.0,0.0,0.0,0.0,0.0
1776450687341209349,28823,0.0,0.2,0.0,1.1,0.04,-0.21,0.06,0.5,5.25,0.0,-0.01,-0.35,-0.19,-0.0,0.06,166.36,189.0,0.0,0.0,0.0,0.0
1776450687443569557,28922,0.0,0.6,0.08,0.3,0.08,-0.08,0.06,0.5,5.25,0.03,0.01,-0.35,0.12,-0.0,0.0,166.36,189.0,0.0,0.0,0.0,0.0
1776450687541872040,29022,0.0,0.9,0.0,1.8,0.04,-0.16,0.06,0.5,5.25,0.02,-0.0,-0.35,-0.06,-0.06,0.12,166.36,194.0,0.0,0.0,0.0,0.0
1776450687644335710,29122,0.1,1.3,0.0,1.3,0.1,-0.12,0.06,0.5,5.25,0.01,-0.0,-0.35,-0.06,0.06,0.0,167.38,198.0,0.0,0.0,0.0,0.0
1776450687742610712,29222,0.108,0.2,0.072,0.2,0.02,-0.04,0.06,0.5,5.25,0.01,-0.02,-0.36,-0.0,0.12,0.0,166.36,198.0,0.0,0.0,0.0,0.0
1776450687850968015,29322,0.0,0.9,0.0,1.5,0.06,-0.2,0.06,0.5,5.25,0.03,-0.02,-0.33,-0.0,-0.06,0.06,166.36,195.0,0.0,0.0,0.0,0.0
1776450687943310847,29422,0.104,0.3,0.0,1.6,0.04,-0.1,0.06,0.5,5.25,0.0,-0.0,-0.35,0.06,-0.06,0.0,166.36,192.0,0.0,0.0,0.0,0.0
1776450688041604627,29521,0.0,1.3,0.072,0.7,0.0,-0.2,0.06,0.5,5.25,0.01,-0.01,-0.35,-0.12,-0.12,0.0,169.96,192.0,0.0,0.0,0.0,0.0
1776450688143996427,29622,0.0,0.4,0.0,1.3,0.02,-0.04,0.06,0.5,5.25,0.01,-0.0,-0.35,-0.0,-0.12,-0.06,166.36,193.0,0.0,0.0,0.0,0.0
1776450688242298114,29722,0.0,0.7,0.08,0.3,0.0,-0.06,0.06,0.5,5.25,0.02,-0.01,-0.35,-0.06,-0.0,0.19,166.36,193.0,0.0,0.0,0.0,0.0
1776450688340615320,29821,0.0,-0.2,0.0,1.6,0.14,0.0,0.06,0.5,5.25,0.01,-0.0,-0.32,-0.12,-0.0,-0.06,166.36,193.0,0.0,0.0,0.0,0.0
1776450688442949231,29921,0.104,0.1,0.0,1.6,0.08,-0.1,0.06,0.5,5.25,0.02,-0.01,-0.34,-0.06,-0.0,0.0,169.96,189.0,0.0,0.0,0.0,0.0
1776450688541261473,30022,0.0,1.5,0.08,0.5,0.12,-0.16,0.06,0.5,5.25,0.02,-0.01,-0.32,-0.0,-0.12,-0.06,169.96,189.0,0.0,0.0,0.0,0.0
1776450688643694903,30121,0.0,1.5,0.0,1.2,-0.04,-0.08,0.06,0.5,5.25,0.01,-0.01,-0.32,-0.19,-0.0,0.06,167.38,186.0,0.0,0.0,0.0,0.0
1776450688741989757,30222,0.0,0.6,0.068,0.3,0.1,-0.14,0.06,0.5,5.25,0.0,-0.0,-0.34,-0.06,-0.12,0.06,166.36,191.0,0.0,0.0,0.0,0.0
1776450688844392742,30322,0.0,1.4,0.0,1.1,0.0,-0.18,0.06,0.5,5.25,0.02,-0.02,-0.33,-0.12,-0.0,0.12,166.36,191.0,0.0,0.0,0.0,0.0
1776450688946787968,30423,0.1,0.9,0.0,1.5,-0.12,-0.1,0.06,0.5,5.25,0.02,-0.01,-0.33,-0.0,-0.0,-0.06,167.38,188.0,0.0,0.0,0.0,0.0
1776450689045082173,30524,0.1,0.3,0.0,1.6,-0.04,-0.16,0.06,0.5,5.25,0.01,-0.0,-0.33,-0.0,-0.06,0.06,166.36,187.0,0.0,0.0,0.0,0.0
1776450689143391027,30623,0.0,1.2,0.084,0.3,-0.12,-0.1,0.06,0.5,5.25,0.03,-0.0,-0.34,-0.06,-0.06,-0.12,166.36,187.0,0.0,0.0,0.0,0.0
1776450689245778716,30723,0.104,0.2,0.072,0.3,0.12,-0.12,0.06,0.5,5.25,0.0,-0.01,-0.34,0.12,-0.06,-0.06,166.36,201.0,0.0,0.0,0.0,0.0
1776450689344099255,30823,0.0,1.1,0.076,0.3,-0.04,0.02,0.06,0.5,5.25,0.02,0.01,-0.31,0.06,-0.0,-0.06,166.36,203.0,0.0,0.0,0.0,0.0
1776450689446425314,30923,0.0,0.2,0.0,1.6,-0.08,0.0,0.06,0.5,5.25,0.01,-0.0,-0.34,0.06,-0.06,0.0,166.36,203.0,0.0,0.0,0.0,0.0
1776450689544779204,31023,0.104,0.3,0.0,1.7,-0.06,-0.06,0.06,0.5,5.25,0.04,-0.0,-0.35,-0.06,-0.12,-0.06,166.36,193.0,0.0,0.0,0.0,0.0
1776450689653230229,31124,0.096,0.4,0.0,1.3,0.06,-0.06,0.06,0.5,5.25,0.02,0.01,-0.35,-0.0,-0.06,0.06,166.36,193.0,0.0,0.0,0.0,0.0
1776450689745480766,31223,0.1,0.3,0.0,1.4,0.0,-0.14,0.06,0.5,5.25,0.01,-0.0,-0.33,-0.0,0.06,-0.06,171.16,194.0,0.0,0.0,0.0,0.0
1776450689843750990,31323,0.1,0.2,0.084,0.2,0.02,-0.08,0.06,0.5,5.25,0.01,-0.0,-0.32,-0.0,-0.0,-0.06,166.36,196.0,0.0,0.0,0.0,0.0
1776450689946179586,31423,0.0,1.2,0.076,0.6,0.02,-0.08,0.06,0.5,5.25,0.01,-0.0,-0.35,0.06,-0.12,0.0,166.36,196.0,0.0,0.0,0.0,0.0
1776450690044463717,31522,0.0,1.2,0.076,0.5,-0.1,0.06,0.06,0.5,5.25,0.01,-0.0,-0.33,-0.12,0.06,0.0,167.38,195.0,0.0,0.0,0.0,0.0
1776450690146865110,31623,0.0,1.4,0.0,1.2,0.2,-0.12,0.06,0.5,5.25,0.03,-0.0,-0.31,-0.06,-0.06,0.0,166.36,192.0,0.0,0.0,0.0,0.0
1776450690245187149,31723,0.104,-0.1,0.0,1.2,0.06,-0.04,0.06,0.5,5.25,0.01,-0.01,-0.33,0.06,-0.12,0.0,166.36,192.0,0.0,0.0,0.0,0.0
1776450690343467965,31822,0.0,0.9,0.076,0.2,-0.02,-0.12,0.06,0.5,5.25,0.01,-0.0,-0.32,-0.0,-0.0,0.12,166.36,193.0,0.0,0.0,0.0,0.0
1776450690445847469,31922,0.0,0.9,0.076,0.0,-0.04,0.02,0.06,0.5,5.25,0.02,-0.0,-0.34,-0.06,-0.12,0.0,166.36,193.0,0.0,0.0,0.0,0.0
1776450690544209267,32022,0.0,1.4,0.0,0.4,0.02,-0.12,0.06,0.5,5.25,0.01,0.01,-0.33,-0.06,-0.06,0.0,166.36,197.0,0.0,0.0,0.0,0.0
1776450690642457769,32121,0.0,0.1,0.0,1.5,0.02,0.0,0.06,0.5,5.25,0.0,-0.0,-0.32,-0.0,0.06,0.0,166.53,199.0,0.0,0.0,0.0,0.0
1776450690744876347,32222,0.0,0.6,0.0,1.1,0.02,-0.16,0.06,0.5,5.25,0.0,-0.0,-0.36,0.12,-0.12,-0.06,167.38,199.0,0.0,0.0,0.0,0.0
1776450690847270443,32323,0.1,0.1,0.0,1.0,0.08,-0.14,0.06,0.5,5.25,0.0,-0.01,-0.33,-0.0,0.12,-0.12,166.36,192.0,0.0,0.0,0.0,0.0
1776450690945563074,32422,0.104,0.2,0.0,1.2,0.12,-0.06,0.06,0.5,5.25,0.01,-0.0,-0.33,0.06,-0.25,-0.12,166.36,191.0,0.0,0.0,0.0,0.0
1776450691043863558,32522,0.0,0.7,0.0,0.7,0.04,0.08,0.06,0.5,5.25,0.0,-0.0,-0.35,-0.06,-0.0,0.0,166.36,191.0,0.0,0.0,0.0,0.0
1776450691146313339,32622,0.0,0.1,0.0,1.1,-0.12,-0.08,0.06,0.5,5.25,0.02,-0.0,-0.34,-0.0,-0.0,0.0,166.36,189.0,0.0,0.0,0.0,0.0
1776450691244574619,32721,0.0,0.9,0.068,0.2,-0.04,-0.16,0.06,0.5,5.25,0.02,-0.0,-0.33,-0.0,0.06,-0.06,166.36,191.0,0.0,0.0,0.0,0.0
1776450691342841047,32821,0.0,0.9,0.08,0.4,-0.04,-0.06,0.06,0.5,5.25,0.02,-0.0,-0.33,-0.0,-0.06,0.06,166.36,191.0,0.0,0.0,0.0,0.0
1776450691445213458,32921,0.0,1.0,0.068,0.1,-0.08,-0.18,0.06,0.5,5.25,0.02,0.01,-0.35,0.12,0.19,0.0,167.56,189.0,0.0,0.0,0.0,0.0
1776450691543527774,33021,0.0,0.0,0.0,0.8,0.08,-0.02,0.06,0.5,5.25,0.02,-0.0,-0.35,0.19,-0.12,0.06,166.36,189.0,0.0,0.0,0.0,0.0
1776450691645960648,33121,0.0,0.9,0.072,0.5,-0.02,-0.08,0.06,0.5,5.25,0.03,-0.0,-0.31,-0.12,-0.06,0.12,166.36,189.0,0.0,0.0,0.0,0.0
1776450691744270984,33222,0.0,1.0,0.0,1.5,0.06,-0.06,0.06,0.5,5.25,0.01,-0.0,-0.31,0.06,-0.12,-0.06,166.36,192.0,0.0,0.0,0.0,0.0
1776450691846659913,33323,0.1,0.1,0.0,1.4,0.06,-0.08,0.06,0.5,5.25,0.01,-0.02,-0.32,-0.0,-0.06,0.0,166.36,192.0,0.0,0.0,0.0,0.0
1776450691949049065,33424,0.0,0.2,0.0,1.2,0.02,0.04,0.06,0.5,5.25,0.03,-0.0,-0.32,-0.0,0.06,0.06,166.36,196.0,0.0,0.0,0.0,0.0
1776450692047335956,33524,0.104,0.2,0.0,1.0,0.0,-0.18,0.06,0.5,5.25,0.03,-0.0,-0.33,-0.0,0.06,0.0,166.36,194.0,0.0,0.0,0.0,0.0
1776450692149754274,33624,0.0,0.8,0.084,0.2,0.27,-0.12,0.06,0.5,5.25,0.0,0.01,-0.35,-0.06,-0.12,0.06,170.47,194.0,0.0,0.0,0.0,0.0
1776450692248064461,33724,0.0,0.9,0.0,1.6,-0.06,-0.08,0.06,0.5,5.25,0.03,-0.0,-0.33,-0.12,0.06,0.0,166.36,187.0,0.0,0.0,0.0,0.0
1776450692346355296,33823,0.104,0.7,0.0,0.3,-0.1,-0.02,0.06,0.5,5.25,0.01,-0.01,-0.33,-0.0,-0.0,0.0,166.36,194.0,0.0,0.0,0.0,0.0
1776450692444582539,33923,0.0,0.9,0.076,0.3,-0.2,-0.1,0.06,0.5,5.25,0.03,-0.01,-0.32,-0.12,-0.12,0.0,166.36,194.0,0.0,0.0,0.0,0.0
1776450692547043246,34023,0.0,0.1,0.0,1.7,0.08,0.0,0.06,0.5,5.25,0.02,-0.02,-0.33,-0.0,-0.12,0.06,166.36,197.0,0.0,0.0,0.0,0.0
1776450692645349007,34122,0.0,1.4,0.088,0.1,0.0,-0.14,0.06,0.5,5.25,0.03,-0.01,-0.31,0.06,0.12,-0.06,166.36,197.0,0.0,0.0,0.0,0.0
1776450692747744863,34223,0.0,1.2,0.08,0.4,0.02,-0.12,0.06,0.5,5.25,0.01,-0.0,-0.33,0.12,-0.0,0.0,165.84,193.0,0.0,0.0,0.0,0.0
1776450692846052365,34323,0.0,0.7,0.0,1.5,-0.02,-0.04,0.06,0.5,5.25,0.0,-0.01,-0.33,-0.0,0.12,0.06,166.36,188.0,0.0,0.0,0.0,0.0
1776450692948441405,34423,0.0,1.3,0.076,0.3,-0.12,-0.08,0.06,0.5,5.25,0.01,-0.0,-0.32,0.12,-0.12,-0.06,166.36,188.0,0.0,0.0,0.0,0.0
1776450693046745240,34523,0.0,0.5,0.0,1.0,0.08,-0.12,0.06,0.5,5.25,0.01,-0.01,-0.34,-0.0,-0.0,0.12,166.36,187.0,0.0,0.0,0.0,0.0
1776450693145007724,34623,0.104,0.1,0.0,1.2,0.08,0.02,0.06,0.5,5.25,0.01,-0.0,-0.33,0.06,-0.06,-0.06,165.84,181.0,0.0,0.0,0.0,0.0
1776450693247449190,34722,0.1,0.0,0.0,1.1,0.06,-0.12,0.06,0.5,5.25,0.03,-0.02,-0.35,0.06,-0.19,0.06,165.84,181.0,0.0,0.0,0.0,0.0
1776450693349798657,34823,0.1,-0.1,0.0,1.5,-0.21,-0.18,0.06,0.5,5.25,0.01,-0.0,-0.35,-0.12,-0.06,-0.12,165.84,194.0,0.0,0.0,0.0,0.0
1776450693448124881,34923,0.1,1.2,0.0,1.2,-0.06,-0.06,0.06,0.5,5.25,0.01,-0.0,-0.33,0.06,-0.12,0.12,166.36,193.0,0.0,0.0,0.0,0.0
1776450693546434087,35022,0.0,1.1,0.076,0.8,0.06,-0.04,0.06,0.5,5.25,0.02,-0.0,-0.33,0.12,0.06,0.06,166.36,193.0,0.0,0.0,0.0,0.0
1776450693644721755,35122,0.0,0.9,0.084,0.3,-0.08,0.16,0.06,0.5,5.25,0.02,-0.02,-0.32,-0.0,-0.0,0.12,165.67,185.0,0.0,0.0,0.0,0.0
1776450693747127462,35222,0.0,0.1,0.0,1.6,-0.1,-0.14,0.06,0.5,5.25,0.01,-0.0,-0.32,0.12,-0.12,0.06,165.67,195.0,0.0,0.0,0.0,0.0
1776450693845452205,35321,0.096,0.2,0.0,1.4,-0.04,-0.27,0.06,0.5,5.25,0.01,-0.02,-0.33,-0.0,0.06,0.12,166.36,195.0,0.0,0.0,0.0,0.0
1776450693947845875,35421,0.104,0.4,0.0,0.2,-0.02,-0.25,0.06,0.5,5.25,0.03,-0.0,-0.31,-0.0,-0.0,0.06,166.36,192.0,0.0,0.0,0.0,0.0
1776450694046136025,35521,0.0,1.3,0.0,0.8,0.02,0.0,0.06,0.5,5.25,0.01,-0.0,-0.33,-0.0,-0.06,-0.06,165.84,192.0,0.0,0.0,0.0,0.0
1776450694144437212,35620,0.0,0.9,0.076,0.5,-0.14,0.0,0.06,0.5,5.25,0.0,0.02,-0.34,-0.06,0.12,0.0,165.84,196.0,0.0,0.0,0.0,0.0
1776450694246794049,35721,0.0,0.6,0.064,0.5,0.0,-0.02,0.06,0.5,5.25,0.02,-0.0,-0.31,-0.0,-0.0,0.12,166.36,189.0,0.0,0.0,0.0,0.0
1776450694345104514,35821,0.0,0.2,0.0,1.4,-0.08,-0.08,0.06,0.5,5.25,0.0,-0.0,-0.33,-0.06,-0.12,-0.12,166.36,189.0,0.0,0.0,0.0,0.0
1776450694443397386,35920,0.104,0.3,0.0,1.5,0.02,-0.06,0.06,0.5,5.25,0.04,-0.0,-0.32,0.06,0.12,0.06,170.64,190.0,0.0,0.0,0.0,0.0
1776450694545793557,36020,0.104,0.2,0.0,1.6,0.1,-0.25,0.06,0.5,5.25,0.03,-0.02,-0.33,-0.06,0.06,-0.06,170.99,195.0,0.0,0.0,0.0,0.0
1776450694644114892,36121,0.1,0.4,0.0,1.5,0.02,-0.1,0.06,0.5,5.25,0.0,-0.0,-0.32,-0.0,-0.06,-0.06,166.36,195.0,0.0,0.0,0.0,0.0
1776450694746525821,36220,0.1,1.2,0.08,0.3,-0.08,-0.12,0.06,0.5,5.25,0.01,-0.03,-0.3,0.06,-0.0,0.19,166.36,194.0,0.0,0.0,0.0,0.0
1776450694848925547,36321,0.0,1.4,0.08,0.2,0.0,-0.04,0.06,0.5,5.25,0.01,-0.0,-0.33,-0.0,-0.06,0.0,165.67,194.0,0.0,0.0,0.0,0.0
1776450694947215623,36421,0.0,0.9,0.0,1.3,0.1,0.08,0.06,0.5,5.25,0.01,-0.0,-0.34,0.12,0.06,-0.06,166.36,197.0,0.0,0.0,0.0,0.0
1776450695045520829,36520,0.0,0.6,0.0,1.4,0.16,-0.08,0.06,0.5,5.25,0.01,-0.02,-0.33,-0.0,0.06,0.06,166.36,203.0,0.0,0.0,0.0,0.0
1776450695147916555,36620,0.0,1.4,0.0,1.4,-0.1,-0.06,0.06,0.5,5.25,0.03,-0.0,-0.31,0.12,-0.0,-0.12,166.36,203.0,0.0,0.0,0.0,0.0
1776450695280223403,36720,0.0,0.7,0.0,1.7,-0.16,-0.08,0.06,0.5,5.25,0.02,-0.01,-0.32,-0.06,-0.0,-0.06,166.36,191.0,0.0,0.0,0.0,0.0
1776450695344548299,36819,0.104,0.4,0.0,1.2,0.1,-0.06,0.06,0.5,5.25,0.0,-0.0,-0.34,0.19,-0.0,0.0,166.36,189.0,0.0,0.0,0.0,0.0
1776450695446892488,36919,0.0,0.7,0.0,1.6,0.14,-0.02,0.06,0.5,5.25,0.02,-0.0,-0.32,-0.12,-0.06,0.06,166.36,189.0,0.0,0.0,0.0,0.0
1776450695545203971,37019,0.0,0.1,0.0,0.3,0.06,0.02,0.06,0.5,5.25,0.02,-0.0,-0.33,-0.0,-0.0,0.06,166.36,192.0,0.0,0.0,0.0,0.0
1776450695643539955,37118,0.0,1.1,0.06,0.5,0.06,-0.04,0.06,0.5,5.25,0.02,0.01,-0.35,-0.0,0.06,0.06,166.36,191.0,0.0,0.0,0.0,0.0
1776450695745975847,37219,0.0,1.0,0.068,0.3,-0.1,-0.08,0.06,0.5,5.25,0.01,-0.0,-0.34,-0.06,-0.0,0.0,166.36,191.0,0.0,0.0,0.0,0.0
1776450695844218182,37319,0.0,1.3,0.0,1.1,0.12,0.12,0.06,0.5,5.25,0.02,-0.0,-0.36,-0.0,-0.06,0.06,165.84,195.0,0.0,0.0,0.0,0.0
1776450695992223945,37420,0.0,0.0,0.0,1.5,-0.08,-0.1,0.06,0.5,5.25,0.01,-0.01,-0.35,0.06,-0.0,0.0,166.87,199.0,0.0,0.0,0.0,0.0
1776450696049031171,37521,0.0,1.0,0.08,0.5,0.21,-0.14,0.06,0.5,5.25,0.01,-0.0,-0.34,0.12,-0.06,-0.12,165.67,199.0,0.0,0.0,0.0,0.0
1776450696147273951,37621,0.0,1.1,0.08,0.2,0.02,-0.25,0.06,0.5,5.25,0.01,-0.01,-0.31,-0.12,-0.06,0.0,165.67,190.0,0.0,0.0,0.0,0.0
1776450696245592841,37721,0.0,1.2,0.088,0.2,0.06,-0.04,0.06,0.5,5.25,0.01,-0.0,-0.33,-0.12,0.37,0.0,161.55,190.0,0.0,0.0,0.0,0.0
1776450696348073919,37821,0.092,0.2,0.0,1.5,0.14,-0.06,0.06,0.5,5.25,0.0,-0.01,-0.33,-0.0,0.06,0.12,161.55,201.0,0.0,0.0,0.0,0.0
1776450696446270606,37920,0.1,0.1,0.0,1.4,0.04,-0.04,0.06,0.5,5.25,0.01,-0.01,-0.37,-0.0,0.12,0.06,165.84,199.0,0.0,0.0,0.0,0.0
1776450696548702758,38021,0.1,0.1,0.0,1.5,-0.06,-0.06,0.06,0.5,5.25,0.03,-0.0,-0.35,-0.0,-0.19,-0.06,165.84,199.0,0.0,0.0,0.0,0.0
1776450696647013741,38121,0.104,0.4,0.0,1.4,-0.04,-0.08,0.06,0.5,5.25,0.0,-0.01,-0.36,-0.0,0.06,0.06,169.79,193.0,0.0,0.0,0.0,0.0
1776450696745297299,38220,0.1,0.3,0.0,1.7,-0.02,-0.04,0.06,0.5,5.25,0.01,-0.01,-0.34,-0.0,-0.12,0.0,166.36,195.0,0.0,0.0,0.0,0.0
1776450696900220360,38320,0.096,0.1,0.0,1.5,0.06,0.0,0.06,0.5,5.25,0.0,-0.0,-0.34,-0.0,-0.0,-0.06,167.38,195.0,0.0,0.0,0.0,0.0
1776450696946019878,38421,0.1,0.0,0.0,1.2,-0.02,-0.14,0.06,0.5,5.25,0.02,-0.01,-0.34,-0.12,-0.0,0.0,165.67,204.0,0.0,0.0,0.0,0.0
1776450697048405937,38520,0.1,0.3,0.0,1.2,0.04,-0.02,0.06,0.5,5.25,0.0,-0.0,-0.36,-0.06,0.06,0.06,166.36,196.0,0.0,0.0,0.0,0.0
1776450697146704958,38620,0.0,0.5,0.08,0.4,-0.02,0.18,0.06,0.5,5.25,0.01,-0.0,-0.35,0.06,-0.06,-0.06,166.36,196.0,0.0,0.0,0.0,0.0
1776450697249095517,38720,0.0,1.0,0.0,1.8,0.04,-0.06,0.06,0.5,5.25,0.02,-0.0,-0.33,0.06,-0.12,-0.06,165.84,190.0,0.0,0.0,0.0,0.0
1776450697347413185,38820,0.104,0.0,0.0,1.6,0.02,-0.08,0.06,0.5,5.25,0.01,-0.02,-0.35,0.06,-0.0,0.0,166.36,190.0,0.0,0.0,0.0,0.0
1776450697445631483,38920,0.1,0.4,0.0,1.5,0.0,-0.08,0.06,0.5,5.25,0.01,-0.0,-0.33,0.06,-0.0,0.06,166.36,186.0,0.0,0.0,0.0,0.0
1776450697548086283,39020,0.0,0.1,0.0,1.1,-0.02,-0.18,0.06,0.5,5.25,0.02,-0.0,-0.35,-0.0,-0.12,0.06,166.36,194.0,0.0,0.0,0.0,0.0
1776450697646394304,39120,0.0,0.7,0.0,1.5,0.02,-0.08,0.06,0.5,5.25,0.01,-0.0,-0.35,-0.0,-0.06,-0.12,166.36,194.0,0.0,0.0,0.0,0.0
1776450697748788770,39220,0.092,0.0,0.08,0.2,0.0,-0.02,0.06,0.5,5.25,0.0,-0.01,-0.37,-0.06,-0.0,-0.12,166.36,194.0,0.0,0.0,0.0,0.0
1776450697847100568,39320,0.0,0.3,0.056,0.3,-0.16,0.0,0.06,0.5,5.25,0.02,-0.0,-0.38,-0.12,0.25,0.0,166.36,196.0,0.0,0.0,0.0,0.0
1776450697945374404,39419,0.0,0.7,0.0,1.6,-0.04,-0.04,0.06,0.5,5.25,0.01,-0.0,-0.35,-0.0,-0.0,-0.12,166.36,196.0,0.0,0.0,0.0,0.0
1776450698047792278,39520,0.0,1.1,0.072,1.2,0.04,-0.06,0.06,0.5,5.25,0.01,-0.0,-0.34,0.06,-0.19,-0.12,166.36,190.0,0.0,0.0,0.0,0.0
1776450698146057835,39620,0.0,0.6,0.068,0.1,-0.02,-0.04,0.06,0.5,5.25,0.01,-0.0,-0.34,-0.06,0.12,-0.06,166.36,189.0,0.0,0.0,0.0,0.0
1776450698248485376,39720,0.0,0.7,0.072,0.2,-0.1,-0.06,0.06,0.5,5.25,0.02,-0.0,-0.36,-0.06,-0.0,-0.06,166.36,189.0,0.0,0.0,0.0,0.0
1776450698350886157,39821,0.0,0.7,0.088,0.5,-0.04,-0.12,0.06,0.5,5.25,0.0,-0.0,-0.36,-0.12,-0.06,0.06,166.36,188.0,0.0,0.0,0.0,0.0
1776450698449135788,39921,0.0,0.2,0.0,1.5,0.0,-0.18,0.06,0.5,5.25,0.02,-0.0,-0.36,-0.06,0.06,-0.06,166.36,191.0,0.0,0.0,0.0,0.0
1776450698551556829,40022,0.104,0.0,0.0,1.6,-0.08,-0.1,0.06,0.5,5.25,0.02,-0.0,-0.34,-0.06,0.12,0.06,170.47,191.0,0.0,0.0,0.0,0.0
1776450698649881664,40123,0.104,0.2,0.0,1.6,-0.18,-0.14,0.06,0.5,5.25,0.02,-0.0,-0.36,-0.12,-0.0,0.06,170.47,191.0,0.0,0.0,0.0,0.0
1776450698912212601,40222,0.1,0.5,0.084,0.5,0.04,-0.04,0.06,0.5,5.25,0.0,-0.0,-0.35,0.12,-0.19,0.0,166.36,191.0,0.0,0.0,0.0,0.0
1776450698948847820,40323,0.0,1.4,0.084,0.1,-0.06,-0.04,0.06,0.5,5.25,0.0,-0.02,-0.34,-0.06,-0.0,0.0,166.36,196.0,0.0,0.0,0.0,0.0
1776450698961259010,40423,0.0,1.2,0.0,1.3,-0.08,-0.06,0.06,0.5,5.25,0.02,-0.01,-0.35,-0.19,-0.0,0.12,166.36,193.0,0.0,0.0,0.0,0.0
1776450699051265101,40522,0.1,0.3,0.072,0.2,-0.02,-0.08,0.06,0.5,5.25,0.02,-0.0,-0.35,-0.0,0.06,0.0,166.36,193.0,0.0,0.0,0.0,0.0
1776450699149574195,40622,0.0,1.2,0.0,1.1,-0.06,-0.02,0.06,0.5,5.25,0.01,-0.02,-0.34,0.06,-0.0,0.06,167.38,195.0,0.0,0.0,0.0,0.0
1776450699251969940,40723,0.1,0.1,0.0,0.7,-0.08,-0.18,0.06,0.5,5.25,0.01,-0.0,-0.36,-0.0,-0.0,0.0,166.36,196.0,0.0,0.0,0.0,0.0
1776450699350265775,40822,0.0,1.0,0.0,0.3,0.02,-0.02,0.06,0.5,5.25,0.01,-0.01,-0.34,0.06,0.12,-0.12,166.36,196.0,0.0,0.0,0.0,0.0
1776450699452616852,40922,0.1,0.5,0.076,0.5,-0.08,-0.08,0.06,0.5,5.25,0.01,0.01,-0.35,0.12,0.19,-0.06,166.36,194.0,0.0,0.0,0.0,0.0
1776450699550973743,41022,0.1,0.1,0.0,1.5,-0.02,-0.18,0.06,0.5,5.25,0.01,-0.0,-0.34,-0.0,-0.0,-0.06,166.36,194.0,0.0,0.0,0.0,0.0
1776450699653395321,41123,0.1,0.3,0.0,1.7,-0.06,-0.12,0.06,0.5,5.25,0.01,-0.02,-0.38,-0.12,0.19,0.12,166.36,191.0,0.0,0.0,0.0,0.0
1776450699751663804,41224,0.1,0.9,0.076,0.3,-0.02,-0.06,0.06,0.5,5.25,0.01,-0.01,-0.36,-0.0,0.19,0.12,166.36,199.0,0.0,0.0,0.0,0.0
1776450699854074419,41324,0.0,0.2,0.0,1.3,0.1,-0.12,0.06,0.5,5.25,0.02,0.01,-0.36,-0.0,-0.19,0.0,166.36,199.0,0.0,0.0,0.0,0.0
1776450699952368421,41423,0.1,0.4,0.0,0.0,-0.02,-0.12,0.06,0.5,5.25,0.02,-0.0,-0.36,-0.19,-0.06,0.0,166.36,195.0,0.0,0.0,0.0,0.0
1776450700060720390,41523,0.0,0.4,0.0,1.5,-0.06,-0.21,0.06,0.5,5.25,0.0,-0.0,-0.36,-0.0,-0.06,0.0,166.36,210.0,0.0,0.0,0.0,0.0
1776450700153059667,41624,0.0,1.3,0.0,1.0,-0.06,-0.06,0.06,0.5,5.25,0.01,-0.0,-0.36,-0.06,-0.12,0.06,166.36,210.0,0.0,0.0,0.0,0.0
1776450700251357928,41723,0.108,0.4,0.0,1.3,-0.06,-0.18,0.06,0.5,5.25,0.01,-0.02,-0.35,-0.0,-0.06,-0.06,166.36,201.0,0.0,0.0,0.0,0.0
1776450700353740043,41824,0.0,0.9,0.068,0.2,-0.08,-0.1,0.06,0.5,5.25,0.0,-0.0,-0.34,0.12,-0.06,0.06,166.36,193.0,0.0,0.0,0.0,0.0
1776450700452027748,41924,0.0,0.8,0.0,1.6,0.12,-0.02,0.06,0.5,5.25,0.04,-0.0,-0.33,0.12,-0.06,0.0,166.36,193.0,0.0,0.0,0.0,0.0
1776450700550339917,42023,0.0,0.5,0.0,0.9,0.08,-0.02,0.06,0.5,5.25,0.01,-0.02,-0.34,-0.06,0.19,-0.06,166.36,192.0,0.0,0.0,0.0,0.0
1776450700832217510,42123,0.0,0.9,0.0,0.0,0.06,-0.25,0.06,0.5,5.25,0.01,0.01,-0.34,-0.06,-0.12,0.06,166.36,187.0,0.0,0.0,0.0,0.0
1776450700853471722,42223,0.0,1.1,0.072,0.2,0.02,-0.06,0.06,0.5,5.25,0.01,-0.0,-0.35,0.06,0.06,-0.06,166.36,187.0,0.0,0.0,0.0,0.0
1776450700866317005,42322,0.0,1.3,0.0,1.2,-0.1,-0.14,0.06,0.5,5.25,0.01,-0.01,-0.34,-0.0,0.12,0.12,170.47,196.0,0.0,0.0,0.0,0.0
1776450700951702132,42423,0.0,0.6,0.076,0.3,-0.06,0.02,0.06,0.5,5.25,0.01,-0.01,-0.33,-0.12,-0.06,0.06,167.56,196.0,0.0,0.0,0.0,0.0
1776450701054136283,42524,0.0,1.2,0.08,0.1,0.02,-0.08,0.06,0.5,5.25,0.02,-0.0,-0.35,0.06,0.06,0.0,166.36,200.0,0.0,0.0,0.0,0.0
1776450701152446230,42624,0.0,0.2,0.08,0.3,0.08,-0.1,0.06,0.5,5.25,0.02,-0.01,-0.32,0.06,0.12,0.0,166.36,199.0,0.0,0.0,0.0,0.0
1776450701254834752,42724,0.0,0.8,0.0,1.2,0.06,-0.16,0.06,0.5,5.25,0.04,-0.01,-0.35,-0.0,-0.19,0.12,170.47,199.0,0.0,0.0,0.0,0.0
1776450701353126846,42824,0.036,1.3,0.1,0.3,-0.06,0.02,0.06,0.5,5.25,0.02,-0.0,-0.35,-0.06,-0.06,0.06,166.36,190.0,0.0,0.0,0.0,0.0
1776450701455557757,42925,0.0,1.4,0.084,0.2,-0.04,-0.1,0.06,0.5,5.25,0.01,0.01,-0.33,-0.0,-0.06,-0.06,166.36,183.0,0.0,0.0,0.0,0.0
1776450701553836814,43025,0.0,1.4,0.0,1.1,0.0,-0.06,0.06,0.5,5.25,0.01,-0.0,-0.33,0.12,-0.06,0.06,166.36,183.0,0.0,0.0,0.0,0.0
1776450701656251762,43125,0.1,0.2,0.0,1.2,0.1,0.0,0.06,0.5,5.25,0.0,-0.0,-0.34,-0.06,-0.06,-0.12,166.36,196.0,0.0,0.0,0.0,0.0
1776450701754540098,43225,0.108,0.2,0.0,1.3,-0.02,-0.08,0.06,0.5,5.25,0.01,-0.0,-0.35,-0.0,-0.06,0.0,166.36,195.0,0.0,0.0,0.0,0.0
1776450701856930934,43325,0.068,0.9,0.076,0.2,0.0,-0.08,0.06,0.5,5.25,0.01,-0.0,-0.34,0.06,0.12,0.0,166.36,195.0,0.0,0.0,0.0,0.0
1776450701955204325,43426,0.0,0.8,0.076,0.2,0.14,-0.02,0.06,0.5,5.25,0.0,-0.0,-0.33,-0.0,-0.25,-0.06,166.36,201.0,0.0,0.0,0.0,0.0
1776450702057649125,43527,0.096,0.1,0.084,0.3,0.16,-0.08,0.06,0.5,5.25,0.01,-0.0,-0.32,-0.0,-0.0,0.06,166.36,201.0,0.0,0.0,0.0,0.0
1776450702155932238,43627,0.0,0.1,0.0,0.7,0.06,-0.14,0.06,0.5,5.25,0.01,-0.02,-0.34,-0.06,-0.0,-0.06,166.36,193.0,0.0,0.0,0.0,0.0
1776450702258337982,43726,0.1,0.7,0.076,0.3,0.04,-0.06,0.06,0.5,5.25,0.01,-0.0,-0.32,-0.06,0.06,-0.06,169.96,202.0,0.0,0.0,0.0,0.0
1776450702424198715,43827,0.0,0.0,0.0,1.3,-0.02,0.04,0.06,0.5,5.25,0.0,0.01,-0.32,0.12,0.06,0.0,166.36,202.0,0.0,0.0,0.0,0.0
1776450702459020117,43927,0.104,0.3,0.0,1.2,-0.04,-0.06,0.06,0.5,5.25,0.03,-0.01,-0.33,-0.0,0.12,0.0,166.36,193.0,0.0,0.0,0.0,0.0
1776450702557312842,44026,0.1,0.3,0.076,0.4,0.0,-0.14,0.06,0.5,5.25,0.02,-0.0,-0.34,0.12,-0.0,0.0,166.36,196.0,0.0,0.0,0.0,0.0
1776450702665695773,44126,0.0,0.3,0.0,1.5,-0.06,-0.06,0.06,0.5,5.25,0.01,-0.0,-0.3,-0.12,-0.19,0.0,167.38,196.0,0.0,0.0,0.0,0.0
1776450702758038551,44227,0.092,0.1,0.0,1.4,-0.02,-0.08,0.06,0.5,5.25,0.02,-0.01,-0.32,-0.0,-0.19,0.06,165.67,192.0,0.0,0.0,0.0,0.0
1776450703044216405,44326,0.0,1.2,0.088,0.1,0.02,-0.08,0.06,0.5,5.25,0.02,-0.01,-0.32,0.12,-0.06,0.06,166.36,190.0,0.0,0.0,0.0,0.0
1776450703057043058,44426,0.0,0.1,0.0,1.3,-0.02,-0.18,0.06,0.5,5.25,0.0,-0.02,-0.34,0.12,-0.25,0.0,166.36,190.0,0.0,0.0,0.0,0.0
1776450703069436137,44526,0.1,0.2,0.0,1.1,-0.1,-0.06,0.06,0.5,5.25,0.02,-0.01,-0.34,0.06,-0.0,0.0,166.36,188.0,0.0,0.0,0.0,0.0
1776450703165367008,44626,0.092,0.3,0.076,0.1,0.06,0.02,0.06,0.5,5.25,0.01,-0.01,-0.34,-0.06,0.19,0.19,166.36,188.0,0.0,0.0,0.0,0.0
1776450703257724637,44726,0.0,0.7,0.076,0.1,-0.02,0.04,0.06,0.5,5.25,0.01,-0.0,-0.35,-0.0,-0.0,0.19,162.24,192.0,0.0,0.0,0.0,0.0
1776450703360167326,44827,0.0,1.0,0.0,1.6,0.08,-0.14,0.06,0.5,5.25,0.03,-0.01,-0.32,-0.5,-0.19,0.37,162.07,191.0,0.0,0.0,0.0,0.0
1776450703458390272,44926,0.104,0.3,0.0,1.3,0.04,-0.06,0.12,0.5,5.13,0.46,-0.0,-0.36,-3.06,-0.19,2.0,165.67,191.0,0.0,0.0,0.0,0.0
1776450703556688811,45026,0.1,0.2,0.0,0.3,0.02,-0.04,0.37,0.56,5.0,0.14,0.04,-0.35,0.75,0.25,2.75,166.53,199.0,0.0,0.0,0.0,0.0
1776450703659125519,45127,0.0,1.3,0.0,1.0,0.02,-0.1,0.63,0.56,5.0,-0.12,-0.08,-0.35,-0.25,0.12,2.38,165.67,188.0,0.0,0.0,0.0,0.0
1776450703757383057,45227,0.096,0.4,0.0,1.1,-0.08,0.0,0.81,0.56,5.06,-0.11,-0.03,-0.37,-1.0,0.06,1.25,161.55,188.0,0.0,0.0,0.0,0.0
1776450703865763100,45327,0.0,1.0,0.084,0.5,0.08,-0.08,0.94,0.56,5.0,0.08,-0.0,-0.29,-0.69,0.12,1.56,161.55,202.0,0.0,0.0,0.0,0.0
1776450703958170563,45426,0.0,1.0,0.084,0.5,0.02,-0.04,1.06,0.63,4.94,-0.03,-0.01,-0.32,0.25,0.37,1.56,166.87,188.0,0.0,0.0,0.0,0.0
1776450704060516696,45527,0.0,0.7,0.08,0.1,0.0,-0.06,1.25,0.63,4.94,0.06,-0.0,-0.34,-0.75,-0.0,1.88,165.67,188.0,0.0,0.0,0.0,0.0
1776450704158805013,45627,0.0,0.9,0.088,0.0,-0.08,-0.14,1.44,0.63,4.88,0.16,-0.0,-0.31,-0.69,0.19,2.25,165.84,193.0,0.0,0.0,0.0,0.0
1776450704257126922,45726,0.0,0.9,0.084,0.4,-0.08,-0.06,1.69,0.63,4.81,0.18,-0.0,-0.33,-0.63,0.37,3.13,166.87,193.0,0.0,0.0,0.0,0.0
1776450704359500685,45827,0.0,0.2,0.06,0.3,0.04,-0.04,2.06,0.69,4.69,0.15,-0.04,-0.35,-0.69,0.37,3.75,165.67,183.0,0.0,0.0,0.0,0.0
1776450704457773928,45927,0.0,-0.2,0.0,0.5,0.16,-0.08,2.38,0.69,4.69,0.04,-0.03,-0.36,-0.25,0.06,3.44,165.67,184.0,0.0,0.0,0.0,0.0
1776450704560258764,46027,0.0,0.7,0.072,0.3,-0.02,-0.06,2.75,0.75,4.63,0.07,-0.02,-0.34,-0.75,0.19,3.31,165.67,184.0,0.0,0.0,0.0,0.0
1776450704658451803,46128,0.0,1.0,0.08,0.6,-0.12,0.0,3.06,0.75,4.63,0.0,-0.02,-0.34,-0.5,0.37,3.06,165.84,196.0,0.0,0.0,0.0,0.0
1776450704760907751,46228,0.0,0.6,0.0,1.6,0.0,-0.12,3.31,0.75,4.63,-0.09,-0.03,-0.34,-0.0,0.37,3.06,165.67,192.0,0.0,0.0,0.0,0.0
1776450704859209198,46328,0.092,0.2,0.0,1.6,0.02,-0.18,3.63,0.81,4.63,-0.05,-0.03,-0.35,-0.69,-0.0,2.69,165.67,192.0,0.0,0.0,0.0,0.0
1776450704961593960,46428,0.1,0.1,0.0,0.3,0.04,-0.08,3.88,0.81,4.63,-0.05,-0.03,-0.35,-0.56,0.44,2.25,165.67,194.0,0.0,0.0,0.0,0.0
1776450705059895555,46528,0.0,1.0,0.0,1.0,0.12,-0.1,4.06,0.81,4.56,0.01,-0.03,-0.33,-0.12,0.37,2.06,166.36,191.0,0.0,0.0,0.0,0.0
1776450705158204297,46627,0.0,0.9,0.0,1.2,-0.18,-0.16,4.25,0.88,4.56,0.09,-0.03,-0.32,-0.44,0.12,1.94,166.36,191.0,0.0,0.0,0.0,0.0
1776450705260600060,46727,0.0,1.1,0.088,0.1,0.0,-0.14,4.44,0.88,4.56,0.18,-0.08,-0.33,-0.75,-0.12,2.06,166.18,193.0,0.0,0.0,0.0,0.0
1776450705358864821,46828,0.096,-0.1,0.0,1.3,0.04,0.08,4.63,0.88,4.5,0.16,-0.03,-0.34,0.25,0.19,1.75,166.36,185.0,0.0,0.0,0.0,0.0
1776450705461255640,46927,0.0,1.0,0.008,0.3,-0.04,-0.16,4.81,0.88,4.56,-0.04,-0.08,-0.37,1.75,0.25,1.12,166.36,185.0,0.0,0.0,0.0,0.0
1776450705559588086,47028,0.0,1.4,0.0,0.2,-0.1,-0.08,4.88,0.88,4.69,-0.03,-0.08,-0.31,-0.81,-0.12,0.75,166.36,193.0,0.0,0.0,0.0,0.0
1776450705662031404,47128,0.0,1.0,0.08,0.4,0.02,-0.14,4.94,0.88,4.69,0.11,-0.05,-0.34,-0.31,0.12,0.81,166.36,193.0,0.0,0.0,0.0,0.0
1776450705760297814,47227,0.0,0.2,0.0,1.5,-0.08,-0.06,5.0,0.88,4.69,-0.01,-0.06,-0.32,0.37,-0.0,0.5,165.84,191.0,0.0,0.0,0.0,0.0
1776450705862715614,47328,0.0,1.4,0.0,1.3,0.02,-0.14,5.0,0.81,4.69,-0.06,-0.05,-0.35,0.88,0.12,0.12,166.7,196.0,0.0,0.0,0.0,0.0
1776450705960989541,47429,0.0,0.7,0.0,1.5,0.0,-0.14,5.0,0.81,4.75,0.08,-0.07,-0.33,-0.44,-0.12,0.19,166.36,196.0,0.0,0.0,0.0,0.0
1776450706069338973,47528,0.0,1.3,0.088,0.3,0.1,-0.02,5.0,0.81,4.75,0.05,-0.07,-0.32,-0.12,0.19,-0.19,166.36,197.0,0.0,0.0,0.0,0.0
1776450706161684010,47628,0.0,1.2,0.084,0.4,0.04,-0.06,5.0,0.81,4.63,0.34,-0.07,-0.34,-0.5,-0.12,-0.12,166.36,197.0,0.0,0.0,0.0,0.0
1776450706259988734,47728,0.0,1.2,0.084,0.1,-0.04,-0.12,4.88,0.75,4.69,-0.09,-0.06,-0.32,1.5,0.44,-1.37,165.67,197.0,0.0,0.0,0.0,0.0
1776450706358257625,47827,0.0,0.5,0.0,0.6,0.02,-0.12,4.81,0.75,4.69,0.12,-0.06,-0.34,-0.88,-0.19,-1.06,166.36,197.0,0.0,0.0,0.0,0.0
1776450706460642573,47927,0.0,0.7,0.08,0.3,0.06,-0.08,4.69,0.75,4.69,0.09,-0.01,-0.31,0.25,0.06,-0.88,165.67,197.0,0.0,0.0,0.0,0.0
1776450706558949778,48027,0.0,1.1,0.0,1.4,0.06,0.04,4.63,0.69,4.63,0.1,-0.04,-0.36,0.88,0.31,-0.69,166.36,192.0,0.0,0.0,0.0,0.0
1776450706661380615,48126,0.004,0.4,0.088,0.5,0.02,-0.02,4.56,0.69,4.69,0.05,-0.06,-0.33,0.31,0.25,-0.63,166.36,189.0,0.0,0.0,0.0,0.0
1776450706759681320,48227,0.0,1.0,0.0,1.4,0.08,-0.14,4.5,0.69,4.75,0.02,-0.07,-0.35,0.31,0.12,-0.75,162.07,189.0,0.0,0.0,0.0,0.0
1776450706862073935,48327,0.092,0.3,0.0,0.2,0.08,-0.21,4.44,0.69,4.69,0.15,-0.09,-0.3,-0.19,-0.0,-0.69,166.87,194.0,0.0,0.0,0.0,0.0
1776450706960352641,48428,0.0,0.7,0.084,0.1,0.02,-0.08,4.38,0.63,4.69,0.14,-0.01,-0.36,1.19,0.37,-0.56,166.36,194.0,0.0,0.0,0.0,0.0
1776450707062774496,48528,0.0,0.9,0.0,1.6,0.04,-0.04,4.38,0.56,4.81,-0.01,-0.06,-0.32,1.5,0.94,-0.31,166.36,194.0,0.0,0.0,0.0,0.0
1776450707161080109,48628,0.096,0.0,0.0,1.6,-0.04,0.0,4.38,0.5,4.88,-0.04,-0.1,-0.34,0.94,0.81,-0.06,166.36,196.0,0.0,0.0,0.0,0.0
1776450707263466835,48728,0.0,1.3,0.08,0.3,0.04,-0.02,4.38,0.44,4.94,0.05,-0.08,-0.33,0.44,0.44,0.25,166.36,190.0,0.0,0.0,0.0,0.0
1776450707361781429,48828,0.0,0.9,0.0,1.1,-0.06,-0.16,4.38,0.44,5.0,-0.07,-0.05,-0.3,0.37,0.56,0.37,167.38,190.0,0.0,0.0,0.0,0.0
1776450707520205140,48929,0.096,0.6,0.0,1.5,0.08,0.0,4.44,0.44,5.0,-0.04,-0.03,-0.34,1.31,0.5,0.75,166.36,198.0,0.0,0.0,0.0,0.0
1776450707562478824,49029,0.092,0.3,0.088,0.1,0.0,-0.02,4.5,0.37,5.13,0.08,-0.13,-0.36,-0.44,-0.0,0.69,166.36,191.0,0.0,0.0,0.0,0.0
1776450707664863790,49129,0.0,1.4,0.1,0.3,0.06,-0.18,4.56,0.37,5.06,0.09,-0.07,-0.32,0.25,0.31,0.63,166.36,191.0,0.0,0.0,0.0,0.0
1776450708440208153,49229,0.0,1.1,0.084,0.0,-0.06,-0.18,4.63,0.37,5.06,0.21,-0.09,-0.34,-0.0,0.12,1.31,166.36,193.0,0.0,0.0,0.0,0.0
1776450708463552847,49329,0.0,0.7,0.0,0.9,0.0,-0.14,4.75,0.31,5.06,0.09,-0.04,-0.33,0.81,0.75,1.25,166.36,193.0,0.0,0.0,0.0,0.0
1776450708471912165,49429,0.0,0.5,0.0,1.5,-0.14,-0.06,4.94,0.25,5.06,0.12,-0.13,-0.34,-0.12,0.75,1.69,166.87,188.0,0.0,0.0,0.0,0.0
1776450708487363412,49529,0.0,0.3,0.0,1.2,0.04,0.0,5.13,0.25,5.06,0.22,-0.06,-0.35,-0.25,0.44,2.06,166.36,190.0,0.0,0.0,0.0,0.0
1776450708500789288,49629,0.1,0.2,0.0,1.2,-0.12,-0.04,5.38,0.19,5.0,0.09,-0.03,-0.34,0.56,1.25,3.13,166.87,190.0,0.0,0.0,0.0,0.0
1776450708561829238,49730,0.1,0.2,0.06,0.3,-0.06,-0.06,5.69,0.06,5.0,0.03,-0.05,-0.37,0.56,1.0,3.38,161.55,183.0,0.0,0.0,0.0,0.0
1776450708575095632,49829,0.0,1.0,0.092,0.3,-0.04,-0.02,6.0,-0.0,5.0,0.01,-0.08,-0.33,-0.0,0.75,3.13,165.84,187.0,0.0,0.0,0.0,0.0
1776450708587429303,49929,0.0,0.2,0.0,1.6,0.02,-0.02,6.31,-0.0,5.0,0.06,-0.08,-0.34,0.31,0.44,3.06,165.67,187.0,0.0,0.0,0.0,0.0
1776450708600367531,50029,0.096,0.3,0.0,1.4,-0.16,-0.08,6.56,-0.0,5.13,-0.11,-0.06,-0.35,1.56,1.0,2.25,165.15,190.0,0.0,0.0,0.0,0.0
1776450708664260612,50128,0.1,0.1,0.0,1.3,-0.04,0.04,6.75,-0.06,5.19,0.14,-0.13,-0.37,-0.81,0.12,1.88,165.15,190.0,0.0,0.0,0.0,0.0
1776450708762522873,50228,0.096,1.5,0.076,0.3,0.08,-0.04,6.88,-0.06,5.13,0.0,-0.04,-0.38,1.12,0.5,0.63,165.15,190.0,0.0,0.0,0.0,0.0
1776450708864948099,50328,0.0,1.3,0.0,1.0,0.08,0.02,6.88,-0.19,5.44,-0.34,-0.08,-0.34,1.81,1.12,-0.37,165.15,197.0,0.0,0.0,0.0,0.0
1776450708963256211,50428,0.1,0.4,0.0,1.0,0.0,-0.14,6.88,-0.31,5.81,-0.02,-0.16,-0.34,-0.88,-0.12,-0.25,165.15,197.0,0.0,0.0,0.0,0.0
1776450709096220746,50528,0.1,0.2,0.084,0.4,0.06,-0.16,6.88,-0.25,5.63,0.42,0.01,-0.31,-0.63,-1.0,-0.81,165.15,189.0,0.0,0.0,0.0,0.0
1776450709163960698,50628,0.0,0.5,0.076,0.3,-0.08,-0.06,6.75,-0.25,5.38,0.44,-0.09,-0.31,-0.5,-0.06,-0.94,168.58,204.0,0.0,0.0,0.0,0.0
1776450709262245737,50727,0.0,0.0,0.0,1.6,0.1,0.02,6.75,-0.31,5.06,0.3,0.05,-0.38,1.25,0.25,-0.44,168.76,204.0,0.0,0.0,0.0,0.0
1776450709364645019,50827,0.0,1.3,0.0,1.0,-0.12,-0.12,6.69,-0.37,5.06,-0.04,-0.09,-0.33,-0.31,0.94,-0.44,168.76,193.0,0.0,0.0,0.0,0.0
1776450709462934909,50927,0.0,1.2,0.1,0.3,0.04,-0.2,6.69,-0.44,5.13,-0.03,-0.04,-0.35,-0.19,0.63,0.12,168.76,201.0,0.0,0.0,0.0,0.0
1776450709561242448,51026,0.0,-0.1,0.0,1.5,-0.16,-0.04,6.69,-0.5,5.13,-0.08,-0.02,-0.35,0.25,0.63,0.12,169.27,201.0,0.0,0.0,0.0,0.0
1776450709663650470,51127,0.0,1.3,0.084,0.0,0.04,-0.06,6.69,-0.56,5.13,-0.01,-0.07,-0.33,-0.63,0.31,0.44,165.15,188.0,0.0,0.0,0.0,0.0
1776450709762010509,51227,0.0,0.9,0.08,0.2,0.1,-0.04,6.75,-0.56,5.06,0.12,-0.05,-0.35,-0.56,0.06,0.94,165.15,194.0,0.0,0.0,0.0,0.0
1776450709864347291,51328,0.0,0.9,0.0,1.7,0.02,0.0,6.88,-0.56,4.94,0.32,-0.04,-0.35,-0.69,0.19,1.56,165.15,194.0,0.0,0.0,0.0,0.0
1776450709962651237,51428,0.092,1.1,0.092,0.2,0.08,-0.08,7.0,-0.63,4.88,0.01,-0.01,-0.36,-0.06,1.31,1.19,165.15,195.0,0.0,0.0,0.0,0.0
1776450710065054148,51528,0.0,1.3,0.0,1.1,0.06,-0.1,7.13,-0.69,4.88,-0.01,-0.1,-0.35,-0.69,0.88,1.44,164.13,191.0,0.0,0.0,0.0,0.0
1776450710163341020,51628,0.096,0.2,0.0,1.1,0.02,-0.12,7.25,-0.75,4.81,0.08,-0.05,-0.34,-0.06,0.25,1.19,165.15,191.0,0.0,0.0,0.0,0.0
1776450710269649877,51728,0.092,0.0,0.064,0.3,-0.12,-0.04,7.38,-0.75,4.81,0.03,-0.05,-0.39,0.06,0.63,1.0,169.27,196.0,0.0,0.0,0.0,0.0
1776450710364092914,51827,0.0,0.2,0.0,1.5,0.04,0.08,7.5,-0.81,4.81,0.0,-0.1,-0.35,-0.25,0.69,1.31,169.27,196.0,0.0,0.0,0.0,0.0
1776450710462321268,51927,0.0,1.3,0.084,0.5,0.02,0.02,7.63,-0.81,4.75,0.18,-0.04,-0.37,-0.56,0.25,1.5,165.67,199.0,0.0,0.0,0.0,0.0
1776450710564724697,52027,0.0,1.6,0.088,0.6,-0.14,-0.1,7.81,-0.88,4.69,0.22,-0.06,-0.35,-0.69,0.44,2.0,161.55,200.0,0.0,0.0,0.0,0.0
1776450710663041755,52127,0.0,1.3,0.0,0.2,-0.16,-0.02,8.0,-0.88,4.63,0.11,-0.04,-0.36,-0.19,0.69,2.19,165.67,200.0,0.0,0.0,0.0,0.0
1776450710765450888,52227,0.0,0.9,0.0,0.2,0.16,0.08,8.25,-0.88,4.63,0.05,-0.11,-0.35,-0.44,0.56,2.06,165.84,182.0,0.0,0.0,0.0,0.0
1776450710863736390,52327,0.0,1.3,0.084,0.5,0.02,-0.18,8.44,-0.94,4.63,0.08,-0.09,-0.33,-0.25,0.44,1.81,161.55,194.0,0.0,0.0,0.0,0.0
1776450710962038095,52426,0.0,1.4,0.088,0.3,0.04,-0.04,8.56,-0.94,4.63,0.15,-0.1,-0.39,-0.69,0.12,1.88,161.55,194.0,0.0,0.0,0.0,0.0
1776450711212202472,52526,0.0,1.4,0.084,0.5,-0.08,-0.14,8.75,-0.94,4.56,0.04,-0.07,-0.37,-0.44,0.37,1.63,165.84,186.0,0.0,0.0,0.0,0.0
1776450711265142104,52626,0.0,1.2,0.0,1.0,-0.02,-0.08,8.88,-0.94,4.56,0.02,-0.08,-0.36,0.19,0.12,1.44,165.84,186.0,0.0,0.0,0.0,0.0
1776450711269256662,52726,0.0,0.8,0.0,0.4,0.12,-0.04,8.94,-0.94,4.56,0.02,-0.11,-0.36,-0.12,-0.12,0.44,161.55,189.0,0.0,0.0,0.0,0.0
1776450711363398643,52827,0.0,0.2,0.0,1.0,0.06,-0.06,8.94,-1.0,4.56,0.12,-0.08,-0.38,-0.37,-0.5,0.12,161.55,193.0,0.0,0.0,0.0,0.0
1776450711465783702,52928,0.0,0.9,0.0,1.7,-0.02,0.0,8.94,-1.0,4.5,0.33,-0.11,-0.36,-1.25,-0.81,0.0,165.84,193.0,0.0,0.0,0.0,0.0
1776450711564100963,53028,0.096,0.3,0.0,1.1,0.04,-0.04,8.94,-1.0,4.31,0.23,-0.04,-0.37,0.25,-0.31,-0.19,166.18,196.0,0.0,0.0,0.0,0.0
1776450711666555708,53129,0.0,0.0,0.0,1.1,0.04,-0.1,8.94,-1.0,4.25,0.23,-0.05,-0.36,-0.25,-0.44,-0.25,165.15,190.0,0.0,0.0,0.0,0.0
1776450711764798654,53229,0.092,0.1,0.0,1.3,0.06,0.04,8.94,-1.06,4.13,0.19,-0.0,-0.37,-0.31,-0.19,-0.81,166.36,190.0,0.0,0.0,0.0,0.0
1776450711867213972,53329,0.0,0.6,0.0,1.7,-0.08,0.0,8.88,-1.06,4.13,0.08,-0.02,-0.37,-0.19,0.25,-1.25,165.84,186.0,0.0,0.0,0.0,0.0
1776450711965517067,53429,0.104,0.0,0.072,0.3,0.12,-0.18,8.75,-1.06,4.13,0.05,-0.11,-0.35,-0.63,0.56,-1.31,165.67,184.0,0.0,0.0,0.0,0.0
1776450712067916681,53529,0.0,0.4,0.0,1.2,0.0,-0.04,8.63,-1.12,4.06,0.12,-0.09,-0.38,-0.12,-0.31,-1.06,165.84,184.0,0.0,0.0,0.0,0.0
1776450712166217665,53628,0.104,0.1,0.0,1.2,0.08,-0.04,8.5,-1.12,4.06,0.05,-0.04,-0.38,-0.06,0.06,-1.44,165.84,194.0,0.0,0.0,0.0,0.0
1776450712268636557,53729,0.096,0.1,0.0,0.7,0.0,-0.02,8.38,-1.12,4.06,0.03,-0.08,-0.38,-0.12,0.12,-1.12,165.67,210.0,0.0,0.0,0.0,0.0
1776450712396191867,53830,0.0,0.1,0.088,0.2,0.04,-0.02,8.25,-1.19,4.06,-0.05,-0.08,-0.37,0.69,0.06,-1.19,165.67,210.0,0.0,0.0,0.0,0.0
1776450712469249451,53929,0.0,1.2,0.084,0.3,-0.08,-0.1,8.19,-1.19,4.06,0.11,-0.1,-0.36,-0.31,-0.19,-1.19,165.67,192.0,0.0,0.0,0.0,0.0
1776450712567588750,54030,0.0,1.1,0.088,0.4,0.0,-0.16,8.06,-1.25,4.06,0.11,-0.06,-0.33,-0.31,-0.44,-1.06,169.27,192.0,0.0,0.0,0.0,0.0
1776450712670039438,54131,0.0,1.1,0.0,1.1,0.08,0.02,7.94,-1.25,3.94,0.2,-0.05,-0.39,0.63,-0.44,-0.88,165.15,198.0,0.0,0.0,0.0,0.0
1776450712768309792,54231,0.096,0.1,0.0,1.2,0.08,-0.04,7.88,-1.31,3.88,0.11,-0.06,-0.36,0.44,-0.19,-0.5,165.15,192.0,0.0,0.0,0.0,0.0
1776450712870714592,54331,0.0,0.9,0.0,1.3,-0.1,0.06,7.88,-1.31,3.88,0.07,-0.06,-0.34,0.31,-0.37,-0.25,165.15,192.0,0.0,0.0,0.0,0.0
1776450712969014094,54431,0.0,1.4,0.084,0.2,-0.02,-0.06,7.88,-1.31,3.88,0.17,-0.07,-0.36,-0.19,-0.63,-0.63,165.15,192.0,0.0,0.0,0.0,0.0
1776450713077370174,54531,0.0,1.1,0.0,0.1,-0.02,0.08,7.88,-1.31,3.81,0.15,-0.03,-0.38,0.31,-0.37,-0.19,165.15,195.0,0.0,0.0,0.0,0.0
1776450713169708766,54631,0.0,1.1,0.084,0.6,-0.1,-0.14,7.88,-1.31,3.81,0.27,-0.05,-0.33,-0.31,-0.69,0.12,165.15,195.0,0.0,0.0,0.0,0.0
1776450713272115380,54732,0.0,1.0,0.088,0.5,0.1,-0.02,7.88,-1.31,3.69,0.23,-0.04,-0.36,0.12,-0.88,0.12,165.15,189.0,0.0,0.0,0.0,0.0
1776450713370326419,54833,0.0,0.5,0.084,0.1,0.0,-0.08,7.88,-1.19,3.63,0.11,-0.04,-0.37,1.12,-0.75,-0.44,165.15,191.0,0.0,0.0,0.0,0.0
1776450713472766441,54934,0.0,1.4,0.088,0.2,0.04,-0.06,7.75,-1.19,3.69,0.17,-0.08,-0.38,-0.5,-1.0,-1.37,164.98,191.0,0.0,0.0,0.0,0.0
1776450713571097091,55033,0.0,0.1,0.088,0.4,0.06,-0.12,7.63,-1.12,3.75,0.08,-0.07,-0.33,1.0,-0.94,-1.56,164.64,192.0,0.0,0.0,0.0,0.0
1776450713669371612,55133,0.0,0.5,0.0,1.4,0.04,-0.06,7.44,-1.06,3.69,0.24,-0.05,-0.38,0.94,-1.0,-2.06,164.64,192.0,0.0,0.0,0.0,0.0
1776450713771811189,55233,0.1,0.3,0.0,1.7,-0.1,-0.14,7.19,-1.0,3.75,0.19,-0.07,-0.32,0.5,-0.81,-2.69,168.07,190.0,0.0,0.0,0.0,0.0
1776450713920218285,55332,0.096,0.3,0.0,0.1,-0.02,-0.16,6.94,-0.94,3.63,0.31,-0.01,-0.43,2.13,-0.37,-2.63,168.07,183.0,0.0,0.0,0.0,0.0
1776450713972508343,55432,0.0,1.4,0.084,0.2,-0.06,-0.2,6.75,-0.94,3.88,-0.11,-0.02,-0.35,2.5,-0.56,-1.5,168.07,183.0,0.0,0.0,0.0,0.0
1776450714070798956,55533,0.0,1.2,0.084,0.3,0.0,-0.04,6.63,-1.0,4.13,-0.2,-0.03,-0.33,1.12,-0.37,-0.63,169.1,196.0,0.0,0.0,0.0,0.0
1776450714173202644,55633,0.0,1.2,0.0,1.2,-0.02,-0.04,6.56,-1.0,4.19,0.03,-0.02,-0.37,0.19,-0.63,-0.63,164.47,185.0,0.0,0.0,0.0,0.0
1776450714271492035,55733,0.092,0.3,0.088,0.1,-0.18,-0.02,6.5,-1.0,4.19,0.2,-0.04,-0.37,-0.25,-0.37,-1.06,168.07,185.0,0.0,0.0,0.0,0.0
1776450714369779019,55833,0.0,0.8,0.084,0.2,0.06,-0.25,6.38,-0.94,4.13,0.21,-0.02,-0.35,0.37,-0.63,-1.31,168.24,193.0,0.0,0.0,0.0,0.0
1776450714472156540,55932,0.0,0.7,0.084,0.3,0.08,0.04,6.25,-1.0,4.19,0.07,-0.04,-0.37,1.94,-0.56,-1.37,168.93,191.0,0.0,0.0,0.0,0.0
1776450714574583340,56033,0.0,0.4,0.0,1.6,0.16,0.0,6.13,-1.0,4.25,0.05,-0.04,-0.33,1.0,-0.44,-1.56,168.24,191.0,0.0,0.0,0.0,0.0
1776450714672883620,56133,0.096,0.2,0.0,0.2,0.02,-0.1,5.94,-1.0,4.31,0.06,-0.03,-0.37,1.06,-0.44,-1.19,168.76,195.0,0.0,0.0,0.0,0.0
1776450714771187196,56232,0.0,1.3,0.08,0.6,0.02,0.04,5.88,-0.94,4.44,-0.04,-0.06,-0.38,1.06,-0.88,-0.94,164.64,195.0,0.0,0.0,0.0,0.0
1776450714873577551,56332,0.0,1.2,0.084,0.3,0.02,-0.14,5.81,-0.88,4.56,-0.08,-0.04,-0.37,0.56,-0.88,-0.88,164.47,192.0,0.0,0.0,0.0,0.0
1776450714971877257,56432,0.0,1.0,0.0,0.1,0.06,-0.02,5.69,-0.81,4.56,0.0,-0.02,-0.33,0.56,-0.63,-0.94,164.47,192.0,0.0,0.0,0.0,0.0
1776450715070182685,56532,0.0,0.5,0.0,1.5,0.02,-0.02,5.63,-0.75,4.56,0.23,-0.0,-0.36,-0.12,-0.63,-0.81,164.64,192.0,0.0,0.0,0.0,0.0
1776450715172580466,56632,0.096,-0.2,0.0,0.2,-0.08,-0.08,5.5,-0.75,4.44,0.33,-0.02,-0.35,0.25,-0.75,-0.5,164.47,202.0,0.0,0.0,0.0,0.0
1776450715270890079,56732,0.0,1.6,0.08,0.0,0.12,-0.12,5.5,-0.69,4.31,0.3,-0.0,-0.37,0.56,-0.75,-0.19,164.64,198.0,0.0,0.0,0.0,0.0
1776450715373285119,56832,0.0,1.1,0.084,0.4,0.0,-0.04,5.5,-0.69,4.31,0.11,-0.0,-0.37,1.44,-0.88,0.12,164.47,198.0,0.0,0.0,0.0,0.0
1776450715471558510,56932,0.0,1.3,0.084,0.4,0.08,0.06,5.5,-0.63,4.44,0.01,-0.02,-0.38,1.12,-0.75,0.19,169.79,202.0,0.0,0.0,0.0,0.0
1776450715569856827,57032,0.0,1.3,0.0,1.0,0.0,0.02,5.5,-0.56,4.5,-0.03,-0.04,-0.37,0.56,-0.69,0.06,165.15,201.0,0.0,0.0,0.0,0.0
1776450715672278812,57132,0.084,0.8,0.084,0.4,0.18,-0.06,5.5,-0.5,4.5,0.17,-0.02,-0.34,-0.25,-0.31,0.37,165.15,201.0,0.0,0.0,0.0,0.0
1776450715774679649,57233,0.0,0.7,0.0,1.6,-0.02,0.0,5.5,-0.5,4.56,0.09,-0.05,-0.31,0.31,-0.25,0.0,168.76,203.0,0.0,0.0,0.0,0.0
1776450716020219116,57333,0.0,1.4,0.092,0.2,-0.02,-0.16,5.5,-0.5,4.5,0.16,-0.01,-0.32,0.5,-0.44,0.0,168.76,203.0,0.0,0.0,0.0,0.0
1776450716073685767,57434,0.0,1.3,0.088,0.3,0.06,-0.1,5.5,-0.5,4.5,0.11,-0.02,-0.36,1.37,-0.56,0.37,164.64,192.0,0.0,0.0,0.0,0.0
1776450716087266717,57535,0.0,1.3,0.084,0.5,-0.02,-0.08,5.5,-0.5,4.56,0.12,-0.0,-0.39,0.44,-0.37,0.25,164.47,196.0,0.0,0.0,0.0,0.0
1776450716171913954,57634,0.0,1.3,0.0,0.2,0.06,-0.08,5.5,-0.5,4.69,-0.05,-0.02,-0.34,1.37,-0.5,0.56,168.07,196.0,0.0,0.0,0.0,0.0
1776450716274339254,57734,0.0,0.7,0.064,0.1,-0.04,0.0,5.5,-0.5,4.69,0.23,0.01,-0.33,-0.37,-0.25,0.06,164.64,193.0,0.0,0.0,0.0,0.0
1776450716372630774,57834,0.0,0.1,0.0,0.3,0.08,-0.14,5.5,-0.5,4.75,0.1,0.01,-0.33,1.12,-0.19,0.44,166.18,196.0,0.0,0.0,0.0,0.0
1776450716475033741,57934,0.0,0.9,0.0,1.7,0.04,-0.04,5.5,-0.5,4.88,0.0,-0.0,-0.33,1.19,-0.63,0.37,168.76,196.0,0.0,0.0,0.0,0.0
1776450716592212935,58034,0.092,0.3,0.0,1.3,0.0,-0.08,5.5,-0.44,4.94,0.01,-0.0,-0.34,0.69,-0.56,0.19,168.76,197.0,0.0,0.0,0.0,0.0
1776450716675775153,58134,0.0,0.2,0.072,0.5,0.08,-0.12,5.5,-0.44,4.94,0.18,-0.0,-0.34,0.5,-0.63,0.25,164.64,194.0,0.0,0.0,0.0,0.0
1776450716774062155,58233,0.0,1.3,0.0,1.4,-0.02,-0.1,5.5,-0.44,4.88,0.28,-0.0,-0.32,0.63,-0.5,0.44,165.15,194.0,0.0,0.0,0.0,0.0
1776450716872312694,58333,0.0,0.9,0.096,0.6,0.0,-0.16,5.5,-0.37,4.81,0.26,0.03,-0.3,0.69,-0.44,0.37,164.64,195.0,0.0,0.0,0.0,0.0
1776450717000215263,58434,0.0,1.0,0.076,0.5,0.06,-0.04,5.56,-0.37,4.75,0.22,-0.0,-0.31,0.88,-0.56,1.19,164.64,193.0,0.0,0.0,0.0,0.0
1776450717073088089,58533,0.0,0.5,0.08,0.2,0.0,-0.08,5.69,-0.31,4.75,0.2,-0.0,-0.33,0.69,-0.69,1.19,164.47,193.0,0.0,0.0,0.0,0.0
1776450717175468425,58633,0.0,0.8,0.08,0.3,0.04,-0.06,5.81,-0.25,4.75,0.12,-0.0,-0.33,1.12,-0.81,1.06,168.76,189.0,0.0,0.0,0.0,0.0
1776450717273771872,58733,0.0,1.2,0.0,0.6,0.02,0.0,5.88,-0.19,4.88,0.0,-0.0,-0.32,1.25,-1.0,0.56,164.47,189.0,0.0,0.0,0.0,0.0
1776450717372090151,58832,0.0,0.7,0.0,1.6,0.0,0.0,5.88,-0.06,4.88,0.0,0.05,-0.37,0.88,-0.75,0.5,164.47,196.0,0.0,0.0,0.0,0.0
1776450717474441451,58932,0.0,1.2,0.076,0.3,0.08,-0.06,5.88,-0.0,4.88,0.16,-0.04,-0.35,-1.0,-0.75,0.75,164.64,192.0,0.0,0.0,0.0,0.0
1776450717572729509,59032,0.0,1.2,0.0,1.1,-0.02,0.0,5.94,-0.0,4.81,0.21,0.01,-0.36,0.19,-0.69,0.88,168.76,192.0,0.0,0.0,0.0,0.0
1776450717671086122,59131,0.088,0.0,0.084,0.6,-0.06,-0.04,6.0,0.06,4.88,-0.03,0.01,-0.3,0.44,0.37,0.88,168.76,192.0,0.0,0.0,0.0,0.0
1776450717773465255,59231,0.08,0.2,0.0,1.5,0.06,-0.06,6.13,0.06,4.88,0.13,-0.03,-0.34,-0.06,-0.19,1.5,164.64,190.0,0.0,0.0,0.0,0.0
1776450717871759164,59331,0.092,-0.2,0.0,1.5,0.0,-0.21,6.31,0.06,4.81,0.28,-0.04,-0.29,-0.88,0.06,2.31,168.76,190.0,0.0,0.0,0.0,0.0
1776450717970063758,59430,0.0,0.5,0.0,1.2,0.0,-0.16,6.56,0.06,4.75,0.14,-0.0,-0.32,0.56,0.56,2.13,168.76,192.0,0.0,0.0,0.0,0.0
1776450718072453151,59530,0.0,0.6,0.068,0.2,-0.16,0.06,6.81,-0.0,4.81,-0.02,-0.05,-0.31,1.31,0.88,2.5,166.18,192.0,0.0,0.0,0.0,0.0
1776450718170748041,59631,0.0,1.1,0.072,0.3,-0.04,-0.02,7.06,-0.0,4.88,-0.09,-0.09,-0.34,0.69,0.56,2.25,168.76,184.0,0.0,0.0,0.0,0.0
