timestamp_ns,time_ms,voltage_left,current_left_ma,voltage_right,current_right_ma,motor_current_left,motor_current_right,euler_x,euler_y,euler_z,acc_lin_x,acc_lin_y,acc_lin_z,gyro_x,gyro_y,gyro_z,sonar_mm,tof_mm,rpm_left,rpm_right,rotations_left,rotations_right
1775763756511746280,1913,0.0,1.1,0.012,0.1,0.0,-0.04,0.06,-1.56,-1.88,0.0,0.01,-0.38,-0.06,0.12,-0.06,11975.84,205.0,0.0,0.0,0.0,0.0
1775763756514036357,2013,0.0,1.1,0.008,0.5,0.0,-0.2,0.06,-1.56,-1.88,0.0,-0.0,-0.37,0.06,-0.12,0.0,11979.1,216.0,0.0,0.0,0.0,0.0
1775763756516374146,2113,0.0,1.1,0.0,0.2,-0.1,0.0,0.06,-1.56,-1.88,0.0,-0.0,-0.37,-0.0,0.06,0.06,11976.87,194.0,0.0,0.0,0.0,0.0
1775763756518982975,2213,0.0,1.2,0.0,0.5,-0.12,-0.06,0.06,-1.56,-1.88,-0.02,-0.0,-0.38,-0.0,-0.06,0.0,11977.39,194.0,0.0,0.0,0.0,0.0
1775763756521393713,2312,0.0,1.1,0.0,0.6,-0.02,-0.02,0.06,-1.56,-1.88,-0.02,-0.0,-0.38,0.06,-0.06,0.0,11976.02,219.0,0.0,0.0,0.0,0.0
1775763756544797060,2412,0.0,1.1,0.0,0.5,-0.1,-0.1,0.06,-1.56,-1.88,0.0,-0.0,-0.37,0.12,-0.12,0.06,11975.5,201.0,0.0,0.0,0.0,0.0
1775763756548893128,2512,0.0,1.0,0.004,0.3,-0.12,-0.1,0.06,-1.56,-1.88,0.0,0.03,-0.36,-0.0,-0.12,0.0,11976.53,201.0,0.0,0.0,0.0,0.0
1775763756556168289,2612,0.012,0.3,0.0,1.6,-0.08,-0.21,0.06,-1.56,-1.88,-0.01,-0.0,-0.36,0.06,0.12,-0.06,11977.04,214.0,0.0,0.0,0.0,0.0
1775763756558889311,2712,0.0,0.3,0.0,1.6,0.0,-0.33,0.06,-1.56,-1.88,0.0,0.01,-0.38,0.19,-0.0,-0.06,11978.59,214.0,0.0,0.0,0.0,0.0
1775763756563335501,2812,0.0,1.5,0.012,0.5,0.04,-0.1,0.06,-1.56,-1.88,0.0,0.01,-0.37,-0.06,0.06,0.0,11977.9,206.0,0.0,0.0,0.0,0.0
1775763756573467149,2912,0.0,1.4,0.004,0.4,0.04,-0.02,0.06,-1.56,-1.88,-0.03,0.01,-0.39,-0.06,-0.0,0.06,11976.87,233.0,0.0,0.0,0.0,0.0
1775763756577608372,3012,0.0,1.4,0.008,0.3,0.06,0.0,0.06,-1.56,-1.88,-0.02,0.01,-0.36,-0.12,-0.12,0.06,11975.84,233.0,0.0,0.0,0.0,0.0
1775763756643127235,3112,0.0,1.6,0.0,0.3,0.1,-0.14,0.06,-1.56,-1.88,-0.02,0.02,-0.38,0.06,0.06,0.0,11975.67,212.0,0.0,0.0,0.0,0.0
1775763756651489263,3212,0.0,1.4,0.016,0.2,-0.04,-0.1,0.06,-1.56,-1.88,-0.02,-0.0,-0.38,-0.0,-0.06,0.0,235.64,212.0,0.0,0.0,0.0,0.0
1775763756664168576,3312,0.0,1.4,0.0,0.5,-0.14,-0.08,0.06,-1.56,-1.88,-0.01,-0.0,-0.4,-0.06,-0.0,-0.06,224.15,223.0,0.0,0.0,0.0,0.0
1775763756675600988,3411,0.0,1.4,0.0,0.1,-0.14,-0.2,0.06,-1.56,-1.88,-0.03,-0.0,-0.35,-0.0,-0.0,-0.06,11974.99,211.0,0.0,0.0,0.0,0.0
1775763756687969961,3511,0.0,1.2,0.0,0.2,-0.02,-0.14,0.06,-1.56,-1.88,0.0,-0.0,-0.37,0.06,-0.25,0.12,11973.79,204.0,0.0,0.0,0.0,0.0
1775763756745579401,3611,0.0,1.3,0.044,0.6,0.04,-0.23,0.06,-1.56,-1.88,-0.02,-0.01,-0.37,-0.0,-0.0,0.0,206.31,204.0,0.0,0.0,0.0,0.0
1775763756758098346,3710,0.0,1.3,0.028,0.1,-0.08,-0.16,0.06,-1.56,-1.88,-0.03,0.01,-0.36,0.06,-0.06,-0.06,11973.27,220.0,0.0,0.0,0.0,0.0
1775763756770798801,3810,0.0,1.3,0.02,0.7,0.12,0.0,0.06,-1.56,-1.88,-0.01,-0.0,-0.38,-0.06,-0.0,0.0,11974.99,200.0,0.0,0.0,0.0,0.0
1775763756783255897,3910,0.0,1.1,0.012,0.3,-0.04,-0.25,0.06,-1.56,-1.88,-0.01,-0.0,-0.41,0.06,0.06,0.0,11975.84,200.0,0.0,0.0,0.0,0.0
1775763756843947079,4011,0.0,1.5,0.016,0.3,0.06,-0.06,0.06,-1.56,-1.88,-0.03,0.01,-0.37,-0.12,0.12,-0.06,11972.93,206.0,0.0,0.0,0.0,0.0
1775763756856319683,4111,0.0,0.9,0.008,0.1,-0.02,-0.14,0.06,-1.56,-1.88,-0.02,-0.0,-0.37,0.06,-0.12,0.06,11973.96,206.0,0.0,0.0,0.0,0.0
1775763756868935850,4211,0.0,0.8,0.0,0.2,-0.16,-0.12,0.06,-1.56,-1.88,-0.03,-0.0,-0.4,-0.06,-0.12,0.0,240.79,212.0,0.0,0.0,0.0,0.0
1775763756881241139,4311,0.0,0.8,0.0,0.1,-0.04,-0.16,0.06,-1.56,-1.88,0.0,-0.14,-0.38,0.06,0.06,0.06,228.27,212.0,0.0,0.0,0.0,0.0
1775763756946396113,4411,0.0,0.9,0.0,1.4,-0.12,-0.08,0.06,-1.56,-1.88,-0.03,-0.02,-0.4,0.12,0.19,0.12,210.43,207.0,0.0,0.0,0.0,0.0
1775763756958293192,4510,0.0,1.4,0.0,0.6,-0.02,-0.18,0.06,-1.56,-1.88,0.0,-0.09,-0.41,0.25,0.06,-0.06,11974.47,208.0,0.0,0.0,0.0,0.0
1775763756971257591,4610,0.0,1.3,0.044,0.5,0.06,-0.14,0.06,-1.56,-1.88,-0.17,-0.2,-0.3,0.19,-1.12,0.25,11976.36,218.0,0.0,0.0,0.0,0.0
1775763756983307552,4710,0.0,1.3,0.036,0.3,-0.04,-0.14,-0.0,-1.44,-1.88,0.21,-0.15,-0.01,1.37,-4.13,-1.19,11976.7,218.0,0.0,0.0,0.0,0.0
1775763757044765117,4809,0.0,1.2,0.02,0.6,-0.02,-0.12,-0.25,-1.19,-1.25,0.34,-0.53,0.9,12.75,-4.13,-5.5,11976.87,203.0,0.0,0.0,0.0,0.0
1775763757056983624,4909,0.0,1.4,0.02,0.5,-0.08,-0.06,-1.0,-0.37,0.19,-0.56,-0.68,1.51,17.19,-8.13,-12.81,11977.73,,14.38,1179.41,1059.0,0.0
1775763757069768034,6810,0.0,1.4,0.036,0.4,0.12,-0.16,-8.69,-2.94,-2.94,-0.26,-0.34,-0.57,-7.13,-5.38,14.38,1179.41,1059.0,0.0,0.0,0.0,0.0
1775763757082236770,6910,0.0,1.5,0.028,0.6,0.0,-0.06,-7.88,-2.25,-4.06,-0.36,-0.04,-0.18,-16.94,-7.69,1.75,1198.27,2312.0,0.0,0.0,0.0,0.0
1775763757143091283,7011,0.0,1.5,0.02,0.6,-0.1,-0.21,-7.69,-1.37,-5.94,0.43,0.15,-0.53,-20.75,-5.44,-0.5,1226.91,1921.0,0.0,0.0,0.0,0.0
1775763757154907105,7111,0.0,1.4,0.016,0.1,-0.16,-0.18,-8.25,-1.31,-7.69,0.38,0.06,-0.42,-13.31,4.19,-9.06,1230.51,1921.0,0.0,0.0,0.0,0.0
1775763757167910617,7211,0.0,1.3,0.016,0.5,0.04,-0.2,-9.69,-1.88,-8.38,0.03,0.12,-0.46,1.75,9.0,-14.94,1317.81,2150.0,0.0,0.0,0.0,0.0
1775763757179876781,7312,0.0,1.3,0.016,0.3,-0.02,-0.08,-10.81,-2.38,-7.94,-0.24,-0.04,-0.81,6.0,5.13,-8.63,1274.42,2150.0,0.0,0.0,0.0,0.0
1775763757192599416,7411,0.0,1.1,0.0,0.5,-0.04,-0.18,-11.63,-2.69,-7.31,-0.32,-0.46,-0.22,8.19,4.63,-7.44,1203.93,2442.0,0.0,0.0,0.0,0.0
1775763757245558148,7511,0.0,1.4,0.0,0.2,0.06,-0.18,-11.69,-2.81,-6.06,0.07,-0.03,-0.58,13.63,-3.25,9.5,1179.06,1615.0,0.0,0.0,0.0,0.0
1775763757348037706,7612,0.0,1.3,0.052,0.6,-0.04,-0.18,-10.5,-2.5,-5.19,-0.36,0.54,-0.61,2.25,-1.12,8.25,1228.28,1615.0,0.0,0.0,0.0,0.0
1775763757446320181,7712,0.0,1.3,0.036,0.2,-0.12,-0.04,-10.31,-3.0,-5.44,-0.33,0.31,-0.21,-7.88,12.88,0.81,1304.77,1816.0,0.0,0.0,0.0,0.0
1775763757548786268,7813,0.0,1.4,0.04,0.3,-0.1,-0.06,-10.0,-4.19,-6.13,0.2,-0.11,-0.33,-5.31,9.56,6.56,1197.93,1382.0,0.0,0.0,0.0,0.0
1775763757647178081,7913,0.0,1.4,0.02,0.2,0.08,-0.2,-9.31,-4.69,-6.31,-0.06,-0.19,-0.49,-0.12,0.25,6.88,1204.96,1382.0,0.0,0.0,0.0,0.0
1775763757749629067,8013,0.0,1.4,0.016,0.4,-0.06,-0.16,-8.69,-4.44,-6.19,-0.24,0.05,-0.51,-0.06,-8.31,6.31,1204.62,2210.0,0.0,0.0,0.0,0.0
1775763757847984712,8114,0.0,1.5,0.0,0.3,0.08,-0.2,-8.06,-3.69,-6.13,-0.06,0.07,-0.47,-0.06,-7.06,4.31,1267.9,2210.0,0.0,0.0,0.0,0.0
1775763757958338649,8215,0.0,1.0,0.004,0.2,-0.06,-0.04,-7.88,-3.56,-5.94,-0.11,0.07,-0.36,3.5,3.81,0.63,11974.47,1365.0,0.0,0.0,0.0,0.0
1775763758048789192,8315,0.0,1.3,0.02,0.3,0.16,-0.1,-7.88,-4.13,-5.69,-0.18,-0.04,-0.45,-0.31,4.31,0.94,1362.91,677.0,0.0,0.0,0.0,0.0
1775763758151233264,8415,0.0,1.4,0.008,0.5,-0.18,-0.16,-7.81,-4.31,-5.94,0.19,-0.17,-0.4,-2.38,0.25,-1.12,1251.78,677.0,0.0,0.0,0.0,0.0
1775763758249596875,8515,0.0,1.4,0.004,0.6,0.0,-0.23,-8.06,-4.19,-5.94,0.03,-0.09,-0.39,4.88,-3.88,-4.19,1241.32,1572.0,0.0,0.0,0.0,0.0
1775763758347941938,8614,0.0,1.3,0.048,0.1,0.06,-0.02,-8.75,-3.63,-5.38,-0.27,0.18,-0.52,4.31,-6.69,-7.81,1182.66,1230.0,0.0,0.0,0.0,0.0
1775763758450362571,8715,0.0,1.2,0.032,0.2,0.04,-0.23,-9.31,-3.0,-5.38,-0.08,0.15,-0.27,-2.88,-3.69,-5.5,1212.33,1230.0,0.0,0.0,0.0,0.0
1775763758552834566,8816,0.0,1.3,0.024,0.3,0.04,-0.2,-9.81,-2.75,-5.56,-0.08,0.21,-0.35,-0.12,0.37,-5.0,1232.23,1914.0,0.0,0.0,0.0,0.0
1775763758651200992,8915,0.0,1.3,0.004,0.4,0.06,-0.14,-10.19,-2.81,-5.63,-0.09,-0.0,-0.41,-1.75,1.37,-2.13,1211.13,1151.0,0.0,0.0,0.0,0.0
1775763758749564954,9015,0.0,1.4,0.016,0.3,-0.04,-0.21,-10.13,-2.69,-5.81,-0.14,0.12,-0.38,-2.94,-2.94,1.44,1275.27,1151.0,0.0,0.0,0.0,0.0
1775763758852006006,9115,0.0,1.4,0.012,0.2,0.1,-0.2,-10.0,-2.5,-6.06,-0.08,0.14,-0.4,-2.0,0.06,0.75,1283.85,1475.0,0.0,0.0,0.0,0.0
1775763758950357351,9214,0.0,1.3,0.0,0.4,-0.12,-0.2,-9.88,-2.56,-6.06,-0.02,-0.04,-0.4,0.44,-0.31,2.88,1205.13,1475.0,0.0,0.0,0.0,0.0
1775763759048711408,9315,0.0,1.5,0.008,0.5,0.12,-0.12,-9.56,-2.5,-5.94,-0.01,0.01,-0.36,2.56,-1.5,2.94,1195.01,1040.0,0.0,0.0,0.0,0.0
1775763759151209733,9414,0.0,1.2,0.008,0.5,0.12,-0.06,-9.31,-2.5,-5.69,-0.15,-0.05,-0.36,1.37,1.25,1.69,1197.93,1242.0,0.0,0.0,0.0,0.0
1775763759249509847,9515,0.0,1.1,0.0,0.4,0.12,-0.14,-9.19,-2.63,-5.63,-0.03,-0.02,-0.3,0.88,1.5,0.88,1214.22,1242.0,0.0,0.0,0.0,0.0
1775763759351980602,9615,0.0,1.5,0.052,0.7,-0.06,-0.02,-9.13,-2.81,-5.5,-0.13,0.02,-0.32,1.12,1.25,0.06,1188.32,1722.0,0.0,0.0,0.0,0.0
1775763759450279789,9714,0.0,1.4,0.04,0.5,-0.04,-0.14,-9.25,-3.06,-5.31,-0.15,0.01,-0.47,2.13,3.0,-1.25,1196.73,1130.0,0.0,0.0,0.0,0.0
1775763759552734480,9815,0.0,1.4,0.028,0.4,-0.02,-0.2,-9.5,-3.13,-5.19,-0.04,0.02,-0.46,0.56,-0.44,-3.06,1199.13,1130.0,0.0,0.0,0.0,0.0
1775763759651129367,9916,0.0,1.3,0.02,0.4,-0.02,-0.14,-9.69,-3.0,-5.19,-0.04,0.05,-0.29,0.44,-0.88,-1.56,1203.07,1899.0,0.0,0.0,0.0,0.0
1775763759753619668,10015,0.0,1.5,0.016,0.7,0.02,-0.04,-9.75,-2.94,-5.13,-0.01,0.05,-0.29,0.31,-1.06,0.56,1216.11,1899.0,0.0,0.0,0.0,0.0
1775763759875604616,10115,0.0,1.3,0.008,0.3,0.02,-0.12,-9.75,-2.94,-5.13,-0.21,0.05,-0.34,0.12,-0.63,-0.69,1321.06,2149.0,0.0,0.0,0.0,0.0
1775763759960368489,10216,0.0,1.3,0.008,0.2,0.04,-0.14,-9.69,-2.75,-5.19,-0.14,0.05,-0.36,-2.0,-2.19,1.19,1259.32,1558.0,0.0,0.0,0.0,0.0
1775763760052723943,10315,0.0,1.2,0.0,0.1,0.0,-0.18,-9.69,-2.69,-5.63,-0.06,-0.04,-0.36,-6.13,-0.63,-0.88,1292.25,1558.0,0.0,0.0,0.0,0.0
1775763760507590777,10415,0.0,1.1,0.004,0.5,-0.18,-0.04,-9.75,-2.75,-6.19,-0.12,0.09,-0.39,-5.13,2.63,-0.12,1208.39,1594.0,0.0,0.0,0.0,0.0
1775763760552704261,10515,0.0,1.3,0.004,0.5,0.02,-0.16,-9.81,-3.0,-6.69,0.01,0.01,-0.49,-3.81,1.5,-0.56,1283.51,1338.0,0.0,0.0,0.0,0.0
1775763760561078916,10614,0.0,1.0,0.04,0.4,0.06,-0.12,-9.81,-2.94,-6.75,-0.11,-0.02,-0.48,2.0,-3.44,-0.37,1217.65,1338.0,0.0,0.0,0.0,0.0
1775763760574928765,10714,0.0,1.2,0.04,0.5,-0.04,-0.25,-9.88,-2.56,-6.56,-0.06,-0.0,-0.41,1.25,-2.56,-1.0,1300.31,1754.0,0.0,0.0,0.0,0.0
1775763760586707402,10815,0.0,1.5,0.028,0.5,-0.04,-0.2,-9.94,-2.44,-6.5,-0.11,0.04,-0.26,-1.06,-0.0,-1.75,1234.11,1221.0,0.0,0.0,0.0,0.0
1775763760651013417,10915,0.0,1.2,0.016,0.2,-0.02,-0.14,-10.06,-2.44,-6.69,-0.07,0.05,-0.33,-1.75,-0.5,-0.63,1213.71,1221.0,0.0,0.0,0.0,0.0
1775763760753495402,11016,0.0,1.3,0.016,0.6,-0.12,-0.08,-10.0,-2.44,-6.75,-0.08,0.06,-0.44,0.69,-0.44,2.69,1192.1,1107.0,0.0,0.0,0.0,0.0
1775763760851811025,11116,0.0,1.2,0.008,0.1,0.0,-0.08,-9.63,-2.38,-6.56,-0.11,0.05,-0.39,2.94,-1.19,4.31,1205.82,1450.0,0.0,0.0,0.0,0.0
1775763760954301737,11215,0.0,1.1,0.0,0.6,-0.04,-0.06,-9.31,-2.38,-6.25,-0.22,-0.09,-0.29,1.94,0.19,2.31,1184.04,1450.0,0.0,0.0,0.0,0.0
1775763761052647132,11315,0.0,1.3,0.0,0.3,0.1,-0.1,-9.25,-2.38,-6.19,0.02,-0.03,-0.28,0.19,-0.94,-0.63,1209.42,1240.0,0.0,0.0,0.0,0.0
1775763761163042098,11415,0.0,1.2,0.008,0.5,-0.02,-0.08,-9.38,-2.25,-6.13,-0.15,0.05,-0.36,1.88,-1.5,-1.69,11975.16,1270.0,0.0,0.0,0.0,0.0
1775763761253457037,11515,0.0,1.2,0.0,0.2,0.06,-0.08,-9.44,-2.19,-5.88,-0.06,0.07,-0.28,2.56,0.31,-0.12,1322.09,1270.0,0.0,0.0,0.0,0.0
1775763761351814917,11615,0.0,1.4,0.052,0.6,-0.06,-0.18,-9.5,-2.38,-5.56,-0.14,0.02,-0.34,2.13,2.81,-1.5,1239.26,1537.0,0.0,0.0,0.0,0.0
1775763761454344890,11714,0.0,1.4,0.032,0.2,0.02,-0.21,-9.69,-2.5,-5.5,-0.06,-0.03,-0.4,-0.19,0.06,-1.31,11974.99,1054.0,0.0,0.0,0.0,0.0
1775763761552563309,11814,0.0,1.2,0.016,0.5,-0.12,-0.2,-9.75,-2.38,-5.5,0.0,0.03,-0.45,0.81,-1.19,-0.69,1211.82,1054.0,0.0,0.0,0.0,0.0
1775763761650912592,11914,0.0,1.1,0.02,0.1,-0.14,-0.12,-9.75,-2.25,-5.31,-0.08,0.07,-0.33,2.44,-1.44,0.69,1196.21,2252.0,0.0,0.0,0.0,0.0
1775763761753407492,12014,0.0,1.4,0.016,0.7,-0.02,-0.08,-9.75,-2.13,-5.06,-0.14,0.01,-0.34,2.06,-0.69,0.5,1211.65,2252.0,0.0,0.0,0.0,0.0
1775763761851751994,12113,0.0,1.2,0.0,0.4,0.0,-0.16,-9.75,-2.13,-5.0,-0.12,-0.0,-0.36,-1.37,0.56,-0.37,1274.93,641.0,0.0,0.0,0.0,0.0
1775763761954212950,12213,0.0,1.3,0.0,0.4,-0.06,0.0,-9.75,-2.13,-5.19,0.0,-0.04,-0.4,-2.13,0.31,-0.06,1228.97,641.0,0.0,0.0,0.0,0.0
1775763762211590827,12313,0.0,1.5,0.0,0.3,-0.02,-0.16,-9.75,-2.13,-5.31,-0.06,0.02,-0.38,-0.25,0.88,-0.06,1241.49,1594.0,0.0,0.0,0.0,0.0
1775763762253364270,12413,0.0,1.2,0.0,0.2,0.0,0.0,-9.75,-2.19,-5.38,-0.11,0.01,-0.27,-0.19,-0.63,0.56,1258.3,1729.0,0.0,0.0,0.0,0.0
1775763762267383534,12514,0.0,1.0,0.004,0.3,0.04,-0.14,-9.63,-2.19,-5.38,-0.14,0.08,-0.28,-1.63,0.19,1.37,1205.82,1729.0,0.0,0.0,0.0,0.0
1775763762355773861,12615,0.0,1.5,0.052,0.2,0.06,-0.29,-9.56,-2.19,-5.56,-0.16,0.01,-0.39,-2.5,0.63,0.31,1202.56,937.0,0.0,0.0,0.0,0.0
1775763762454207822,12715,0.0,1.4,0.052,0.0,-0.04,-0.18,-9.63,-2.25,-5.81,-0.04,-0.02,-0.46,-2.38,0.19,-0.81,1216.62,1198.0,0.0,0.0,0.0,0.0
1775763762552455949,12815,0.0,1.3,0.028,0.3,-0.06,-0.12,-9.69,-2.19,-6.0,0.0,0.01,-0.36,-1.0,-0.5,-0.56,1216.62,1198.0,0.0,0.0,0.0,0.0
1775763762654926607,12914,0.0,1.5,0.012,0.2,0.1,-0.18,-9.75,-2.19,-6.06,-0.06,0.05,-0.31,-0.31,1.0,-0.94,1212.33,907.0,0.0,0.0,0.0,0.0
1775763762757400915,13015,0.0,1.4,0.012,0.2,-0.12,0.04,-9.75,-2.25,-6.13,-0.15,-0.01,-0.29,-1.75,0.12,-0.37,1208.73,2796.0,0.0,0.0,0.0,0.0
1775763762855760098,13116,0.0,1.5,0.004,0.2,-0.08,-0.1,-9.81,-2.31,-6.38,-0.07,-0.0,-0.38,-2.56,0.63,-0.56,1292.08,2796.0,0.0,0.0,0.0,0.0
1775763762954098029,13215,0.0,1.2,0.008,0.4,0.1,0.02,-9.88,-2.31,-6.5,-0.03,-0.03,-0.53,0.37,-0.25,-0.88,1197.93,1478.0,0.0,0.0,0.0,0.0
1775763763087595550,13316,0.0,1.2,0.004,0.1,-0.02,-0.08,-9.94,-2.25,-6.31,-0.06,0.03,-0.39,2.31,0.06,-0.75,1217.31,1662.0,0.0,0.0,0.0,0.0
1775763763165016577,13417,0.0,1.3,0.008,0.3,-0.04,-0.14,-10.0,-2.25,-6.06,-0.08,0.02,-0.31,3.06,-0.5,-0.56,1191.24,1662.0,0.0,0.0,0.0,0.0
1775763763257369526,13516,0.0,1.3,0.012,0.3,-0.06,-0.06,-10.06,-2.19,-5.81,-0.19,0.03,-0.35,1.81,-0.75,-0.44,1190.38,1343.0,0.0,0.0,0.0,0.0
1775763763355603813,13616,0.0,1.4,0.048,0.1,0.06,-0.12,-10.06,-2.19,-5.75,-0.1,0.08,-0.41,0.12,-0.31,-0.31,1215.59,1343.0,0.0,0.0,0.0,0.0
1775763763457987787,13717,0.0,1.5,0.04,0.2,0.0,-0.18,-10.13,-2.19,-5.75,-0.11,-0.0,-0.38,-0.12,0.69,-0.19,1189.7,2141.0,0.0,0.0,0.0,0.0
1775763763556195491,13816,0.0,1.3,0.036,0.2,0.04,-0.21,-10.06,-2.19,-5.75,-0.09,-0.01,-0.28,0.06,-0.44,0.12,1202.56,1790.0,0.0,0.0,0.0,0.0
1775763763658543406,13916,0.0,1.2,0.016,0.2,0.1,-0.18,-10.06,-2.19,-5.81,-0.06,-0.04,-0.32,-1.56,0.06,-0.25,1200.33,1790.0,0.0,0.0,0.0,0.0
1775763763756843129,14017,0.0,1.2,0.012,0.3,0.02,-0.08,-10.06,-2.19,-5.94,-0.09,-0.0,-0.34,-0.94,-0.44,0.06,1237.2,2038.0,0.0,0.0,0.0,0.0
1775763763859197838,14117,0.0,1.3,0.016,0.4,0.1,-0.02,-10.06,-2.19,-6.0,-0.04,0.04,-0.38,-0.19,1.25,-0.81,1224.68,1433.0,0.0,0.0,0.0,0.0
1775763763957461927,14217,0.0,1.2,0.012,0.2,0.02,-0.08,-10.06,-2.25,-5.94,-0.27,-0.06,-0.41,0.06,-1.06,0.75,1241.66,1433.0,0.0,0.0,0.0,0.0
1775763764055396228,14317,0.0,1.1,0.012,0.2,-0.02,-0.16,-10.06,-2.13,-6.0,-0.03,-0.0,-0.35,-1.81,-0.69,-0.5,1229.48,2466.0,0.0,0.0,0.0,0.0
1775763764157010672,14416,0.0,1.1,0.004,0.3,0.02,-0.16,-10.06,-2.06,-6.19,-0.03,-0.0,-0.32,-1.19,-1.25,0.19,1226.05,2466.0,0.0,0.0,0.0,0.0
1775763764254542354,14516,0.0,1.2,0.0,0.1,-0.1,-0.18,-9.94,-2.0,-6.19,-0.13,-0.0,-0.25,0.56,-0.19,0.37,1213.36,1332.0,0.0,0.0,0.0,0.0
1775763764352117275,14615,0.0,1.5,0.06,0.6,0.04,-0.04,-10.0,-2.06,-6.19,-0.09,-0.01,-0.29,-0.63,1.81,-0.94,1259.32,1487.0,0.0,0.0,0.0,0.0
1775763764453684290,14715,0.0,1.2,0.028,0.6,0.0,-0.14,-10.06,-2.13,-6.25,-0.12,-0.0,-0.38,-1.19,-1.5,0.12,1271.33,1487.0,0.0,0.0,0.0,0.0
1775763764551233411,14815,0.0,1.3,0.016,0.3,-0.02,-0.2,-10.06,-2.0,-6.38,-0.01,0.09,-0.47,-0.81,-0.37,-0.75,1335.3,1709.0,0.0,0.0,0.0,0.0
1775763764648730600,14915,0.0,1.4,0.02,0.2,-0.04,-0.1,-10.06,-2.0,-6.38,-0.04,0.02,-0.36,0.37,0.06,0.19,1313.86,1665.0,0.0,0.0,0.0,0.0
1775763764750403517,15014,0.0,1.2,0.008,0.5,0.02,-0.16,-10.06,-2.0,-6.38,-0.18,-0.03,-0.28,-0.19,0.12,-0.5,1249.21,1665.0,0.0,0.0,0.0,0.0
1775763764847954898,15115,0.0,1.3,0.012,0.3,-0.1,-0.08,-10.06,-1.94,-6.38,-0.08,0.02,-0.34,-0.63,-0.75,-0.19,1241.49,1402.0,0.0,0.0,0.0,0.0
1775763764979583741,15215,0.0,1.5,0.016,0.2,0.04,-0.2,-10.13,-1.94,-6.31,-0.07,0.04,-0.42,1.44,0.06,-0.44,1288.99,1705.0,0.0,0.0,0.0,0.0
1775763765047130040,15315,0.0,1.4,0.004,0.4,-0.06,-0.2,-10.13,-1.94,-6.13,-0.09,0.02,-0.37,2.56,-0.5,0.63,1211.65,1705.0,0.0,0.0,0.0,0.0
1775763765199588838,15416,0.0,1.2,0.008,0.1,0.04,-0.14,-10.13,-1.88,-5.88,-0.09,-0.0,-0.39,2.13,-0.63,-0.25,1206.16,1545.0,0.0,0.0,0.0,0.0
1775763765246351356,15516,0.0,1.5,0.008,0.3,-0.06,-0.18,-10.13,-1.88,-5.75,-0.05,-0.0,-0.32,1.5,-0.56,-1.06,1183.69,1816.0,0.0,0.0,0.0,0.0
1775763765348019449,15617,0.0,1.5,0.044,0.3,0.1,-0.14,-10.13,-1.88,-5.56,-0.12,0.07,-0.32,1.37,-0.44,-0.12,1184.04,1816.0,0.0,0.0,0.0,0.0
1775763765449696256,15718,0.0,1.3,0.048,0.3,0.16,-0.06,-10.13,-1.88,-5.5,-0.07,0.02,-0.38,0.63,-0.31,0.0,1200.16,1434.0,0.0,0.0,0.0,0.0
1775763765547293676,15817,0.0,1.4,0.028,0.2,0.12,-0.12,-10.13,-1.88,-5.5,-0.08,0.07,-0.43,0.12,-0.44,-0.31,1204.44,1434.0,0.0,0.0,0.0,0.0
1775763765648901798,15917,0.0,1.3,0.008,0.5,-0.12,-0.14,-10.13,-1.88,-5.5,-0.03,0.09,-0.45,-0.5,-0.0,-0.25,1226.91,762.0,0.0,0.0,0.0,0.0
1775763765746527291,16018,0.0,1.4,0.012,0.2,-0.02,-0.2,-10.13,-1.88,-5.5,-0.05,0.03,-0.44,0.19,0.12,0.12,1205.47,1681.0,0.0,0.0,0.0,0.0
1775763765844108294,16117,0.0,1.2,0.004,0.1,0.08,-0.1,-10.13,-1.88,-5.5,-0.07,-0.04,-0.5,0.56,-0.56,-0.56,1212.85,1681.0,0.0,0.0,0.0,0.0
1775763765967584656,16217,0.0,1.3,0.012,0.1,-0.2,-0.12,-10.25,-1.75,-5.56,0.2,-0.16,-0.46,0.56,-2.56,-2.69,1247.15,1286.0,0.0,0.0,0.0,0.0
1775763766043383804,16317,0.0,1.4,0.008,0.2,0.12,-0.16,-10.44,-1.5,-5.31,-0.01,-0.19,-0.47,3.69,-2.94,0.06,1203.93,1880.0,0.0,0.0,0.0,0.0
1775763766151038931,16417,0.0,1.4,0.008,0.5,-0.04,-0.18,-10.19,-1.56,-5.06,0.12,-0.24,-0.45,3.75,-0.81,3.94,1197.76,1880.0,0.0,0.0,0.0,0.0
1775763766242711510,16517,0.0,1.5,0.0,0.3,0.0,-0.12,-9.75,-1.69,-4.69,0.03,-0.11,-0.48,4.31,-0.0,5.44,1166.37,1231.0,0.0,0.0,0.0,0.0
1775763766340340701,16617,0.0,1.5,0.048,0.5,-0.02,-0.16,-9.25,-1.81,-4.31,0.02,0.25,-0.35,4.69,0.37,6.06,1162.6,2061.0,0.0,0.0,0.0,0.0
1775763766442031639,16716,0.0,1.1,0.04,0.2,-0.06,-0.31,-8.81,-1.88,-3.63,0.31,0.14,-0.34,9.88,-0.69,0.12,1168.43,2061.0,0.0,0.0,0.0,0.0
1775763766539631015,16817,0.0,1.5,0.024,0.0,0.06,-0.1,-9.38,-1.31,-3.06,0.37,0.31,-0.08,9.5,-6.75,-11.06,1198.27,925.0,0.0,0.0,0.0,0.0
1775763766641342185,16918,0.0,1.3,0.02,0.1,-0.1,-0.06,-10.63,-0.63,-2.69,0.09,0.78,-0.68,-4.19,-1.12,-14.13,1164.48,925.0,0.0,0.0,0.0,0.0
1775763766739002127,17017,0.0,1.5,0.0,0.5,-0.06,-0.21,-12.0,-0.81,-3.5,0.76,0.64,-0.51,-7.56,5.81,-13.69,1142.36,1829.0,0.0,0.0,0.0,0.0
1775763766871593274,17118,0.0,1.3,0.004,0.3,-0.1,-0.29,-13.25,-1.06,-4.31,0.64,0.74,-0.46,-1.25,10.81,-10.19,1143.22,1956.0,0.0,0.0,0.0,0.0
1775763766938345706,17218,0.0,1.5,0.004,0.4,-0.06,-0.1,-14.13,-1.5,-5.13,0.81,0.24,-0.19,-2.94,12.06,-4.56,1160.54,1956.0,0.0,0.0,0.0,0.0
1775763767035947037,17317,0.0,1.4,0.0,0.2,-0.06,-0.14,-14.75,-2.0,-5.56,0.01,-0.04,0.62,-3.13,-3.38,-9.75,1151.28,1860.0,0.0,0.0,0.0,0.0
1775763767137704241,17418,0.0,1.2,0.0,0.2,0.0,-0.16,-15.56,-0.88,-5.44,-0.17,0.33,0.34,4.81,-11.44,-9.75,1160.2,2789.0,0.0,0.0,0.0,0.0
1775763767235336978,17518,0.0,1.2,0.008,0.2,-0.08,-0.12,-16.87,-0.25,-5.38,-1.52,-0.33,-0.23,-5.0,1.5,-14.75,1172.89,2789.0,0.0,0.0,0.0,0.0
1775763767337126749,17618,0.0,1.4,0.052,0.4,0.0,-0.2,-17.69,-0.25,-7.06,-1.48,-0.59,-0.43,-24.12,3.88,-3.63,1174.6,1551.0,0.0,0.0,0.0,0.0
1775763767434774813,17719,0.0,1.4,0.044,0.5,-0.08,-0.2,-17.94,-1.19,-8.38,-0.29,-0.84,-0.96,-2.81,9.75,-2.13,1218.34,667.0,0.0,0.0,0.0,0.0
1775763767536505448,17818,0.0,1.1,0.016,0.3,0.04,-0.29,-18.19,-1.44,-8.44,-0.56,-0.53,-1.3,-3.38,-1.19,-1.69,1216.28,667.0,0.0,0.0,0.0,0.0
1775763767634158774,17917,0.0,1.5,0.016,0.5,-0.04,-0.06,-18.25,-1.5,-8.56,-0.06,-0.66,-0.49,4.56,4.94,-2.25,1302.2,1351.0,0.0,0.0,0.0,0.0
1775763767741927577,18017,0.0,1.3,0.016,0.5,0.0,-0.18,-18.44,-1.88,-8.19,0.36,-0.64,-0.8,1.37,2.38,-0.75,1221.25,1351.0,0.0,0.0,0.0,0.0
1775763767833624577,18118,0.0,1.5,0.016,0.4,-0.08,-0.18,-18.31,-2.19,-8.38,0.43,-0.51,-0.32,4.13,0.5,2.75,1170.32,1808.0,0.0,0.0,0.0,0.0
1775763767931277904,18217,0.0,1.6,0.004,0.2,-0.06,-0.16,-18.06,-2.19,-8.25,0.6,-0.36,-0.04,1.56,-5.69,1.0,1173.92,1942.0,0.0,0.0,0.0,0.0
1775763768033029976,18318,0.0,1.5,0.0,0.2,0.04,-0.08,-17.94,-1.63,-8.38,0.36,-0.22,0.47,-5.19,-4.0,3.13,1244.23,1942.0,0.0,0.0,0.0,0.0
1775763768130738081,18418,0.0,1.5,0.016,0.5,0.06,-0.08,-16.94,-1.88,-8.44,-1.35,-0.37,0.61,4.38,1.88,13.88,1370.8,1276.0,0.0,0.0,0.0,0.0
1775763768232497771,18519,0.0,1.4,0.004,0.3,-0.02,-0.2,-15.63,-1.63,-8.75,-1.44,0.06,-0.72,-11.5,-4.56,13.81,1213.36,1262.0,0.0,0.0,0.0,0.0
1775763768334304158,18620,0.0,1.1,0.048,0.5,0.12,-0.12,-14.5,-1.88,-9.25,-1.31,0.33,-0.67,-13.44,5.81,7.0,1234.29,1262.0,0.0,0.0,0.0,0.0
1775763768432015190,18720,0.0,1.5,0.032,0.5,-0.04,-0.1,-14.56,-2.13,-9.13,-0.29,0.15,-0.88,12.81,-5.0,-3.81,1213.53,2616.0,0.0,0.0,0.0,0.0
1775763768533786089,18820,0.0,1.6,0.04,0.6,-0.1,-0.08,-14.88,-1.25,-7.94,0.12,0.36,-0.8,6.38,-7.13,-2.63,1209.25,1727.0,0.0,0.0,0.0,0.0
1775763768631433877,18920,0.0,1.6,0.016,0.6,-0.1,-0.21,-15.06,-1.31,-7.63,0.02,0.15,-0.26,2.69,4.88,-4.0,1224.68,1727.0,0.0,0.0,0.0,0.0
1775763768729177599,19019,0.0,1.1,0.004,0.3,-0.06,-0.2,-15.75,-1.81,-7.75,0.23,0.46,-0.76,-6.25,9.44,-10.31,1218.85,2428.0,0.0,0.0,0.0,0.0
1775763768830955677,19120,0.0,1.3,0.008,0.3,0.04,-0.18,-16.69,-2.5,-8.56,0.93,0.15,-0.25,-3.31,8.88,-5.06,1213.36,2428.0,0.0,0.0,0.0,0.0
1775763768940701025,19221,0.0,1.3,0.0,0.2,0.06,-0.12,-17.44,-2.69,-9.44,0.31,0.46,-0.12,-3.0,2.38,-12.38,11973.79,1719.0,0.0,0.0,0.0,0.0
1775763769030448173,19321,0.0,1.2,0.0,0.3,0.1,-0.04,-19.19,-1.88,-10.44,-0.89,-0.16,0.89,-3.44,-3.38,-20.19,1264.3,2868.0,0.0,0.0,0.0,0.0
1775763769132252259,19422,0.0,1.3,0.0,0.1,-0.08,-0.1,-20.56,-1.0,-10.44,-1.97,-0.59,0.21,1.94,-10.38,-6.44,1221.08,2868.0,0.0,0.0,0.0,0.0
1775763769229994896,19523,0.0,1.5,0.0,0.3,0.0,-0.12,-20.87,-0.56,-10.5,-0.66,-0.49,-0.38,-2.88,2.75,-1.31,1296.54,1494.0,0.0,0.0,0.0,0.0
1775763769327709012,19622,0.0,1.3,0.032,0.4,-0.06,-0.02,-20.94,-1.06,-10.44,-1.36,-0.7,-1.23,-2.25,2.38,1.44,1277.16,2009.0,0.0,0.0,0.0,0.0
1775763769563581973,19722,0.0,1.4,0.04,0.5,-0.06,-0.2,-20.69,-1.06,-10.69,-0.36,-0.58,-0.83,-1.88,-3.88,2.94,1322.78,2009.0,0.0,0.0,0.0,0.0
1775763769568352597,19822,0.0,1.4,0.016,0.4,-0.04,-0.23,-20.19,-1.12,-10.06,0.09,-0.33,-1.01,14.75,3.56,7.63,1220.74,1367.0,0.0,0.0,0.0,0.0
1775763769629099151,19922,0.0,1.3,0.016,0.2,-0.18,-0.18,-19.31,-1.56,-8.94,0.23,-0.5,-0.82,6.0,-3.13,11.56,1212.85,711.0,0.0,0.0,0.0,0.0
1775763769726815532,20022,0.0,1.5,0.016,0.2,0.04,-0.18,-18.31,-1.5,-8.75,0.6,-0.56,-0.42,2.19,-0.56,6.81,1204.96,711.0,0.0,0.0,0.0,0.0
1775763769824543016,20122,0.0,1.2,0.016,0.3,-0.16,-0.25,-17.87,-2.06,-9.25,0.58,-0.37,0.44,-3.31,-6.56,0.88,1194.33,1626.0,0.0,0.0,0.0,0.0
1775763769926395638,20221,0.0,1.4,0.0,0.2,0.0,-0.06,-17.06,-1.56,-9.75,-1.38,0.03,1.45,-4.31,-4.56,12.38,1208.22,1626.0,0.0,0.0,0.0,0.0
1775763770024151000,20321,0.0,1.2,0.0,0.4,-0.02,-0.1,-16.12,-1.75,-10.44,-1.75,0.18,-0.26,-14.06,2.31,7.0,1295.85,479.0,0.0,0.0,0.0,0.0
1775763770121913866,20420,0.0,1.6,0.004,0.2,0.02,-0.14,-15.75,-2.19,-10.44,-1.46,0.28,-0.8,-11.63,6.31,0.81,1324.15,1708.0,0.0,0.0,0.0,0.0
1775763770223774742,20519,0.0,1.2,0.0,0.3,0.0,-0.06,-15.81,-2.56,-10.69,-0.76,-0.0,-0.99,4.25,1.56,-0.81,1286.42,1708.0,0.0,0.0,0.0,0.0
1775763770321540130,20619,0.0,1.5,0.048,0.5,0.08,-0.16,-15.94,-2.31,-9.25,-0.59,0.3,-0.85,6.5,-2.88,-4.25,1280.59,2085.0,0.0,0.0,0.0,0.0
1775763770419291392,20719,0.0,1.3,0.04,0.3,-0.06,-0.1,-16.44,-1.75,-8.38,0.19,0.21,-0.81,7.0,-0.5,-3.5,1252.46,1262.0,0.0,0.0,0.0,0.0
1775763770521166727,20818,0.0,1.4,0.028,0.8,0.04,-0.16,-16.69,-1.75,-8.31,0.39,0.32,-0.59,1.94,6.31,-3.81,1220.05,1262.0,0.0,0.0,0.0,0.0
1775763770618874593,20919,0.0,1.5,0.0,0.2,0.04,-0.14,-17.5,-1.94,-8.88,0.45,0.07,-0.4,-1.31,2.38,-11.25,1213.36,1489.0,0.0,0.0,0.0,0.0
1775763770720739447,21019,0.0,1.5,0.012,0.2,0.12,-0.12,-18.87,-1.88,-9.25,0.64,-0.17,0.48,-7.06,2.0,-15.19,1211.99,1489.0,0.0,0.0,0.0,0.0
1775763770818541895,21118,0.0,1.4,0.012,0.5,0.06,-0.18,-21.12,-1.0,-10.06,-0.84,0.06,1.32,-0.06,-12.56,-30.19,1264.13,1412.0,0.0,0.0,0.0,0.0
1775763770916267075,21219,0.0,1.4,0.008,0.3,0.1,-0.04,-23.31,0.88,-9.25,-1.26,0.11,-0.62,3.63,-14.06,-16.12,1243.2,1261.0,0.0,0.0,0.0,0.0
1775763771155613837,21319,0.0,1.5,0.0,0.4,-0.1,-0.16,-24.12,1.56,-10.38,-1.79,-0.74,-0.14,-19.62,0.44,-1.0,1280.08,1261.0,0.0,0.0,0.0,0.0
1775763771217855765,21419,0.0,1.2,0.0,0.4,0.0,-0.04,-23.87,0.37,-11.44,-0.78,-0.65,-0.69,-0.44,16.69,3.75,1243.2,1763.0,0.0,0.0,0.0,0.0
1775763771231247490,21519,0.0,1.3,0.0,0.5,-0.14,-0.14,-24.0,-0.75,-10.81,-0.17,-0.79,-1.19,7.56,3.75,-3.31,1320.89,1377.0,0.0,0.0,0.0,0.0
1775763771315677942,21618,0.0,1.6,0.036,0.6,0.04,-0.1,-24.0,-1.56,-10.44,-0.02,-0.24,-0.82,4.31,-3.0,0.56,1288.31,1377.0,0.0,0.0,0.0,0.0
1775763771417513046,21719,0.0,1.1,0.028,0.2,0.1,-0.04,-24.06,-1.44,-9.88,0.23,-0.14,-0.61,7.94,-2.25,-1.94,1284.88,1442.0,0.0,0.0,0.0,0.0
1775763771515295904,21820,0.0,1.5,0.028,0.5,0.02,-0.18,-23.69,-1.19,-9.94,0.5,0.02,-0.41,2.88,-5.75,7.19,1236.86,1709.0,0.0,0.0,0.0,0.0
1775763771617179354,21920,0.0,1.5,0.016,0.2,-0.08,-0.12,-22.62,-0.88,-9.88,0.48,-0.19,-0.05,8.56,-7.38,13.19,1311.63,1709.0,0.0,0.0,0.0,0.0
1775763771714983346,22020,0.0,1.4,0.004,0.2,-0.02,-0.29,-21.06,-0.25,-9.38,0.21,-0.54,0.61,1.94,-8.94,21.5,1229.14,1404.0,0.0,0.0,0.0,0.0
1775763771816884926,22120,0.0,1.5,0.02,0.5,0.0,-0.1,-18.56,-0.5,-9.31,-1.63,-0.26,0.38,0.88,3.69,21.56,1169.97,1184.0,0.0,0.0,0.0,0.0
1775763771914754601,22220,0.0,1.2,0.004,0.1,-0.02,-0.12,-17.5,-1.06,-9.25,-2.01,0.16,-0.13,-0.37,2.81,5.75,1200.5,1184.0,0.0,0.0,0.0,0.0
1775763772016563904,22320,0.0,1.3,0.0,0.6,0.02,-0.06,-16.81,-1.12,-7.38,-0.92,0.4,-0.6,-0.56,3.44,7.88,1217.14,1244.0,0.0,0.0,0.0,0.0
1775763772139593174,22420,0.0,1.5,0.0,0.1,-0.04,-0.14,-16.12,-1.25,-6.88,-0.75,0.35,-0.9,-0.81,0.94,4.75,1310.95,1244.0,0.0,0.0,0.0,0.0
1775763772212215558,22520,0.0,1.2,0.008,0.6,0.21,-0.14,-16.0,-0.81,-6.06,-0.06,0.11,-0.77,3.0,-3.88,0.88,1227.94,1526.0,0.0,0.0,0.0,0.0
1775763772314101714,22620,0.0,1.2,0.048,0.3,-0.04,-0.12,-15.75,-0.44,-5.63,0.26,0.23,-0.99,7.13,-3.38,4.44,1239.09,1412.0,0.0,0.0,0.0,0.0
1775763772411945353,22721,0.0,1.5,0.02,0.2,-0.16,-0.08,-15.44,-0.06,-6.0,0.45,0.31,-0.62,0.12,5.81,0.5,1202.56,1412.0,0.0,0.0,0.0,0.0
1775763772513893121,22821,0.0,1.3,0.028,0.2,-0.04,-0.12,-15.63,-0.88,-6.25,0.62,0.12,0.2,-3.13,11.63,-5.06,1194.84,1578.0,0.0,0.0,0.0,0.0
1775763772615740943,22922,0.0,1.4,0.004,0.6,-0.04,-0.06,-16.44,-1.75,-6.75,0.16,-0.23,1.46,-5.5,-2.56,-12.5,1252.98,1355.0,0.0,0.0,0.0,0.0
1775763772713617959,23022,0.0,1.6,0.008,0.1,0.08,-0.27,-17.87,-0.56,-7.06,-0.51,0.26,-0.01,1.12,-16.37,-18.12,1201.36,1355.0,0.0,0.0,0.0,0.0
1775763772811441933,23121,0.0,1.2,0.004,0.2,0.0,-0.08,-19.44,0.5,-7.56,-1.35,-0.36,-0.7,-13.5,-0.69,-13.63,1243.89,1106.0,0.0,0.0,0.0,0.0
1775763772913351459,23221,0.0,1.3,0.012,0.6,-0.06,-0.04,-20.0,0.5,-9.25,-1.04,-0.74,-0.52,-17.62,4.38,0.94,1237.72,1106.0,0.0,0.0,0.0,0.0
1775763773011177009,23321,0.0,1.4,0.0,0.1,-0.04,-0.23,-19.69,-0.44,-9.88,0.01,-0.61,-0.61,4.5,12.94,5.69,1283.85,1408.0,0.0,0.0,0.0,0.0
1775763773143589636,23421,0.0,1.3,0.0,0.3,0.06,-0.08,-19.25,-1.37,-9.06,-0.4,-0.72,-1.07,6.25,7.0,4.0,1227.43,1896.0,0.0,0.0,0.0,0.0
1775763773210989591,23522,0.0,1.4,0.008,0.4,-0.18,-0.08,-19.0,-1.31,-8.81,0.48,-0.5,-1.14,3.63,-6.5,2.88,1228.11,1896.0,0.0,0.0,0.0,0.0
1775763773312927657,23622,0.0,1.4,0.044,0.3,-0.06,-0.14,-17.94,-0.75,-8.31,0.5,0.52,-0.58,4.88,-6.06,16.37,1280.25,1556.0,0.0,0.0,0.0,0.0
1775763773410765284,23723,0.0,1.6,0.02,0.2,-0.1,-0.16,-15.81,-0.88,-8.13,0.49,-0.47,-0.65,-2.44,-3.56,24.19,1237.37,2697.0,0.0,0.0,0.0,0.0
1775763773512671734,23824,0.0,1.2,0.02,0.4,-0.06,-0.06,-13.25,-0.69,-8.56,-0.13,-0.62,0.65,3.44,-15.63,25.87,1180.78,2697.0,0.0,0.0,0.0,0.0
1775763773610525805,23923,0.0,0.3,0.0,0.8,0.0,-0.12,-9.88,-0.06,-7.06,-0.8,-0.34,0.89,24.81,-1.63,37.5,1177.18,1497.0,0.0,0.0,0.0,0.0
1775763773743588004,24024,0.0,1.0,0.004,0.2,0.08,0.02,-6.94,-1.12,-5.0,-1.86,0.53,0.14,12.56,9.06,22.62,11975.5,1258.0,0.0,0.0,0.0,0.0
1775763773810350295,24124,0.0,1.0,0.008,0.5,0.04,-0.35,-5.5,-1.5,-4.75,-1.8,0.73,-0.14,-4.75,-5.94,10.94,1168.77,1258.0,0.0,0.0,0.0,0.0
1775763773908198615,24223,0.0,1.1,0.0,-0.1,0.04,-0.16,-4.44,-0.81,-5.31,-1.02,0.79,-0.46,-6.06,-9.19,11.13,1207.87,1260.0,0.0,0.0,0.0,0.0
1775763774010119042,24323,0.0,0.7,0.0,0.2,0.04,-0.04,-3.13,-0.63,-5.56,-0.91,0.36,-0.48,-4.25,4.81,13.38,1281.96,2073.0,0.0,0.0,0.0,0.0
1775763774108016649,24423,0.0,0.9,0.004,0.5,-0.06,0.04,-2.19,-1.5,-5.81,-0.61,-0.09,-0.72,-2.94,6.63,7.5,1185.06,2073.0,0.0,0.0,0.0,0.0
1775763774205861336,24522,0.0,0.8,0.012,0.1,-0.06,-0.04,-1.75,-1.88,-6.06,-0.64,0.11,-0.68,-5.75,1.75,0.63,1189.87,1314.0,0.0,0.0,0.0,0.0
1775763774307872439,24623,0.0,0.9,0.048,0.5,-0.1,-0.12,-2.69,-1.81,-6.5,-0.32,0.36,-0.37,-7.19,2.69,-15.44,1193.47,1314.0,0.0,0.0,0.0,0.0
1775763774405705767,24723,0.0,0.8,0.024,0.3,0.1,-0.16,-4.63,-2.19,-6.75,-0.14,0.27,-0.11,0.88,9.06,-22.31,1211.99,1273.0,0.0,0.0,0.0,0.0
1775763774507660280,24822,0.0,0.9,0.012,0.2,0.08,-0.1,-7.19,-2.44,-6.69,-0.75,-0.19,-0.19,1.81,1.75,-28.56,11971.9,1230.0,0.0,0.0,0.0,0.0
1775763774605537438,24922,0.0,1.1,0.016,0.4,0.08,-0.12,-9.44,-1.94,-6.38,-0.86,-0.56,-0.45,0.94,-6.19,-26.69,1259.15,1230.0,0.0,0.0,0.0,0.0
1775763774815582133,25022,0.0,0.8,0.012,0.3,0.02,-0.21,-12.0,-1.31,-6.81,-0.55,-0.43,-0.1,-7.5,-0.06,-23.44,11971.04,2112.0,0.0,0.0,0.0,0.0
1775763774827951516,25122,0.0,0.9,0.004,0.3,-0.04,-0.12,-13.5,-1.44,-7.13,-0.17,-0.37,-0.21,4.44,1.81,-6.0,1262.75,1659.0,0.0,0.0,0.0,0.0
1775763774903277633,25222,0.0,0.9,0.004,0.1,0.1,-0.16,-13.88,-1.69,-6.69,-0.66,-0.36,-0.82,-1.19,2.94,-2.19,1276.82,1659.0,0.0,0.0,0.0,0.0
1775763775005229618,25322,0.0,0.9,0.0,0.5,-0.02,-0.12,-13.88,-2.38,-7.0,-0.42,-0.41,-0.18,-7.13,2.13,1.25,1229.14,1579.0,0.0,0.0,0.0,0.0
1775763775103159620,25422,0.0,1.0,0.0,0.2,-0.02,-0.14,-13.63,-2.44,-7.06,-0.12,-0.3,-0.34,3.19,-4.94,3.19,1229.48,1316.0,0.0,0.0,0.0,0.0
1775763775205143687,25523,0.0,0.9,0.004,0.4,-0.06,-0.16,-13.06,-2.06,-7.0,-0.17,-0.34,-0.34,-3.44,-5.63,8.31,1254.01,1316.0,0.0,0.0,0.0,0.0
1775763775303048808,25623,0.0,0.9,0.048,0.3,-0.04,-0.06,-11.94,-1.94,-7.25,-0.51,-0.0,-0.26,-5.5,-0.56,12.94,1255.38,1165.0,0.0,0.0,0.0,0.0
1775763775405055026,25722,0.0,1.0,0.028,0.3,0.0,-0.18,-10.88,-2.25,-7.44,-0.03,-0.02,-0.4,-4.81,2.81,9.81,1246.63,1165.0,0.0,0.0,0.0,0.0
1775763775502930084,25823,0.0,1.0,0.012,0.1,-0.12,-0.14,-9.88,-2.5,-7.81,-0.05,0.03,-0.46,-3.56,-1.69,10.0,1237.03,1440.0,0.0,0.0,0.0,0.0
1775763775604881597,25923,0.0,1.0,0.008,0.3,0.0,-0.18,-8.75,-2.31,-8.06,0.03,0.16,-0.46,-2.13,-3.06,12.5,1241.66,1673.0,0.0,0.0,0.0,0.0
1775763775702828438,26023,0.0,0.8,0.0,0.3,-0.02,-0.18,-7.63,-2.25,-8.13,0.1,-0.1,-0.51,0.81,-0.63,8.94,1347.99,1673.0,0.0,0.0,0.0,0.0
1775763775800713493,26123,0.0,1.0,0.004,0.2,0.02,0.04,-7.13,-2.13,-8.06,-0.33,-0.05,-0.4,-0.75,-4.06,1.94,1237.2,2073.0,0.0,0.0,0.0,0.0
1775763775902716225,26222,0.0,0.7,0.004,0.2,-0.14,-0.08,-7.06,-1.63,-8.13,0.21,0.09,-0.22,-0.12,-5.19,-1.25,1333.41,1362.0,0.0,0.0,0.0,0.0
1775763776000619100,26321,0.0,1.0,0.0,0.2,0.14,-0.12,-7.13,-1.25,-8.0,-0.08,0.1,-0.32,1.88,-3.56,0.81,1261.21,1362.0,0.0,0.0,0.0,0.0
1775763776098548122,26421,0.0,1.0,0.0,0.2,-0.08,-0.2,-7.06,-0.94,-8.06,-0.04,0.04,-0.38,-3.31,-1.0,-0.69,1326.38,1463.0,0.0,0.0,0.0,0.0
1775763776200564851,26521,0.0,1.0,0.0,0.2,0.08,-0.08,-7.19,-0.94,-8.25,-0.05,-0.08,-0.39,0.06,-0.5,-0.81,1334.44,1216.0,0.0,0.0,0.0,0.0
1775763776298503797,26621,0.0,0.9,0.032,0.5,0.08,-0.08,-7.19,-0.81,-8.25,-0.09,-0.03,-0.35,-0.5,-1.12,-1.63,1314.55,1216.0,0.0,0.0,0.0,0.0
1775763776400492872,26722,0.0,1.1,0.032,0.3,0.06,-0.08,-7.38,-0.69,-8.25,-0.02,-0.03,-0.3,1.69,-0.88,-1.88,1292.42,1570.0,0.0,0.0,0.0,0.0
1775763776498413740,26822,0.0,1.0,0.012,0.3,-0.1,-0.16,-7.5,-0.63,-8.0,-0.04,0.01,-0.34,3.06,-1.19,-0.31,1356.05,1570.0,0.0,0.0,0.0,0.0
1775763776606301452,26921,0.0,1.0,0.0,0.3,0.06,-0.12,-7.44,-0.5,-7.69,-0.03,0.01,-0.41,3.75,-0.0,0.88,1293.28,1936.0,0.0,0.0,0.0,0.0
1775763776919581169,27021,0.0,0.9,0.012,0.3,0.0,-0.18,-7.38,-0.63,-7.25,-0.11,-0.09,-0.4,4.31,0.5,1.06,11975.16,1507.0,0.0,0.0,0.0,0.0
1775763776931407461,27121,0.0,0.6,0.0,0.4,0.02,-0.06,-7.31,-0.63,-6.94,-0.09,-0.04,-0.34,1.88,0.06,0.0,1233.6,1507.0,0.0,0.0,0.0,0.0
1775763776945161274,27222,0.0,1.2,0.0,0.3,-0.1,0.08,-7.31,-0.63,-6.88,-0.08,-0.0,-0.4,0.19,-0.06,0.81,1245.6,1734.0,0.0,0.0,0.0,0.0
1775763777000303691,27323,0.0,1.0,0.0,0.2,0.04,0.0,-7.19,-0.63,-6.81,-0.03,-0.05,-0.35,1.31,0.31,1.25,1227.6,1293.0,0.0,0.0,0.0,0.0
1775763777098206582,27422,0.0,1.2,0.004,0.5,-0.16,-0.23,-7.13,-0.69,-6.75,-0.17,-0.09,-0.37,0.37,0.06,0.75,1226.57,1293.0,0.0,0.0,0.0,0.0
1775763777196128368,27522,0.0,0.6,0.004,0.5,0.1,-0.04,-7.13,-0.69,-6.69,-0.05,-0.07,-0.34,0.81,0.31,0.88,1233.6,1592.0,0.0,0.0,0.0,0.0
1775763777298207978,27623,0.0,0.9,0.048,0.3,0.0,-0.16,-7.0,-0.81,-6.63,-0.15,-0.07,-0.36,0.25,0.63,1.75,1232.4,1263.0,0.0,0.0,0.0,0.0
1775763777396182573,27722,0.0,0.9,0.024,0.3,0.0,-0.18,-6.81,-0.88,-6.63,-0.1,-0.09,-0.45,-0.37,1.0,0.94,1224.68,1263.0,0.0,0.0,0.0,0.0
1775763777498189593,27822,0.0,0.9,0.028,0.5,-0.1,-0.1,-6.81,-0.88,-6.63,-0.06,-0.13,-0.35,0.06,-0.5,0.06,1228.8,1777.0,0.0,0.0,0.0,0.0
1775763777596096009,27923,0.0,1.0,0.012,0.1,0.02,-0.25,-6.81,-0.81,-6.63,-0.13,-0.05,-0.36,-0.12,-0.44,-0.56,1237.2,1777.0,0.0,0.0,0.0,0.0
1775763777711572144,28022,0.0,0.7,0.012,0.5,0.02,-0.1,-6.94,-0.81,-6.63,-0.04,-0.08,-0.3,0.5,-0.06,-1.63,1241.32,1669.0,0.0,0.0,0.0,0.0
1775763777796090411,28122,0.0,1.1,0.012,0.2,0.1,-0.06,-7.06,-0.75,-6.56,-0.24,-0.05,-0.34,-0.25,-1.37,-1.25,1410.07,1373.0,0.0,0.0,0.0,0.0
1775763777894058105,28223,0.0,0.9,0.012,0.3,-0.06,-0.18,-7.19,-0.69,-6.63,-0.1,-0.03,-0.31,-1.44,-0.25,-1.44,1294.48,1373.0,0.0,0.0,0.0,0.0
1775763777996085109,28322,0.0,0.7,0.004,0.5,-0.16,-0.06,-7.31,-0.63,-6.75,-0.09,-0.07,-0.4,-1.06,-1.0,-1.25,1299.8,1370.0,0.0,0.0,0.0,0.0
1775763778095969408,28423,0.0,1.0,0.0,0.0,-0.12,-0.06,-7.38,-0.5,-6.88,-0.08,-0.0,-0.35,-0.63,-0.5,-0.31,11970.53,1420.0,0.0,0.0,0.0,0.0
1775763778204014241,28523,0.0,0.6,0.012,0.3,-0.06,-0.1,-7.44,-0.5,-6.88,0.04,-0.13,-0.35,0.31,0.19,-1.06,11970.7,1532.0,0.0,0.0,0.0,0.0
1775763778296073635,28623,0.0,0.9,0.044,0.6,0.1,-0.02,-7.56,-0.44,-6.81,-0.11,0.02,-0.37,1.69,-1.06,-1.06,11971.04,1532.0,0.0,0.0,0.0,0.0
1775763778396096708,28724,0.0,1.0,0.036,0.4,0.16,-0.25,-7.63,-0.37,-6.63,-0.04,0.02,-0.4,1.81,-0.06,-0.25,11969.84,2602.0,0.0,0.0,0.0,0.0
1775763778494073205,28824,0.0,1.0,0.024,0.5,0.06,-0.06,-7.63,-0.44,-6.44,-0.08,-0.05,-0.36,2.88,0.81,-0.37,1244.23,2602.0,0.0,0.0,0.0,0.0
1775763778596092841,28923,0.0,0.9,0.016,0.3,-0.1,-0.08,-7.63,-0.5,-6.25,-0.02,-0.07,-0.27,0.81,-0.37,0.44,1280.25,1378.0,0.0,0.0,0.0,0.0
1775763778694058597,29024,0.0,0.9,0.016,0.3,-0.08,-0.16,-7.63,-0.5,-6.19,-0.12,-0.03,-0.34,-0.37,0.19,-0.12,1289.68,1378.0,0.0,0.0,0.0,0.0
1775763778796134043,29124,0.0,0.7,0.016,0.2,0.14,-0.12,-7.63,-0.5,-6.25,-0.11,-0.11,-0.35,-0.56,0.19,-0.56,1290.37,1665.0,0.0,0.0,0.0,0.0
1775763778894162584,29223,0.0,1.0,0.004,0.3,-0.02,-0.04,-7.69,-0.5,-6.25,-0.07,-0.02,-0.37,-0.37,-0.37,-0.81,1283.68,1318.0,0.0,0.0,0.0,0.0
1775763778996156456,29324,0.0,0.9,0.0,0.1,-0.08,0.02,-7.75,-0.5,-6.25,-0.1,0.01,-0.4,-0.44,1.25,-0.75,1271.16,1318.0,0.0,0.0,0.0,0.0
1775763779094123566,29425,0.0,1.0,0.004,0.5,0.02,-0.21,-7.81,-0.63,-6.25,-0.07,-0.12,-0.42,0.12,0.88,-0.75,1278.19,1429.0,0.0,0.0,0.0,0.0
1775763779192109295,29524,0.0,1.1,0.016,0.1,0.08,-0.27,-7.88,-0.56,-6.25,-0.09,-0.05,-0.32,0.5,-1.44,-0.69,1265.16,1582.0,0.0,0.0,0.0,0.0
1775763779294171702,29624,0.0,1.0,0.044,0.5,0.02,-0.12,-7.88,-0.5,-6.25,-0.12,-0.06,-0.3,-0.5,-0.31,-1.06,1240.8,1582.0,0.0,0.0,0.0,0.0
1775763779392148774,29723,0.0,0.8,0.024,0.4,-0.06,-0.21,-7.94,-0.44,-6.31,-0.03,-0.09,-0.38,-0.75,-0.19,-1.25,1240.97,2061.0,0.0,0.0,0.0,0.0
1775763779490153441,29822,0.0,1.2,0.02,0.1,-0.12,-0.08,-8.06,-0.44,-6.44,0.0,-0.22,-0.41,-1.31,-1.12,-1.19,1348.16,1250.0,0.0,0.0,0.0,0.0
1775763779592162502,29923,0.0,0.6,0.016,0.3,-0.06,-0.16,-8.06,-0.31,-6.5,0.04,-0.09,-0.3,0.25,-1.88,1.25,1370.97,1250.0,0.0,0.0,0.0,0.0
1775763779690164272,30023,0.0,0.9,0.016,0.5,-0.06,-0.1,-7.88,-0.37,-6.56,0.03,-0.22,-0.36,-1.06,0.19,2.75,1325.87,1237.0,0.0,0.0,0.0,0.0
1775763779792269116,30124,0.0,1.1,0.012,0.2,0.06,-0.08,-7.69,-0.44,-6.56,-0.05,-0.18,-0.49,0.94,-0.69,0.88,1285.05,1237.0,0.0,0.0,0.0,0.0
1775763780031595583,30225,0.0,0.9,0.008,0.2,0.08,-0.1,-7.75,-0.25,-6.5,-0.06,-0.03,-0.53,0.81,-2.44,-2.5,1292.42,1480.0,0.0,0.0,0.0,0.0
1775763780094444443,30325,0.0,1.0,0.0,0.6,0.04,-0.12,-8.06,-0.25,-6.31,0.11,-0.0,-0.34,4.0,1.56,-2.19,1242.17,2131.0,0.0,0.0,0.0,0.0
1775763780107439267,30426,0.0,1.1,0.0,0.3,-0.08,-0.14,-8.0,-0.44,-5.81,-0.01,0.04,-0.3,5.75,2.44,2.44,1202.73,2131.0,0.0,0.0,0.0,0.0
1775763780192361704,30526,0.0,0.7,0.012,0.2,-0.04,-0.23,-7.81,-0.69,-5.25,0.01,-0.0,-0.35,4.75,2.63,1.81,1305.11,1447.0,0.0,0.0,0.0,0.0
1775763780290352185,30626,0.0,0.9,0.048,0.3,-0.08,-0.08,-7.63,-0.69,-4.69,-0.1,0.11,-0.33,7.25,-1.37,2.0,1345.93,1290.0,0.0,0.0,0.0,0.0
1775763780392475131,30726,0.0,1.0,0.028,0.3,-0.02,0.04,-7.44,-0.44,-4.06,-0.17,0.3,-0.22,4.5,-1.5,1.94,1235.83,1290.0,0.0,0.0,0.0,0.0
1775763780490452541,30826,0.0,0.8,0.028,0.0,0.06,-0.14,-7.38,-0.44,-3.75,-0.01,0.08,-0.29,3.0,1.63,0.19,1210.1,1361.0,0.0,0.0,0.0,0.0
1775763780592509412,30926,0.0,0.9,0.02,0.3,0.02,-0.18,-7.25,-0.44,-3.31,-0.24,0.1,-0.43,3.56,-1.69,1.56,1197.76,1087.0,0.0,0.0,0.0,0.0
1775763780690530079,31026,0.0,0.9,0.024,0.4,0.08,-0.18,-7.13,-0.31,-3.06,-0.06,0.09,-0.29,1.44,0.31,1.37,1207.53,1087.0,0.0,0.0,0.0,0.0
1775763780792653210,31126,0.0,0.9,0.008,0.4,-0.08,0.0,-6.94,-0.44,-3.0,-0.04,-0.11,-0.33,-0.94,-0.12,3.13,1198.79,1335.0,0.0,0.0,0.0,0.0
1775763780890635900,31226,0.0,0.9,0.016,0.1,-0.08,-0.02,-6.63,-0.56,-2.94,-0.18,-0.13,-0.18,2.31,1.69,3.13,1183.69,1335.0,0.0,0.0,0.0,0.0
1775763781059584297,31327,0.0,1.1,0.004,0.3,0.08,-0.16,-6.44,-0.69,-2.75,0.04,-0.2,-0.78,-2.31,-0.81,0.06,1192.95,1319.0,0.0,0.0,0.0,0.0
1775763781090744886,31426,0.0,0.9,0.0,0.3,0.02,-0.16,-6.69,-0.37,-3.19,1.15,0.15,-0.32,-2.06,-5.44,-6.88,1194.5,1334.0,0.0,0.0,0.0,0.0
1775763781188749428,31525,0.0,1.0,0.024,0.1,0.0,-0.16,-7.63,0.19,-3.31,0.49,0.23,-0.7,3.56,-1.94,-10.94,1235.31,1334.0,0.0,0.0,0.0,0.0
1775763781286776016,31625,0.0,0.8,0.048,0.3,-0.1,0.0,-8.44,0.19,-3.88,0.67,0.41,-0.81,-5.75,4.06,-5.75,1188.32,1615.0,0.0,0.0,0.0,0.0
1775763781388868390,31724,0.0,0.8,0.04,0.2,-0.1,-0.14,-9.13,-0.0,-5.19,0.96,0.4,-0.49,-7.0,7.5,-8.5,1209.59,1265.0,0.0,0.0,0.0,0.0
1775763781486887999,31824,0.0,0.9,0.012,0.6,0.02,-0.12,-9.88,-0.44,-6.56,0.69,0.17,-0.14,-4.06,9.94,-4.25,1265.33,1265.0,0.0,0.0,0.0,0.0
1775763781588946970,31925,0.0,0.8,0.02,0.6,0.16,-0.16,-10.31,-1.19,-7.13,-0.31,-0.2,0.29,-0.88,4.38,-5.94,1211.99,1291.0,0.0,0.0,0.0,0.0
1775763781686977362,32025,0.0,0.7,0.016,0.6,-0.06,-0.04,-11.69,-0.5,-7.06,0.01,-0.24,0.26,1.06,-10.75,-18.62,1247.66,1342.0,0.0,0.0,0.0,0.0
1775763781789111818,32125,0.0,0.8,0.008,0.5,-0.1,-0.06,-13.13,0.37,-6.81,-1.29,-0.33,0.0,2.06,-4.88,-13.69,1191.92,1342.0,0.0,0.0,0.0,0.0
1775763781915590619,32225,0.0,1.0,0.008,0.3,-0.04,-0.12,-14.63,0.69,-7.06,-1.6,-0.53,-0.59,-6.5,1.44,-15.38,11972.93,1555.0,0.0,0.0,0.0,0.0
1775763781985103026,32325,0.0,1.0,0.012,0.3,-0.1,-0.18,-15.5,0.12,-7.5,-0.55,-0.8,-0.29,-3.94,6.56,-3.38,1212.16,1555.0,0.0,0.0,0.0,0.0
1775763782087249735,32424,0.0,0.9,0.004,0.4,-0.08,-0.02,-15.81,-0.19,-7.63,-0.06,-0.4,-0.79,-2.56,1.63,-2.81,1272.36,1134.0,0.0,0.0,0.0,0.0
1775763782185283439,32524,0.0,0.7,0.028,0.2,-0.1,-0.2,-15.75,-0.88,-8.06,-0.09,-0.45,-0.9,-5.94,7.0,3.81,1259.15,1152.0,0.0,0.0,0.0,0.0
1775763782283296571,32623,0.0,0.9,0.052,0.2,-0.02,-0.25,-15.44,-1.69,-8.56,0.32,-0.51,-0.89,-2.56,3.88,2.19,1249.72,1152.0,0.0,0.0,0.0,0.0
1775763782385421659,32723,0.0,0.9,0.036,0.3,-0.02,-0.14,-15.25,-2.5,-9.56,0.43,-0.51,-0.86,-3.06,-3.94,2.25,1275.45,1668.0,0.0,0.0,0.0,0.0
1775763782483377818,32824,0.0,0.8,0.016,0.6,-0.08,-0.14,-14.88,-2.81,-10.56,0.37,-0.26,-0.34,1.75,-6.88,2.38,1243.2,1248.0,0.0,0.0,0.0,0.0
1775763782585521503,32924,0.0,1.1,0.028,0.3,-0.1,-0.14,-14.81,-2.31,-10.25,0.39,-0.18,0.03,6.0,-6.25,-1.19,1243.55,1248.0,0.0,0.0,0.0,0.0
1775763782693621253,33024,0.0,0.7,0.012,0.3,0.06,-0.12,-14.5,-2.06,-9.94,-0.44,-0.06,0.14,0.75,-2.13,7.5,1237.72,1053.0,0.0,0.0,0.0,0.0
1775763782785718820,33125,0.0,0.7,0.0,0.6,-0.06,-0.12,-13.5,-1.63,-9.94,-1.15,0.26,0.04,-0.44,-6.75,11.94,1212.68,1852.0,0.0,0.0,0.0,0.0
1775763782883732118,33225,0.0,0.7,0.012,0.6,-0.08,-0.16,-12.06,-1.75,-10.06,-2.23,0.51,-0.09,-1.31,2.0,13.25,1269.27,1852.0,0.0,0.0,0.0,0.0
1775763782985857612,33325,0.0,1.0,0.004,0.6,-0.1,-0.04,-11.56,-2.19,-10.0,-1.09,0.4,-0.7,1.12,2.81,0.5,1208.56,1128.0,0.0,0.0,0.0,0.0
1775763783083908449,33425,0.0,1.1,0.0,0.4,-0.08,-0.02,-11.31,-2.25,-9.44,-0.77,0.34,-0.8,6.81,-1.12,6.19,1250.92,1128.0,0.0,0.0,0.0,0.0
1775763783227822430,33524,0.0,0.7,0.016,0.3,-0.04,-0.21,-11.0,-1.63,-7.63,-0.67,0.33,-0.46,7.44,1.44,-1.12,1221.59,1331.0,0.0,0.0,0.0,0.0
1775763783284094243,33625,0.0,0.9,0.036,0.8,0.0,-0.14,-11.5,-1.5,-6.75,-0.13,0.2,-0.91,0.37,0.75,-7.13,1200.16,1426.0,0.0,0.0,0.0,0.0
1775763783386209866,33726,0.0,0.9,0.032,0.3,-0.1,-0.12,-12.5,-1.25,-7.56,0.25,0.6,-0.24,-11.25,1.69,-11.31,1243.72,1426.0,0.0,0.0,0.0,0.0
1775763783484281552,33826,0.0,1.0,0.02,0.5,0.16,-0.16,-13.56,-1.31,-8.56,0.63,0.14,0.08,-2.69,7.25,-10.25,1201.87,1606.0,0.0,0.0,0.0,0.0
1775763783586338051,33927,0.0,1.2,0.02,0.3,0.1,-0.23,-14.56,-1.69,-8.81,-0.24,-0.28,1.18,-3.0,3.5,-8.88,1201.87,1333.0,0.0,0.0,0.0,0.0
1775763783684425307,34027,0.0,0.7,0.012,0.6,0.02,-0.16,-15.63,-1.06,-9.13,-0.81,0.42,-0.39,-4.69,-9.56,-14.81,1202.39,1333.0,0.0,0.0,0.0,0.0
1775763783782492450,34126,0.0,0.9,0.0,1.3,0.0,-0.12,-17.06,-0.31,-9.94,-1.57,-0.41,-0.23,-14.63,-0.12,-12.13,1232.57,1164.0,0.0,0.0,0.0,0.0
1775763783884650111,34226,0.0,1.2,0.004,0.6,0.04,-0.1,-17.56,-0.37,-10.94,-0.73,-0.94,-0.39,-3.94,2.06,-0.06,1220.22,1538.0,0.0,0.0,0.0,0.0
1775763784011594517,34327,0.0,1.2,0.012,0.2,0.0,-0.14,-17.44,-0.94,-10.13,-0.52,-0.65,-0.85,11.81,-0.12,0.37,1242.52,1538.0,0.0,0.0,0.0,0.0
1775763784084787889,34426,0.0,1.4,0.0,0.2,0.08,-0.12,-17.56,-0.88,-9.38,-0.46,-0.21,-0.77,2.56,-2.0,-2.31,1222.11,1505.0,0.0,0.0,0.0,0.0
1775763784186899626,34527,0.0,1.4,0.02,0.3,0.1,-0.14,-17.69,-0.88,-9.38,0.25,-0.32,-0.97,-0.81,-2.13,-0.19,1238.92,1505.0,0.0,0.0,0.0,0.0
1775763784284981411,34628,0.0,1.4,0.04,0.3,0.06,-0.12,-17.19,-0.69,-9.63,0.77,-0.04,-0.59,1.06,-2.81,9.19,1209.59,1367.0,0.0,0.0,0.0,0.0
1775763784383061977,34727,0.0,1.6,0.032,0.3,0.0,-0.1,-15.88,-0.75,-9.94,0.45,-0.22,-0.12,2.0,-5.56,14.38,1241.49,1228.0,0.0,0.0,0.0,0.0
1775763784485150899,34827,0.0,1.4,0.02,0.3,0.0,-0.16,-14.19,-0.37,-9.75,-0.56,-0.11,0.52,5.75,-6.44,23.75,1255.21,1228.0,0.0,0.0,0.0,0.0
1775763784583227549,34928,0.0,1.4,0.016,0.5,-0.02,-0.08,-11.31,-0.63,-8.63,-1.37,0.25,0.39,15.13,2.94,26.81,1205.3,1506.0,0.0,0.0,0.0,0.0
1775763784685389458,35027,0.0,1.0,0.012,0.0,-0.02,-0.23,-9.44,-1.06,-7.56,-1.93,0.41,-0.29,4.38,-1.75,14.25,1236.34,1736.0,0.0,0.0,0.0,0.0
1775763784783431692,35128,0.0,1.6,0.016,0.3,0.06,-0.23,-8.44,-0.25,-6.31,-1.4,0.44,-0.28,-6.88,-7.56,7.81,1209.42,1736.0,0.0,0.0,0.0,0.0
1775763784885590220,35228,0.0,1.5,0.016,0.0,-0.06,-0.16,-7.81,0.69,-5.06,-0.77,0.32,-0.7,-9.44,1.69,4.44,1229.31,1117.0,0.0,0.0,0.0,0.0
1775763784993736641,35329,0.0,1.4,0.008,0.3,0.0,-0.23,-7.44,0.69,-5.0,-0.2,-0.02,-0.64,-3.44,5.94,4.63,1219.71,1671.0,0.0,0.0,0.0,0.0
1775763785123590502,35429,0.0,1.3,0.008,0.3,0.02,-0.02,-7.06,0.19,-4.88,0.65,-0.08,-0.79,6.5,1.81,3.5,1219.02,1671.0,0.0,0.0,0.0,0.0
1775763785183872089,35528,0.0,1.6,0.016,0.4,-0.06,-0.02,-7.0,0.12,-4.31,0.17,0.18,-0.43,12.56,0.37,-5.0,1199.3,1670.0,0.0,0.0,0.0,0.0
1775763785281874595,35628,0.0,1.2,0.056,0.3,0.0,-0.14,-7.81,-0.0,-3.13,0.02,0.21,-0.47,11.5,6.88,-9.38,1233.43,1411.0,0.0,0.0,0.0,0.0
1775763785384173129,35728,0.0,1.4,0.032,0.3,0.1,-0.25,-8.63,-0.5,-2.38,0.23,0.29,-0.6,4.56,8.5,-8.56,11974.64,1567.0,0.0,0.0,0.0,0.0
1775763785482126602,35828,0.0,1.2,0.028,0.3,-0.04,-0.21,-9.75,-1.06,-2.25,-0.08,0.17,-0.41,0.94,8.06,-15.06,1192.44,1567.0,0.0,0.0,0.0,0.0
1775763785584322691,35928,0.0,1.4,0.024,0.2,0.02,-0.08,-11.13,-1.44,-2.31,-0.33,-0.29,-0.28,-1.81,2.5,-11.44,1168.26,1567.0,0.0,0.0,0.0,0.0
1775763785682346665,36029,0.0,1.4,0.012,0.5,0.02,-0.2,-11.94,-1.56,-2.5,-0.29,-0.8,-0.33,-2.25,-1.12,-6.81,1184.55,1704.0,0.0,0.0,0.0,0.0
1775763785784538727,36129,0.0,1.2,0.0,0.3,-0.08,-0.14,-12.56,-1.37,-2.63,-0.1,-0.72,-0.4,-0.56,-2.69,-7.25,1151.79,1578.0,0.0,0.0,0.0,0.0
1775763785882569407,36229,0.0,1.4,0.008,0.2,-0.08,-0.08,-13.06,-1.06,-2.63,0.29,-0.47,-0.93,2.06,-3.5,-3.5,1167.06,1578.0,0.0,0.0,0.0,0.0
1775763785984767584,36330,0.0,1.3,0.008,0.1,-0.04,-0.21,-13.25,-1.06,-2.25,0.38,-0.21,-1.51,5.44,3.38,0.88,1142.36,1422.0,0.0,0.0,0.0,0.0
1775763786082851768,36429,0.0,1.5,0.0,0.4,-0.04,-0.04,-12.69,-1.63,-1.81,0.19,-0.33,-2.2,4.69,2.38,10.13,1097.77,1065.0,0.0,0.0,0.0,0.0
1775763786185028169,36529,0.0,1.3,0.028,0.4,-0.04,-0.2,-11.5,-2.06,-1.69,0.14,-0.26,-2.4,2.31,2.0,13.25,1172.89,1065.0,0.0,0.0,0.0,0.0
1775763786283090913,36629,0.0,1.5,0.036,0.5,0.12,-0.21,-10.44,-2.38,-1.44,-0.22,-0.15,-2.17,3.06,0.19,7.56,1014.77,1130.0,0.0,0.0,0.0,0.0
1775763786381200662,36729,0.0,1.3,0.036,0.4,0.02,-0.06,-10.06,-2.38,-1.0,-0.72,-0.0,-1.42,4.06,-4.5,2.63,907.92,1130.0,0.0,0.0,0.0,0.0
1775763786489315154,36829,0.0,1.3,0.02,0.2,-0.12,-0.02,-9.81,-1.5,-0.75,-0.72,0.5,-0.67,0.25,-12.69,3.88,11972.41,956.0,0.0,0.0,0.0,0.0
1775763786581401744,36929,0.0,1.3,0.02,0.3,-0.1,-0.1,-9.63,-1.19,-0.63,-0.49,0.19,-0.37,1.5,2.5,-0.06,699.03,855.0,0.0,0.0,0.0,0.0
1775763786679544604,37028,0.0,1.1,0.012,0.5,0.04,-0.08,-9.81,-1.56,-0.31,-0.54,-0.48,0.02,1.19,2.88,-2.88,619.97,855.0,0.0,0.0,0.0,0.0
1775763786781678508,37128,0.0,1.5,0.0,0.4,0.06,-0.25,-9.94,-1.5,-0.5,-0.29,-0.46,0.62,-4.38,-3.75,-0.12,538.68,664.0,0.0,0.0,0.0,0.0
1775763786883826436,37229,0.0,1.3,0.0,0.2,0.04,-0.23,-9.56,-0.88,-0.94,0.07,-0.0,1.27,-4.19,-14.63,8.75,461.51,535.0,0.0,0.0,0.0,0.0
1775763786981929644,37329,0.0,1.5,0.008,0.3,-0.04,-0.18,-8.19,0.37,-0.69,0.3,0.1,0.1,8.69,-15.19,14.5,440.76,535.0,0.0,0.0,0.0,0.0
1775763787092006641,37430,0.0,1.3,0.0,0.0,0.0,-0.21,-7.38,1.56,0.56,0.26,0.1,0.3,17.0,-8.31,-0.5,11972.59,406.0,0.0,0.0,0.0,0.0
1775763787182199502,37530,0.0,1.2,0.02,0.2,0.06,-0.12,-7.75,1.94,2.13,0.09,-0.41,1.08,14.31,0.63,-3.19,298.41,406.0,0.0,0.0,0.0,0.0
1775763787282186145,37629,0.0,1.2,0.06,1.1,0.06,-0.18,-7.63,1.94,3.0,0.0,0.43,0.37,2.19,3.06,4.19,11972.93,313.0,0.0,0.0,0.0,0.0
1775763787382491737,37729,0.0,1.0,0.044,0.5,-0.02,-0.12,-7.38,1.19,2.75,-0.38,-0.29,0.46,-9.25,6.0,-1.44,264.62,245.0,0.0,0.0,0.0,0.0
1775763787480510720,37829,0.0,1.0,0.032,0.1,0.08,-0.12,-7.75,0.12,1.63,0.57,1.66,2.07,-13.81,25.44,-8.06,208.54,245.0,0.0,0.0,0.0,0.0
1775763787578592902,37928,0.0,1.1,0.024,0.1,0.04,-0.12,-8.31,-1.31,2.25,-0.1,-1.26,-0.62,8.56,3.31,-5.56,224.66,214.0,0.0,0.0,0.0,0.0
1775763787680829492,38029,0.0,1.0,0.008,0.3,-0.02,-0.14,-8.31,-1.37,2.56,-0.27,-0.57,-0.65,-3.0,-0.63,0.19,217.46,206.0,0.0,0.0,0.0,0.0
1775763787778902009,38129,0.0,1.1,0.0,0.3,-0.04,-0.1,-8.19,-1.31,2.44,-0.22,0.01,-0.39,1.5,0.12,1.94,204.26,206.0,0.0,0.0,0.0,0.0
1775763787881097039,38228,0.0,1.1,0.0,0.3,0.1,0.0,-8.19,-1.31,2.5,-0.03,-0.03,-0.4,0.75,0.56,-0.31,212.66,207.0,0.0,0.0,0.0,0.0
1775763787979181993,38328,0.0,0.9,0.004,0.2,-0.08,0.0,-8.19,-1.37,2.5,0.12,-0.08,-0.41,-0.12,-0.12,0.06,208.37,207.0,0.0,0.0,0.0,0.0
1775763788077256070,38428,0.0,1.1,0.0,0.3,0.06,-0.16,-8.19,-1.37,2.5,0.09,-0.03,-0.38,-0.12,-0.0,0.06,195.34,202.0,0.0,0.0,0.0,0.0
1775763788179469664,38528,0.0,1.1,0.02,0.3,0.12,-0.18,-8.19,-1.44,2.5,0.09,-0.04,-0.41,-0.06,0.12,0.0,199.97,206.0,0.0,0.0,0.0,0.0
1775763788281669417,38628,0.0,1.0,0.052,0.2,-0.04,-0.1,-8.19,-1.44,2.5,0.04,-0.05,-0.39,-0.12,-0.12,0.0,203.23,206.0,0.0,0.0,0.0,0.0
1775763788379730028,38729,0.0,0.9,0.02,0.3,-0.12,-0.14,-8.19,-1.44,2.44,0.08,-0.05,-0.38,-0.06,-0.12,0.0,208.54,203.0,0.0,0.0,0.0,0.0
1775763788477826363,38829,0.0,1.0,0.024,0.3,-0.04,-0.14,-8.19,-1.44,2.44,0.09,-0.05,-0.39,0.06,-0.0,0.06,204.26,205.0,0.0,0.0,0.0,0.0
1775763788580059493,38929,0.0,1.0,0.0,1.4,0.12,0.0,-8.19,-1.5,2.44,0.05,-0.04,-0.41,0.06,-0.06,0.0,212.83,205.0,0.0,0.0,0.0,0.0
1775763788678164643,39029,0.0,1.6,0.016,0.4,0.0,-0.2,-8.19,-1.5,2.44,0.08,-0.06,-0.39,-0.06,0.19,-0.06,212.66,201.0,0.0,0.0,0.0,0.0
1775763788780351182,39129,0.0,1.3,0.004,0.7,-0.02,-0.16,-8.19,-1.5,2.44,0.07,-0.06,-0.41,-0.0,0.06,0.06,208.54,202.0,0.0,0.0,0.0,0.0
1775763788878455464,39229,0.0,1.3,0.004,0.6,0.0,-0.12,-8.19,-1.5,2.44,0.07,-0.06,-0.39,-0.0,0.12,0.0,198.6,202.0,0.0,0.0,0.0,0.0
1775763788980643296,39330,0.0,1.3,0.012,0.3,-0.02,-0.08,-8.19,-1.5,2.44,0.07,-0.05,-0.41,-0.0,-0.0,0.0,208.54,205.0,0.0,0.0,0.0,0.0
1775763789078748376,39430,0.0,1.4,0.0,0.1,-0.08,-0.21,-8.19,-1.5,2.44,0.06,-0.04,-0.42,0.06,-0.06,0.0,208.54,202.0,0.0,0.0,0.0,0.0
1775763789186870612,39530,0.0,1.4,0.024,0.3,-0.14,-0.14,-8.19,-1.5,2.44,0.05,-0.05,-0.41,-0.06,-0.12,-0.06,208.54,202.0,0.0,0.0,0.0,0.0
1775763789279065021,39629,0.0,0.9,0.04,0.4,-0.06,-0.06,-8.19,-1.5,2.44,0.06,-0.04,-0.38,-0.19,-0.06,-0.06,207.52,202.0,0.0,0.0,0.0,0.0
1775763789381234355,39730,0.0,1.1,0.032,0.6,0.0,-0.1,-8.19,-1.5,2.44,0.07,-0.07,-0.37,-0.0,-0.25,0.0,212.66,202.0,0.0,0.0,0.0,0.0
1775763789479333296,39831,0.0,1.1,0.02,0.3,-0.04,-0.04,-8.19,-1.5,2.44,0.05,-0.04,-0.38,-0.0,-0.0,-0.06,208.54,199.0,0.0,0.0,0.0,0.0
1775763789577443383,39930,0.0,1.3,0.02,0.2,-0.02,-0.12,-8.19,-1.5,2.44,0.06,-0.03,-0.38,-0.06,-0.06,0.0,212.83,203.0,0.0,0.0,0.0,0.0
1775763789679682859,40030,0.0,1.5,0.004,0.5,-0.1,-0.06,-8.19,-1.5,2.44,0.06,-0.05,-0.38,0.06,-0.0,0.06,199.63,203.0,0.0,0.0,0.0,0.0
1775763789777796051,40131,0.0,1.3,0.004,0.5,0.0,-0.06,-8.19,-1.5,2.44,0.03,-0.04,-0.39,-0.12,0.19,0.0,212.66,201.0,0.0,0.0,0.0,0.0
1775763789880006860,40230,0.0,1.6,0.008,0.5,-0.06,-0.27,-8.19,-1.5,2.44,0.06,-0.05,-0.4,-0.0,0.06,0.0,207.69,204.0,0.0,0.0,0.0,0.0
1775763789978099499,40331,0.0,1.3,0.0,0.3,0.0,-0.12,-8.19,-1.5,2.44,0.05,-0.04,-0.4,-0.0,0.12,0.06,207.52,204.0,0.0,0.0,0.0,0.0
1775763790080309035,40431,0.0,1.0,0.004,0.4,-0.06,-0.14,-8.19,-1.5,2.44,0.05,-0.06,-0.38,-0.06,-0.12,0.0,212.66,208.0,0.0,0.0,0.0,0.0
1775763790178425264,40530,0.0,1.3,0.024,0.5,0.1,-0.1,-8.19,-1.5,2.44,0.05,-0.05,-0.41,-0.12,-0.0,-0.06,195.34,208.0,0.0,0.0,0.0,0.0
1775763790280625023,40630,0.0,1.4,0.044,0.3,0.0,0.04,-8.19,-1.5,2.44,0.05,-0.05,-0.38,-0.06,0.06,0.06,212.66,203.0,0.0,0.0,0.0,0.0
1775763790378767555,40731,0.0,1.2,0.032,0.3,-0.1,-0.16,-8.19,-1.5,2.44,0.05,-0.06,-0.42,0.06,-0.0,0.06,208.54,201.0,0.0,0.0,0.0,0.0
1775763790480938090,40832,0.0,1.1,0.028,0.2,0.08,-0.16,-8.19,-1.5,2.44,0.05,-0.05,-0.39,0.06,-0.0,0.0,208.54,201.0,0.0,0.0,0.0,0.0
1775763790579040733,40932,0.0,1.0,0.0,0.1,0.0,-0.1,-8.19,-1.5,2.44,0.04,-0.06,-0.38,-0.06,-0.06,0.0,211.63,203.0,0.0,0.0,0.0,0.0
1775763790681310622,41032,0.0,1.1,0.004,0.3,-0.08,-0.25,-8.19,-1.5,2.44,0.04,-0.05,-0.38,-0.06,-0.12,0.0,212.66,201.0,0.0,0.0,0.0,0.0
1775763790779424134,41132,0.0,1.0,0.0,0.3,-0.14,-0.25,-8.19,-1.5,2.44,0.07,-0.05,-0.39,-0.12,0.19,0.06,208.54,201.0,0.0,0.0,0.0,0.0
1775763791475586467,41232,0.0,1.0,0.012,0.1,-0.1,-0.29,-8.19,-1.5,2.44,0.07,-0.04,-0.37,-0.06,-0.0,-0.06,194.31,202.0,0.0,0.0,0.0,0.0
1775763791478558332,41332,0.0,0.2,0.0,0.5,-0.06,0.1,-8.19,-1.5,2.44,0.04,-0.03,-0.38,-0.06,0.06,0.06,207.34,201.0,0.0,0.0,0.0,0.0
1775763791482602090,41433,0.0,1.2,0.0,0.5,0.02,-0.2,-8.19,-1.5,2.44,0.04,-0.04,-0.38,-0.12,0.06,-0.06,208.54,201.0,0.0,0.0,0.0,0.0
1775763791486811945,41533,0.0,1.4,0.02,0.6,-0.06,-0.2,-8.19,-1.5,2.44,0.05,-0.05,-0.39,0.12,-0.12,0.0,208.54,201.0,0.0,0.0,0.0,0.0
1775763791490884375,41632,0.0,1.2,0.044,0.2,0.04,-0.21,-8.19,-1.5,2.44,0.06,-0.06,-0.4,-0.06,-0.0,-0.06,203.4,202.0,0.0,0.0,0.0,0.0
1775763791495057368,41733,0.0,1.2,0.024,0.5,0.12,-0.08,-8.19,-1.5,2.44,0.05,-0.04,-0.39,0.06,0.19,0.0,204.43,202.0,0.0,0.0,0.0,0.0
1775763791507650237,41834,0.0,1.3,0.028,0.5,0.04,-0.12,-8.19,-1.5,2.44,0.03,-0.04,-0.33,-0.0,0.06,0.0,200.14,202.0,0.0,0.0,0.0,0.0
1775763791580754673,41933,0.0,1.3,0.02,0.2,0.06,-0.1,-8.19,-1.5,2.44,0.07,-0.05,-0.35,-0.0,0.12,0.12,196.02,202.0,0.0,0.0,0.0,0.0
1775763791678867954,42033,0.0,1.2,0.008,0.5,-0.1,-0.18,-8.19,-1.5,2.44,0.04,-0.05,-0.39,-0.0,-0.0,-0.06,200.14,203.0,0.0,0.0,0.0,0.0
1775763791803592448,42134,0.0,1.3,0.012,0.0,0.04,-0.18,-8.19,-1.5,2.44,0.04,-0.05,-0.38,0.06,-0.06,-0.12,204.43,205.0,0.0,0.0,0.0,0.0
1775763791879245531,42233,0.0,1.4,0.0,0.4,-0.1,-0.25,-8.19,-1.5,2.44,0.04,-0.06,-0.36,0.06,0.06,0.06,208.54,205.0,0.0,0.0,0.0,0.0
1775763791981421388,42334,0.0,1.6,0.008,0.5,-0.04,-0.14,-8.19,-1.5,2.44,0.03,-0.06,-0.38,-0.0,-0.06,0.06,200.14,199.0,0.0,0.0,0.0,0.0
1775763792079595190,42435,0.0,1.3,0.0,0.5,-0.06,-0.12,-8.19,-1.5,2.44,0.03,-0.03,-0.38,-0.06,-0.0,0.0,204.26,204.0,0.0,0.0,0.0,0.0
1775763792187760151,42534,0.0,1.1,0.04,0.1,-0.12,-0.02,-8.19,-1.5,2.44,0.07,-0.05,-0.38,-0.06,0.06,0.12,200.14,204.0,0.0,0.0,0.0,0.0
1775763792279952576,42634,0.0,1.5,0.036,0.1,0.02,-0.2,-8.19,-1.5,2.44,0.06,-0.06,-0.38,-0.0,0.06,0.06,199.11,202.0,0.0,0.0,0.0,0.0
1775763792382167275,42735,0.0,1.4,0.032,0.3,0.02,-0.08,-8.19,-1.5,2.44,0.07,-0.05,-0.39,0.06,0.06,-0.06,200.14,202.0,0.0,0.0,0.0,0.0
1775763792480275428,42834,0.0,1.4,0.024,0.3,-0.02,-0.18,-8.19,-1.5,2.44,0.05,-0.06,-0.37,-0.06,0.12,0.0,200.14,202.0,0.0,0.0,0.0,0.0
1775763792578439395,42934,0.0,1.3,0.012,0.5,0.16,-0.14,-8.19,-1.5,2.44,0.05,-0.06,-0.36,-0.0,-0.0,-0.06,200.14,206.0,0.0,0.0,0.0,0.0
1775763792680689220,43034,0.0,1.3,0.012,0.3,-0.02,-0.04,-8.19,-1.5,2.44,0.07,-0.03,-0.39,0.06,0.19,0.19,195.85,206.0,0.0,0.0,0.0,0.0
1775763792778803196,43133,0.0,1.3,0.008,0.3,-0.06,-0.14,-8.19,-1.5,2.44,0.06,-0.04,-0.37,0.12,-0.06,0.0,200.14,202.0,0.0,0.0,0.0,0.0
1775763792881028007,43234,0.0,1.5,0.004,0.2,-0.02,-0.08,-8.19,-1.5,2.44,0.05,-0.05,-0.36,-0.0,0.06,0.06,200.14,202.0,0.0,0.0,0.0,0.0
1775763792979163615,43334,0.0,1.4,0.0,0.5,-0.1,-0.14,-8.19,-1.5,2.44,0.05,-0.06,-0.38,-0.0,0.06,0.0,199.11,202.0,0.0,0.0,0.0,0.0
1775763793077312313,43433,0.0,1.2,0.0,0.5,-0.06,-0.16,-8.19,-1.5,2.44,0.06,-0.04,-0.36,-0.12,-0.06,-0.06,200.14,203.0,0.0,0.0,0.0,0.0
1775763793179590148,43533,0.0,1.3,0.036,0.4,0.1,-0.2,-8.19,-1.5,2.44,0.03,-0.06,-0.37,-0.0,-0.0,0.06,200.14,202.0,0.0,0.0,0.0,0.0
1775763793277683130,43634,0.0,1.4,0.044,0.7,-0.2,-0.23,-8.19,-1.5,2.44,0.05,-0.04,-0.37,-0.0,0.06,-0.06,195.85,202.0,0.0,0.0,0.0,0.0
1775763793379925152,43734,0.0,1.4,0.032,0.1,-0.1,-0.12,-8.19,-1.5,2.44,0.06,-0.05,-0.37,-0.0,0.12,0.06,194.82,202.0,0.0,0.0,0.0,0.0
1775763793478079054,43835,0.0,1.3,0.024,0.3,0.0,-0.04,-8.19,-1.5,2.44,0.06,-0.02,-0.37,-0.0,-0.0,0.0,200.14,205.0,0.0,0.0,0.0,0.0
1775763793576148056,43934,0.0,1.3,0.016,0.2,0.08,-0.06,-8.19,-1.5,2.44,0.04,-0.06,-0.4,0.12,0.06,0.0,200.14,205.0,0.0,0.0,0.0,0.0
1775763793735590297,44034,0.0,1.4,0.016,0.5,0.02,-0.16,-8.19,-1.5,2.44,0.07,-0.04,-0.38,0.06,-0.0,-0.06,200.31,200.0,0.0,0.0,0.0,0.0
1775763793786604710,44134,0.0,1.4,0.004,0.2,-0.02,-0.14,-8.19,-1.5,2.44,0.06,-0.05,-0.4,0.06,-0.0,0.12,200.14,200.0,0.0,0.0,0.0,0.0
1775763793878789552,44234,0.0,1.1,0.0,0.5,0.02,-0.1,-8.19,-1.5,2.44,0.05,-0.03,-0.36,-0.0,-0.0,0.0,194.82,203.0,0.0,0.0,0.0,0.0
1775763793976920344,44335,0.0,1.6,0.004,0.3,0.04,-0.08,-8.19,-1.5,2.44,0.07,-0.05,-0.39,0.06,-0.12,0.0,196.02,201.0,0.0,0.0,0.0,0.0
1775763794079243645,44435,0.0,0.7,0.0,0.4,0.0,-0.06,-8.19,-1.5,2.44,0.05,-0.06,-0.39,0.12,-0.06,0.0,200.31,201.0,0.0,0.0,0.0,0.0
1775763794177321851,44535,0.0,0.9,0.028,0.2,-0.08,-0.1,-8.19,-1.5,2.44,0.04,-0.05,-0.4,0.06,-0.12,-0.06,199.11,204.0,0.0,0.0,0.0,0.0
1775763794315585702,44636,0.0,0.9,0.044,0.2,0.0,-0.08,-8.19,-1.5,2.44,0.05,-0.06,-0.38,-0.0,0.25,0.12,200.14,203.0,0.0,0.0,0.0,0.0
1775763794381817705,44737,0.0,1.0,0.012,0.6,-0.16,-0.12,-8.19,-1.5,2.44,0.07,-0.04,-0.39,-0.0,-0.19,-0.06,199.11,203.0,0.0,0.0,0.0,0.0
1775763794479954044,44837,0.0,1.0,0.024,0.2,0.02,-0.08,-8.19,-1.5,2.44,0.06,-0.05,-0.38,0.06,-0.12,0.0,195.85,202.0,0.0,0.0,0.0,0.0
1775763794582196997,44938,0.0,1.2,0.024,0.9,0.08,-0.08,-8.19,-1.5,2.44,0.05,-0.06,-0.37,-0.0,0.06,0.06,196.02,201.0,0.0,0.0,0.0,0.0
1775763794680413990,45038,0.0,1.4,0.008,0.3,0.04,-0.12,-8.19,-1.5,2.44,0.03,-0.05,-0.37,-0.12,-0.0,0.0,196.02,201.0,0.0,0.0,0.0,0.0
1775763794782596332,45138,0.0,1.3,0.008,0.3,0.02,-0.21,-8.19,-1.5,2.44,0.06,-0.04,-0.37,0.06,-0.12,-0.06,200.14,202.0,0.0,0.0,0.0,0.0
1775763794880777140,45238,0.0,1.3,0.0,0.3,-0.12,-0.04,-8.19,-1.5,2.44,0.04,-0.06,-0.38,-0.0,-0.0,0.06,200.14,202.0,0.0,0.0,0.0,0.0
1775763795027587435,45338,0.0,1.3,0.0,0.5,-0.04,-0.06,-8.19,-1.5,2.44,0.05,-0.05,-0.38,-0.0,0.12,-0.06,204.43,202.0,0.0,0.0,0.0,0.0
1775763795081165161,45437,0.0,1.5,0.0,0.3,0.12,-0.08,-8.19,-1.5,2.44,0.05,-0.04,-0.4,-0.0,-0.06,0.0,200.14,202.0,0.0,0.0,0.0,0.0
1775763795179269381,45537,0.0,0.1,0.0,1.1,-0.06,-0.16,-8.19,-1.5,2.44,0.08,-0.03,-0.38,0.06,-0.12,-0.06,200.14,202.0,0.0,0.0,0.0,0.0
1775763795281594961,45637,0.0,0.5,0.04,0.2,-0.04,-0.18,-8.19,-1.5,2.44,0.07,-0.07,-0.38,0.06,-0.06,-0.06,199.11,202.0,0.0,0.0,0.0,0.0
1775763795379714677,45737,0.0,1.1,0.032,0.3,-0.18,-0.14,-8.19,-1.5,2.44,0.05,-0.04,-0.4,-0.0,0.12,-0.06,200.14,204.0,0.0,0.0,0.0,0.0
1775763795495569805,45837,0.0,0.8,0.016,0.3,0.0,-0.2,-8.19,-1.5,2.44,0.06,-0.06,-0.39,0.06,0.06,-0.06,196.02,204.0,0.0,0.0,0.0,0.0
1775763795580061951,45937,0.0,0.9,0.012,0.2,-0.1,-0.06,-8.19,-1.5,2.44,0.05,-0.04,-0.37,0.06,-0.06,-0.06,200.14,202.0,0.0,0.0,0.0,0.0
1775763795678224696,46036,0.0,1.1,0.012,0.6,-0.12,0.0,-8.19,-1.5,2.44,0.04,-0.05,-0.4,-0.12,-0.0,0.12,200.14,200.0,0.0,0.0,0.0,0.0
1775763795780515180,46136,0.0,1.1,0.0,0.3,-0.02,-0.45,-8.19,-1.5,2.44,0.06,-0.06,-0.4,0.25,-0.12,0.0,196.02,200.0,0.0,0.0,0.0,0.0
1775763795878719475,46237,0.0,0.9,0.004,0.5,0.08,-0.08,-8.19,-1.5,2.44,0.06,-0.05,-0.41,0.06,-0.12,0.06,196.02,201.0,0.0,0.0,0.0,0.0
1775763795980913804,46337,0.0,0.9,0.016,0.6,-0.04,-0.12,-8.19,-1.5,2.44,0.04,-0.03,-0.39,-0.0,-0.12,0.0,196.02,201.0,0.0,0.0,0.0,0.0
1775763796079058580,46438,0.0,1.1,0.004,1.4,0.06,-0.06,-8.19,-1.5,2.44,0.06,-0.06,-0.39,-0.0,-0.0,0.0,200.14,202.0,0.0,0.0,0.0,0.0
1775763796177226736,46537,0.0,1.5,0.04,0.3,0.02,-0.04,-8.19,-1.5,2.44,0.04,-0.04,-0.4,0.06,-0.06,-0.06,196.02,200.0,0.0,0.0,0.0,0.0
1775763796279477408,46637,0.0,1.3,0.044,0.3,-0.02,-0.08,-8.19,-1.5,2.44,0.06,-0.05,-0.4,0.06,0.06,0.06,196.02,200.0,0.0,0.0,0.0,0.0
1775763796377652684,46737,0.0,1.4,0.032,0.3,-0.04,-0.16,-8.19,-1.5,2.44,0.05,-0.05,-0.41,-0.0,-0.0,-0.06,199.11,202.0,0.0,0.0,0.0,0.0
1775763796479897180,46837,0.0,1.4,0.024,0.5,-0.02,-0.18,-8.19,-1.5,2.44,0.02,-0.07,-0.39,0.12,-0.06,0.0,200.14,200.0,0.0,0.0,0.0,0.0
1775763796578009877,46938,0.0,1.1,0.024,0.4,-0.12,-0.21,-8.19,-1.5,2.44,0.06,-0.06,-0.4,0.19,-0.12,0.0,200.14,200.0,0.0,0.0,0.0,0.0
1775763796680286180,47038,0.0,1.1,0.024,0.4,0.08,-0.06,-8.19,-1.5,2.44,0.05,-0.04,-0.39,-0.0,-0.0,0.06,195.85,199.0,0.0,0.0,0.0,0.0
1775763796778469573,47137,0.0,1.1,0.0,0.3,-0.04,-0.21,-8.19,-1.5,2.44,0.04,-0.05,-0.4,-0.0,-0.06,0.0,195.85,202.0,0.0,0.0,0.0,0.0
1775763796876637932,47237,0.0,1.0,0.012,0.2,-0.23,-0.23,-8.19,-1.5,2.44,0.07,-0.05,-0.39,-0.06,-0.06,-0.12,195.85,202.0,0.0,0.0,0.0,0.0
1775763796978884499,47337,0.0,0.8,0.0,0.5,0.1,-0.06,-8.19,-1.5,2.44,0.04,-0.04,-0.37,-0.0,-0.0,0.12,196.02,202.0,0.0,0.0,0.0,0.0
1775763797077054422,47436,0.0,1.1,0.0,0.5,0.0,-0.2,-8.19,-1.5,2.44,0.05,-0.04,-0.39,-0.06,-0.06,-0.06,194.82,202.0,0.0,0.0,0.0,0.0
1775763797175186375,47536,0.0,1.1,0.036,0.5,-0.12,-0.08,-8.19,-1.5,2.44,0.07,-0.06,-0.41,0.06,-0.06,-0.06,195.85,203.0,0.0,0.0,0.0,0.0
1775763797277475532,47636,0.0,0.8,0.048,0.5,0.04,-0.08,-8.19,-1.5,2.44,0.05,-0.04,-0.37,-0.0,-0.06,0.06,195.85,198.0,0.0,0.0,0.0,0.0
1775763797375652387,47735,0.0,0.8,0.036,0.5,-0.1,-0.1,-8.19,-1.5,2.44,0.05,-0.03,-0.4,-0.0,-0.0,0.06,196.02,198.0,0.0,0.0,0.0,0.0
1775763797477910160,47835,0.0,1.1,0.008,0.7,0.08,-0.2,-8.19,-1.5,2.44,0.05,-0.05,-0.39,-0.0,-0.06,0.0,196.02,200.0,0.0,0.0,0.0,0.0
1775763797576033292,47936,0.0,0.7,0.012,0.3,-0.02,-0.14,-8.19,-1.5,2.44,0.06,-0.03,-0.39,-0.06,-0.06,0.0,195.85,201.0,0.0,0.0,0.0,0.0
1775763797678321931,48036,0.0,0.7,0.012,0.6,-0.02,-0.14,-8.19,-1.5,2.44,0.07,-0.06,-0.41,0.06,-0.06,-0.12,200.14,201.0,0.0,0.0,0.0,0.0
1775763797776494163,48136,0.0,1.1,0.008,0.5,0.0,-0.06,-8.19,-1.5,2.44,0.06,-0.05,-0.4,-0.06,0.06,0.0,196.02,201.0,0.0,0.0,0.0,0.0
1775763797878756763,48237,0.0,1.0,0.004,0.3,-0.02,-0.08,-8.19,-1.5,2.44,0.06,-0.07,-0.4,0.19,0.06,0.06,200.14,205.0,0.0,0.0,0.0,0.0
1775763797976926461,48336,0.0,0.9,0.0,0.3,-0.21,-0.21,-8.19,-1.5,2.44,0.05,-0.05,-0.4,-0.0,0.12,-0.06,195.85,205.0,0.0,0.0,0.0,0.0
1775763798075076094,48436,0.0,0.9,0.0,0.6,-0.02,-0.14,-8.19,-1.5,2.44,0.05,-0.06,-0.41,-0.06,-0.12,-0.06,196.02,201.0,0.0,0.0,0.0,0.0
1775763798311589886,48537,0.0,0.2,0.0,1.4,0.02,-0.12,-8.19,-1.5,2.44,0.03,-0.06,-0.41,0.12,-0.0,0.0,196.02,201.0,0.0,0.0,0.0,0.0
1775763798377812089,48636,0.0,0.2,0.0,1.4,-0.08,-0.12,-8.19,-1.5,2.44,0.06,-0.05,-0.39,0.06,-0.06,0.0,195.0,203.0,0.0,0.0,0.0,0.0
1775763798386163024,48737,0.0,1.0,0.028,0.4,-0.06,-0.25,-8.19,-1.5,2.44,0.06,-0.05,-0.4,-0.06,-0.0,-0.06,195.85,204.0,0.0,0.0,0.0,0.0
1775763798475941533,48838,0.0,1.4,0.024,0.5,0.06,-0.21,-8.19,-1.5,2.44,0.07,-0.07,-0.4,-0.06,0.06,0.06,195.85,204.0,0.0,0.0,0.0,0.0
1775763798578194078,48937,0.0,1.1,0.016,0.2,0.06,-0.02,-8.19,-1.5,2.44,0.06,-0.07,-0.39,0.06,-0.0,0.0,195.0,205.0,0.0,0.0,0.0,0.0
1775763798676369740,49038,0.0,1.1,0.008,0.3,-0.16,-0.25,-8.19,-1.5,2.44,0.05,-0.05,-0.42,0.06,-0.0,-0.12,200.14,202.0,0.0,0.0,0.0,0.0
1775763798799589404,49137,0.0,1.1,0.012,0.3,-0.21,-0.21,-8.19,-1.5,2.44,0.06,-0.06,-0.42,0.06,0.06,0.12,199.11,202.0,0.0,0.0,0.0,0.0
1775763798876852635,49236,0.0,0.8,0.0,0.5,-0.08,0.06,-8.19,-1.5,2.44,0.05,-0.05,-0.38,0.06,-0.06,0.0,200.14,203.0,0.0,0.0,0.0,0.0
1775763798975010173,49336,0.0,0.7,0.004,0.5,-0.1,-0.18,-8.19,-1.5,2.44,0.04,-0.07,-0.42,-0.0,-0.0,0.06,200.14,203.0,0.0,0.0,0.0,0.0
1775763799083215006,49436,0.0,0.9,0.0,0.7,0.02,-0.08,-8.19,-1.5,2.44,0.05,-0.06,-0.41,0.06,0.06,0.06,199.97,204.0,0.0,0.0,0.0,0.0
1775763799175462095,49536,0.0,0.9,0.032,0.4,-0.08,-0.12,-8.19,-1.5,2.44,0.05,-0.05,-0.39,0.06,-0.06,-0.06,208.54,204.0,0.0,0.0,0.0,0.0
1775763799273614560,49636,0.0,1.2,0.044,0.2,0.1,-0.02,-8.19,-1.5,2.44,0.06,-0.05,-0.38,-0.06,-0.0,0.06,203.23,204.0,0.0,0.0,0.0,0.0
1775763799375911675,49736,0.0,0.8,0.036,0.5,0.12,-0.16,-8.19,-1.5,2.44,0.05,-0.07,-0.39,-0.06,-0.06,0.0,203.23,203.0,0.0,0.0,0.0,0.0
1775763799478159333,49837,0.0,0.7,0.016,0.3,0.04,-0.1,-8.19,-1.5,2.44,0.03,-0.06,-0.38,-0.0,-0.12,-0.12,204.26,203.0,0.0,0.0,0.0,0.0
1775763799576337968,49937,0.0,0.9,0.0,0.1,0.12,-0.06,-8.19,-1.5,2.44,0.06,-0.04,-0.36,-0.06,-0.19,0.0,208.54,203.0,0.0,0.0,0.0,0.0
1775763799739588231,50037,0.0,1.0,0.008,0.4,-0.02,-0.12,-8.19,-1.5,2.44,0.06,-0.05,-0.39,-0.06,-0.06,0.0,208.54,203.0,0.0,0.0,0.0,0.0
1775763799776805469,50137,0.0,1.1,0.008,0.4,-0.06,-0.1,-8.19,-1.5,2.44,0.06,-0.04,-0.39,0.06,-0.0,0.0,208.54,206.0,0.0,0.0,0.0,0.0
1775763799875023777,50237,0.0,1.1,0.016,0.4,0.0,-0.23,-8.19,-1.5,2.44,0.07,-0.06,-0.42,-0.06,-0.0,0.12,203.23,206.0,0.0,0.0,0.0,0.0
1775763799977241787,50337,0.0,1.1,0.0,0.1,-0.21,-0.12,-8.19,-1.5,2.44,0.05,-0.04,-0.38,-0.06,0.06,-0.12,208.54,202.0,0.0,0.0,0.0,0.0
1775763800075432087,50437,0.0,1.3,0.0,0.7,0.08,-0.08,-8.19,-1.5,2.44,0.05,-0.04,-0.39,0.06,-0.06,0.06,204.26,203.0,0.0,0.0,0.0,0.0
1775763800177716819,50538,0.0,1.3,0.032,0.6,-0.12,-0.08,-8.19,-1.5,2.44,0.06,-0.05,-0.39,0.06,-0.12,-0.06,208.54,203.0,0.0,0.0,0.0,0.0
1775763800275883231,50637,0.0,1.4,0.044,0.3,-0.2,-0.14,-8.19,-1.5,2.44,0.07,-0.05,-0.38,-0.06,-0.06,-0.06,207.52,203.0,0.0,0.0,0.0,0.0
1775763800374046776,50737,0.0,1.2,0.04,0.4,0.02,-0.1,-8.19,-1.5,2.44,0.07,-0.05,-0.37,-0.06,-0.12,-0.06,208.37,203.0,0.0,0.0,0.0,0.0
1775763800476369685,50837,0.0,1.6,0.024,0.1,-0.06,0.04,-8.19,-1.5,2.44,0.04,-0.03,-0.39,-0.0,0.12,-0.06,207.69,203.0,0.0,0.0,0.0,0.0
1775763800591580934,50937,0.0,1.6,0.02,0.1,0.02,-0.08,-8.19,-1.5,2.44,0.05,-0.06,-0.41,-0.0,0.19,0.0,208.37,202.0,0.0,0.0,0.0,0.0
1775763800676801408,51037,0.0,1.2,0.016,0.1,-0.06,-0.06,-8.19,-1.5,2.44,0.06,-0.06,-0.38,-0.0,-0.06,-0.06,208.37,202.0,0.0,0.0,0.0,0.0
1775763800774972129,51138,0.0,1.2,0.016,0.3,-0.14,-0.1,-8.19,-1.5,2.44,0.05,-0.06,-0.38,-0.06,0.12,0.0,207.34,203.0,0.0,0.0,0.0,0.0
1775763800877247928,51238,0.0,1.2,0.0,0.5,0.0,-0.18,-8.19,-1.5,2.44,0.06,-0.03,-0.4,-0.0,-0.06,-0.12,207.52,202.0,0.0,0.0,0.0,0.0
1775763800979559573,51339,0.0,1.4,0.004,0.6,-0.2,-0.27,-8.19,-1.5,2.44,0.07,-0.04,-0.38,0.06,-0.06,0.0,208.37,202.0,0.0,0.0,0.0,0.0
1775763801077765615,51440,0.0,1.4,0.0,0.5,0.16,-0.21,-8.19,-1.5,2.44,0.05,-0.06,-0.36,0.06,0.19,0.06,208.54,203.0,0.0,0.0,0.0,0.0
1775763801175899795,51539,0.0,1.1,0.036,0.3,0.02,-0.04,-8.19,-1.5,2.44,0.03,-0.03,-0.37,0.06,-0.0,0.06,207.34,204.0,0.0,0.0,0.0,0.0
1775763801278175784,51639,0.0,1.6,0.048,0.4,0.06,-0.21,-8.19,-1.5,2.44,0.05,-0.05,-0.39,-0.0,0.06,0.06,207.34,204.0,0.0,0.0,0.0,0.0
1775763801376338672,51739,0.0,1.6,0.032,0.6,0.04,-0.04,-8.19,-1.5,2.44,0.05,-0.05,-0.4,0.12,0.19,-0.06,207.34,204.0,0.0,0.0,0.0,0.0
1775763801478604007,51840,0.0,1.4,0.02,1.1,0.12,-0.08,-8.19,-1.5,2.44,0.06,-0.06,-0.4,-0.0,0.06,0.0,190.19,204.0,0.0,0.0,0.0,0.0
1775763801580862609,51940,0.0,0.9,0.012,0.7,0.02,-0.08,-8.19,-1.5,2.44,0.05,-0.03,-0.38,0.06,-0.12,0.0,191.22,205.0,0.0,0.0,0.0,0.0
1775763801679159305,52041,0.0,1.0,0.016,0.2,-0.04,-0.14,-8.19,-1.5,2.44,0.07,-0.06,-0.39,0.06,-0.0,0.0,191.22,199.0,0.0,0.0,0.0,0.0
1775763801777257434,52141,0.0,1.2,0.008,0.2,-0.14,-0.14,-8.19,-1.5,2.44,0.03,-0.04,-0.37,0.12,-0.12,-0.06,191.22,199.0,0.0,0.0,0.0,0.0
1775763801879599828,52241,0.0,1.0,0.004,0.6,-0.04,-0.33,-8.19,-1.5,2.44,0.06,-0.04,-0.4,-0.12,0.06,0.0,191.22,206.0,0.0,0.0,0.0,0.0
1775763802007592633,52341,0.0,0.9,0.012,0.4,0.04,-0.25,-8.19,-1.5,2.44,0.03,-0.05,-0.4,-0.0,0.06,0.06,191.05,203.0,0.0,0.0,0.0,0.0
1775763802080040051,52441,0.0,0.7,0.004,0.3,-0.14,-0.1,-8.19,-1.5,2.44,0.03,-0.05,-0.36,-0.06,-0.0,0.0,191.22,203.0,0.0,0.0,0.0,0.0
1775763802178229980,52541,0.0,1.1,0.036,0.2,0.06,-0.04,-8.19,-1.5,2.44,0.05,-0.06,-0.38,-0.0,-0.06,-0.06,191.22,200.0,0.0,0.0,0.0,0.0
1775763802276419761,52640,0.0,0.7,0.032,0.3,-0.06,-0.04,-8.19,-1.5,2.44,0.06,-0.06,-0.36,-0.0,-0.0,-0.06,190.19,201.0,0.0,0.0,0.0,0.0
1775763802378704557,52741,0.0,0.9,0.04,0.2,0.0,-0.23,-8.19,-1.5,2.44,0.04,-0.04,-0.38,-0.0,-0.06,0.0,191.22,201.0,0.0,0.0,0.0,0.0
1775763802481018504,52842,0.0,1.1,0.024,0.4,-0.02,-0.16,-8.19,-1.5,2.44,0.07,-0.03,-0.39,-0.19,0.06,0.0,191.05,203.0,0.0,0.0,0.0,0.0
1775763802579129540,52941,0.0,1.0,0.012,0.3,-0.06,-0.18,-8.19,-1.5,2.44,0.04,-0.06,-0.39,-0.06,-0.06,0.0,191.05,203.0,0.0,0.0,0.0,0.0
1775763802677355263,53041,0.0,0.9,0.0,1.5,-0.29,-0.04,-8.19,-1.5,2.44,0.05,-0.05,-0.38,0.06,-0.12,-0.12,191.22,206.0,0.0,0.0,0.0,0.0
1775763802779632326,53142,0.0,1.3,0.012,0.3,0.02,-0.08,-8.19,-1.5,2.44,0.07,-0.04,-0.39,0.06,-0.12,0.06,191.22,203.0,0.0,0.0,0.0,0.0
1775763802877848689,53241,0.0,1.2,0.004,0.6,-0.18,-0.14,-8.19,-1.5,2.44,0.06,-0.06,-0.37,-0.06,0.06,-0.06,191.22,203.0,0.0,0.0,0.0,0.0
1775763803011591132,53341,0.0,0.9,0.004,0.6,-0.04,-0.21,-8.19,-1.5,2.44,0.07,-0.06,-0.38,-0.0,-0.12,-0.06,191.22,205.0,0.0,0.0,0.0,0.0
1775763803078315033,53441,0.0,1.4,0.0,0.3,0.04,-0.14,-8.19,-1.5,2.44,0.04,-0.05,-0.38,-0.0,-0.0,0.0,191.22,203.0,0.0,0.0,0.0,0.0
1775763803176475461,53540,0.0,1.4,0.032,0.5,0.14,-0.18,-8.19,-1.5,2.44,0.05,-0.06,-0.39,-0.0,-0.06,0.0,191.05,203.0,0.0,0.0,0.0,0.0
1775763803278793365,53640,0.0,1.2,0.044,0.6,-0.1,-0.04,-8.19,-1.5,2.44,0.08,-0.05,-0.38,-0.0,0.06,0.0,191.05,204.0,0.0,0.0,0.0,0.0
1775763803376995545,53740,0.0,1.3,0.0,0.5,-0.1,-0.06,-8.19,-1.5,2.44,0.06,-0.05,-0.38,-0.0,-0.12,-0.06,208.37,201.0,0.0,0.0,0.0,0.0
1775763803475145541,53839,0.0,1.1,0.02,0.0,-0.06,-0.1,-8.19,-1.5,2.44,0.05,-0.06,-0.4,-0.06,-0.0,0.06,208.54,201.0,0.0,0.0,0.0,0.0
1775763803577431091,53939,0.0,1.0,0.02,0.1,0.04,-0.14,-8.19,-1.5,2.44,0.06,-0.05,-0.4,-0.0,-0.0,-0.06,191.22,205.0,0.0,0.0,0.0,0.0
1775763803675663035,54039,0.0,0.9,0.012,0.3,-0.21,-0.12,-8.19,-1.5,2.44,0.05,-0.05,-0.41,-0.0,-0.06,0.0,191.22,205.0,0.0,0.0,0.0,0.0
1775763803811585608,54138,0.0,1.4,0.008,0.2,-0.04,-0.18,-8.19,-1.5,2.44,0.04,-0.06,-0.37,-0.0,-0.12,0.06,191.05,201.0,0.0,0.0,0.0,0.0
1775763803876170577,54239,0.0,1.5,0.0,0.6,0.02,-0.16,-8.19,-1.5,2.44,0.06,-0.05,-0.36,-0.0,-0.06,-0.06,191.22,203.0,0.0,0.0,0.0,0.0
1775763803974304663,54339,0.0,1.4,0.004,0.5,0.02,-0.12,-8.19,-1.5,2.44,0.07,-0.05,-0.38,0.06,0.12,-0.06,195.34,203.0,0.0,0.0,0.0,0.0
1775763804076628218,54438,0.0,1.3,0.0,0.2,-0.02,-0.2,-8.19,-1.5,2.44,0.06,-0.03,-0.38,0.12,-0.06,0.0,208.54,202.0,0.0,0.0,0.0,0.0
1775763804174825559,54539,0.0,1.6,0.028,0.2,0.08,-0.16,-8.19,-1.5,2.44,0.05,-0.07,-0.38,-0.12,0.06,0.06,195.34,203.0,0.0,0.0,0.0,0.0
1775763804277111487,54639,0.0,1.5,0.0,1.0,0.0,-0.04,-8.19,-1.5,2.44,0.06,-0.02,-0.38,-0.06,0.06,0.0,191.22,203.0,0.0,0.0,0.0,0.0
1775763804375320908,54739,0.0,0.3,0.0,1.2,-0.02,-0.14,-8.19,-1.5,2.44,0.07,-0.07,-0.4,-0.06,-0.0,-0.06,191.05,202.0,0.0,0.0,0.0,0.0
1775763804477591389,54839,0.0,1.1,0.024,0.6,-0.06,-0.06,-8.19,-1.5,2.44,0.04,-0.05,-0.4,0.12,-0.06,-0.06,191.05,201.0,0.0,0.0,0.0,0.0
1775763804575769657,54940,0.0,1.1,0.016,0.3,-0.02,-0.08,-8.19,-1.5,2.44,0.05,-0.07,-0.38,-0.0,-0.12,-0.06,191.22,201.0,0.0,0.0,0.0,0.0
1775763804673955436,55040,0.0,0.3,0.0,1.5,0.06,-0.1,-8.19,-1.5,2.44,0.05,-0.04,-0.37,0.12,-0.06,0.0,191.22,201.0,0.0,0.0,0.0,0.0
1775763804776287815,55140,0.0,1.4,0.0,0.4,0.04,-0.2,-8.19,-1.5,2.44,0.05,-0.03,-0.38,-0.06,-0.06,-0.06,191.22,201.0,0.0,0.0,0.0,0.0
1775763804874498901,55240,0.0,1.3,0.008,0.2,-0.18,-0.29,-8.19,-1.5,2.44,0.07,-0.06,-0.4,-0.06,0.19,0.0,191.05,200.0,0.0,0.0,0.0,0.0
1775763804976781666,55340,0.0,1.1,0.004,0.5,0.0,0.04,-8.19,-1.5,2.44,0.05,-0.06,-0.39,-0.12,0.06,0.0,191.22,203.0,0.0,0.0,0.0,0.0
1775763805074971506,55440,0.0,1.5,0.004,0.2,0.04,0.06,-8.19,-1.5,2.44,0.05,-0.06,-0.39,0.06,-0.12,0.06,191.22,203.0,0.0,0.0,0.0,0.0
1775763805177257857,55540,0.0,1.4,0.036,0.5,-0.06,-0.18,-8.19,-1.5,2.44,0.06,-0.04,-0.35,0.19,0.12,0.12,190.19,201.0,0.0,0.0,0.0,0.0
1775763805285495203,55641,0.0,1.5,0.036,0.3,-0.02,-0.14,-8.19,-1.5,2.44,0.06,-0.06,-0.39,-0.06,0.12,0.0,195.34,204.0,0.0,0.0,0.0,0.0
1775763805377771582,55742,0.0,1.6,0.024,0.7,0.0,-0.16,-8.19,-1.5,2.44,0.05,-0.04,-0.38,-0.19,0.12,-0.06,191.05,204.0,0.0,0.0,0.0,0.0
1775763805480040839,55842,0.0,1.5,0.024,0.4,0.14,0.0,-8.19,-1.5,2.44,0.05,-0.06,-0.38,-0.0,-0.12,0.0,194.31,205.0,0.0,0.0,0.0,0.0
1775763805578234802,55943,0.0,1.4,0.02,0.2,-0.08,0.06,-8.19,-1.5,2.44,0.05,-0.06,-0.38,0.06,0.06,0.0,190.02,204.0,0.0,0.0,0.0,0.0
1775763805676447449,56043,0.0,1.4,0.008,0.2,-0.06,-0.16,-8.19,-1.5,2.44,0.06,-0.06,-0.39,0.06,-0.0,0.06,191.22,204.0,0.0,0.0,0.0,0.0
1775763805927591672,56142,0.0,1.3,0.0,0.2,-0.04,0.04,-8.19,-1.5,2.44,0.06,-0.05,-0.36,-0.0,0.19,0.0,191.05,203.0,0.0,0.0,0.0,0.0
1775763805975188528,56242,0.0,1.4,0.0,0.5,-0.04,-0.14,-8.19,-1.5,2.44,0.05,-0.05,-0.41,-0.06,0.06,0.0,191.22,203.0,0.0,0.0,0.0,0.0
1775763805989047838,56342,0.0,1.2,0.0,0.3,-0.04,-0.16,-8.19,-1.5,2.44,0.06,-0.04,-0.4,0.06,0.06,-0.06,191.22,204.0,0.0,0.0,0.0,0.0
1775763806077455370,56441,0.0,1.4,0.004,0.3,-0.06,0.02,-8.19,-1.5,2.44,0.04,-0.04,-0.39,0.06,-0.12,-0.06,191.22,202.0,0.0,0.0,0.0,0.0
1775763806179748457,56542,0.0,1.4,0.036,0.3,-0.1,-0.21,-8.19,-1.5,2.44,0.08,-0.04,-0.39,0.12,0.06,0.0,191.22,202.0,0.0,0.0,0.0,0.0
1775763806277951061,56643,0.0,1.3,0.04,0.5,-0.02,-0.08,-8.19,-1.5,2.44,0.07,-0.06,-0.39,-0.19,0.31,0.0,191.05,198.0,0.0,0.0,0.0,0.0
1775763806376149669,56742,0.0,1.5,0.036,0.3,0.04,-0.18,-8.19,-1.5,2.44,0.06,-0.05,-0.4,-0.06,0.12,0.12,191.22,203.0,0.0,0.0,0.0,0.0
1775763806478407883,56842,0.0,1.2,0.016,0.5,0.08,-0.14,-8.19,-1.5,2.44,0.06,-0.06,-0.38,-0.06,-0.0,-0.06,191.05,203.0,0.0,0.0,0.0,0.0
1775763806576653796,56942,0.0,1.4,0.02,0.7,0.1,-0.06,-8.19,-1.5,2.44,0.08,-0.06,-0.4,-0.19,-0.0,0.12,208.37,203.0,0.0,0.0,0.0,0.0
1775763806674870886,57041,0.0,1.3,0.0,0.1,-0.18,0.0,-8.19,-1.5,2.44,0.08,-0.06,-0.4,-0.06,0.06,-0.12,208.54,206.0,0.0,0.0,0.0,0.0
1775763806803610517,57141,0.0,1.1,0.004,1.1,-0.06,-0.14,-8.19,-1.5,2.44,0.06,-0.07,-0.4,-0.06,-0.0,-0.06,204.26,206.0,0.0,0.0,0.0,0.0
1775763806875314147,57242,0.0,0.0,0.0,1.1,0.06,-0.04,-8.19,-1.5,2.44,0.04,-0.05,-0.41,-0.0,-0.0,-0.06,208.37,204.0,0.0,0.0,0.0,0.0
1775763806977632969,57342,0.0,0.7,0.004,0.1,-0.18,-0.23,-8.19,-1.5,2.44,0.05,-0.05,-0.4,-0.0,0.12,0.0,208.54,204.0,0.0,0.0,0.0,0.0
1775763807079961397,57443,0.0,1.1,0.0,0.4,0.06,-0.1,-8.19,-1.5,2.44,0.05,-0.03,-0.4,-0.0,0.06,0.06,208.37,203.0,0.0,0.0,0.0,0.0
1775763807178189338,57543,0.0,0.8,0.04,0.2,0.06,-0.27,-8.19,-1.5,2.44,0.08,-0.06,-0.38,0.12,0.12,0.0,204.26,202.0,0.0,0.0,0.0,0.0
1775763807280484778,57643,0.0,0.9,0.044,0.3,0.04,-0.06,-8.19,-1.5,2.44,0.06,-0.05,-0.39,-0.12,0.19,0.0,204.26,202.0,0.0,0.0,0.0,0.0
1775763807378672183,57744,0.0,1.0,0.032,0.1,-0.25,-0.04,-8.19,-1.5,2.44,0.06,-0.05,-0.38,-0.0,0.06,0.0,204.26,204.0,0.0,0.0,0.0,0.0
1775763807476905064,57843,0.0,0.9,0.012,0.3,-0.16,-0.25,-8.19,-1.5,2.44,0.04,-0.05,-0.38,-0.06,0.06,-0.06,203.23,201.0,0.0,0.0,0.0,0.0
1775763807579148387,57944,0.0,1.1,0.008,0.5,-0.02,-0.06,-8.19,-1.5,2.44,0.09,-0.05,-0.39,0.06,0.19,0.06,195.85,201.0,0.0,0.0,0.0,0.0
1775763807677349039,58044,0.0,0.9,0.012,0.6,-0.02,-0.2,-8.19,-1.5,2.44,0.05,-0.06,-0.38,-0.0,-0.06,0.0,195.85,201.0,0.0,0.0,0.0,0.0
1775763807779712340,58144,0.0,0.9,0.004,0.5,0.02,0.0,-8.19,-1.5,2.44,0.04,-0.04,-0.38,-0.06,0.06,-0.06,204.43,202.0,0.0,0.0,0.0,0.0
1775763807877912752,58244,0.0,0.7,0.004,0.3,0.06,-0.16,-8.19,-1.5,2.44,0.06,-0.06,-0.4,-0.0,-0.06,0.06,208.54,202.0,0.0,0.0,0.0,0.0
1775763807980198497,58345,0.0,0.7,0.0,0.2,-0.04,-0.16,-8.19,-1.5,2.44,0.05,-0.05,-0.38,0.12,0.25,0.0,196.02,203.0,0.0,0.0,0.0,0.0
1775763808078467646,58444,0.0,0.9,0.004,0.6,0.14,-0.12,-8.19,-1.5,2.44,0.03,-0.06,-0.38,-0.0,0.12,-0.12,195.0,203.0,0.0,0.0,0.0,0.0
1775763808180716199,58545,0.0,0.7,0.044,0.4,-0.04,-0.04,-8.19,-1.5,2.44,0.05,-0.04,-0.38,-0.0,-0.0,0.06,200.14,204.0,0.0,0.0,0.0,0.0
1775763808278923024,58645,0.0,1.1,0.04,0.3,-0.1,-0.2,-8.19,-1.5,2.44,0.05,-0.05,-0.41,-0.06,0.12,0.06,195.85,200.0,0.0,0.0,0.0,0.0
1775763808381323844,58745,0.0,1.0,0.036,0.3,0.06,-0.2,-8.19,-1.5,2.44,0.03,-0.05,-0.4,0.06,-0.19,0.0,196.02,200.0,0.0,0.0,0.0,0.0
1775763808479386024,58845,0.0,0.9,0.02,0.4,0.02,-0.23,-8.19,-1.5,2.44,0.05,-0.04,-0.41,-0.06,-0.12,-0.06,195.85,201.0,0.0,0.0,0.0,0.0
1775763808587653950,58945,0.0,1.1,0.012,1.7,-0.04,-0.23,-8.19,-1.5,2.44,0.06,-0.05,-0.41,-0.0,0.06,0.0,199.11,203.0,0.0,0.0,0.0,0.0
1775763808823590856,59045,0.0,1.4,0.0,0.5,-0.12,-0.06,-8.19,-1.5,2.44,0.06,-0.05,-0.4,-0.06,0.19,-0.12,208.54,203.0,0.0,0.0,0.0,0.0
1775763808880465513,59146,0.0,1.4,0.0,0.6,0.06,-0.1,-8.19,-1.5,2.44,0.07,-0.05,-0.38,0.06,0.25,0.0,204.26,203.0,0.0,0.0,0.0,0.0
1775763808892914549,59246,0.0,1.2,0.004,0.1,0.02,-0.1,-8.19,-1.5,2.44,0.05,-0.06,-0.39,-0.12,0.12,-0.06,208.54,204.0,0.0,0.0,0.0,0.0
1775763808978641495,59345,0.0,1.1,0.008,0.2,-0.08,-0.23,-8.19,-1.5,2.44,0.04,-0.05,-0.43,-0.0,-0.06,0.12,204.26,204.0,0.0,0.0,0.0,0.0
1775763809080973503,59445,0.0,1.4,0.008,0.6,-0.08,-0.04,-8.19,-1.5,2.44,0.06,-0.06,-0.4,-0.0,0.06,0.0,208.54,202.0,0.0,0.0,0.0,0.0
1775763809179181813,59545,0.0,1.3,0.044,0.5,0.04,-0.02,-8.19,-1.5,2.44,0.05,-0.04,-0.4,-0.0,-0.19,0.06,204.26,202.0,0.0,0.0,0.0,0.0
1775763809277405073,59644,0.0,1.4,0.048,0.5,0.02,-0.04,-8.19,-1.5,2.44,0.04,-0.05,-0.4,0.12,-0.06,0.06,208.54,204.0,0.0,0.0,0.0,0.0
1775763809379681436,59745,0.0,1.4,0.028,0.5,-0.1,-0.14,-8.19,-1.5,2.44,0.08,-0.07,-0.43,-0.06,-0.06,0.0,207.52,204.0,0.0,0.0,0.0,0.0
1775763809477839772,59846,0.0,1.6,0.016,0.3,0.12,-0.08,-8.19,-1.5,2.44,0.04,-0.04,-0.38,-0.0,-0.12,0.0,208.54,204.0,0.0,0.0,0.0,0.0
1775763809580181558,59945,0.0,0.5,0.0,1.0,-0.02,-0.25,-8.19,-1.5,2.44,0.04,-0.06,-0.41,-0.0,-0.0,-0.06,204.43,207.0,0.0,0.0,0.0,0.0
1775763809703657987,60045,0.0,1.2,0.008,0.3,-0.08,-0.06,-8.19,-1.5,2.44,0.07,-0.05,-0.41,-0.0,-0.06,-0.06,208.54,202.0,0.0,0.0,0.0,0.0
1775763809776631094,60145,0.0,0.7,0.004,0.3,-0.08,-0.18,-8.19,-1.5,2.44,0.04,-0.04,-0.4,-0.06,0.12,0.12,203.4,202.0,0.0,0.0,0.0,0.0
1775763809878957745,60244,0.0,0.7,0.0,0.3,0.02,-0.12,-8.19,-1.5,2.44,0.05,-0.04,-0.4,-0.06,-0.0,0.06,204.26,203.0,0.0,0.0,0.0,0.0
1775763809977131364,60344,0.0,0.9,0.008,0.6,-0.08,-0.14,-8.19,-1.5,2.44,0.06,-0.06,-0.42,-0.0,-0.0,0.0,203.4,202.0,0.0,0.0,0.0,0.0
1775763810079473707,60445,0.0,1.0,0.004,0.1,0.0,-0.06,-8.19,-1.5,2.44,0.04,-0.06,-0.4,-0.0,0.06,0.0,200.14,202.0,0.0,0.0,0.0,0.0
1775763810177692279,60545,0.0,0.8,0.04,0.2,0.1,-0.14,-8.19,-1.5,2.44,0.06,-0.07,-0.41,-0.12,-0.0,0.0,195.85,199.0,0.0,0.0,0.0,0.0
1775763810280005295,60645,0.0,0.7,0.036,0.1,-0.12,-0.08,-8.19,-1.5,2.44,0.05,-0.05,-0.38,0.06,0.06,0.0,195.85,199.0,0.0,0.0,0.0,0.0
1775763810378210249,60745,0.0,0.2,0.02,0.5,-0.08,-0.23,-8.19,-1.5,2.44,0.06,-0.08,-0.38,-0.12,-0.19,-0.06,195.85,204.0,0.0,0.0,0.0,0.0
1775763810480507594,60845,0.0,1.4,0.02,0.2,0.08,0.06,-8.19,-1.5,2.44,0.07,-0.05,-0.4,0.06,-0.06,0.06,200.14,206.0,0.0,0.0,0.0,0.0
1775763810578723390,60945,0.0,1.3,0.012,0.7,0.02,0.0,-8.19,-1.5,2.44,0.06,-0.04,-0.38,-0.0,0.12,0.06,199.11,206.0,0.0,0.0,0.0,0.0
1775763810681038257,61045,0.0,1.4,0.008,0.5,-0.16,-0.08,-8.19,-1.5,2.44,0.07,-0.04,-0.4,-0.06,0.06,0.0,199.11,199.0,0.0,0.0,0.0,0.0
1775763810779255626,61146,0.0,1.3,0.004,0.3,-0.02,-0.04,-8.19,-1.5,2.44,0.06,-0.06,-0.39,-0.0,-0.0,0.0,195.85,203.0,0.0,0.0,0.0,0.0
1775763810877431420,61246,0.0,1.3,0.0,0.0,0.02,-0.12,-8.19,-1.5,2.44,0.05,-0.04,-0.39,-0.06,-0.06,0.06,204.43,203.0,0.0,0.0,0.0,0.0
1775763810979780405,61345,0.0,1.2,0.004,0.5,-0.12,0.0,-8.19,-1.5,2.44,0.04,-0.05,-0.39,-0.0,-0.06,-0.06,199.11,201.0,0.0,0.0,0.0,0.0
1775763811077963581,61446,0.0,1.5,0.004,0.4,-0.04,-0.2,-8.19,-1.5,2.44,0.09,-0.05,-0.38,-0.06,0.06,0.0,200.14,201.0,0.0,0.0,0.0,0.0
1775763811180314761,61546,0.0,1.4,0.036,0.3,0.02,0.04,-8.19,-1.5,2.44,0.06,-0.05,-0.4,-0.06,0.06,0.0,200.14,201.0,0.0,0.0,0.0,0.0
1775763811278515097,61646,0.0,1.2,0.04,0.3,0.04,-0.12,-8.19,-1.5,2.44,0.04,-0.04,-0.4,0.06,-0.06,-0.12,200.14,201.0,0.0,0.0,0.0,0.0
1775763811380843684,61746,0.0,1.3,0.012,0.4,-0.06,-0.16,-8.19,-1.5,2.44,0.06,-0.04,-0.41,-0.06,-0.06,0.06,204.43,201.0,0.0,0.0,0.0,0.0
1775763811479027165,61846,0.0,1.6,0.008,0.5,-0.14,-0.12,-8.19,-1.5,2.44,0.05,-0.04,-0.41,0.12,-0.0,0.0,198.94,201.0,0.0,0.0,0.0,0.0
1775763811587342469,61946,0.0,1.4,0.0,0.6,0.12,-0.14,-8.19,-1.5,2.44,0.03,-0.07,-0.38,0.06,0.19,0.06,200.14,203.0,0.0,0.0,0.0,0.0
1775763811679603086,62046,0.0,1.4,0.012,0.4,-0.02,-0.06,-8.19,-1.5,2.44,0.06,-0.05,-0.37,-0.0,-0.19,-0.12,200.14,203.0,0.0,0.0,0.0,0.0
1775763811781905306,62147,0.0,1.3,0.008,0.5,-0.04,-0.23,-8.19,-1.5,2.44,0.05,-0.04,-0.39,-0.19,0.12,0.06,204.26,204.0,0.0,0.0,0.0,0.0
1775763811880105976,62246,0.0,1.2,0.0,0.3,-0.23,-0.16,-8.19,-1.5,2.44,0.05,-0.04,-0.37,-0.0,0.12,0.06,203.23,202.0,0.0,0.0,0.0,0.0
1775763811982438319,62347,0.0,1.5,0.004,0.6,0.04,-0.16,-8.19,-1.5,2.44,0.07,-0.06,-0.39,0.06,-0.0,-0.12,204.43,202.0,0.0,0.0,0.0,0.0
1775763812080638397,62448,0.0,1.4,0.004,0.5,-0.06,-0.14,-8.19,-1.5,2.44,0.05,-0.06,-0.36,0.19,-0.19,0.06,204.43,204.0,0.0,0.0,0.0,0.0
1775763812323597339,62547,0.0,1.2,0.052,0.5,0.0,0.02,-8.19,-1.5,2.44,0.06,-0.04,-0.37,0.06,0.06,0.06,200.14,202.0,0.0,0.0,0.0,0.0
1775763812383550510,62647,0.0,1.4,0.04,0.3,-0.04,-0.18,-8.19,-1.5,2.44,0.04,-0.06,-0.39,0.12,-0.0,0.06,204.43,202.0,0.0,0.0,0.0,0.0
1775763812387575213,62748,0.0,1.4,0.028,0.2,-0.04,-0.1,-8.19,-1.5,2.44,0.05,-0.05,-0.4,0.19,-0.0,0.06,200.14,203.0,0.0,0.0,0.0,0.0
1775763812481669446,62849,0.0,1.2,0.02,0.2,0.06,-0.16,-8.19,-1.5,2.44,0.07,-0.05,-0.38,-0.06,-0.06,-0.12,208.54,203.0,0.0,0.0,0.0,0.0
1775763812589914560,62949,0.0,1.5,0.028,0.3,-0.18,-0.08,-8.19,-1.5,2.44,0.04,-0.07,-0.4,-0.0,0.06,0.06,208.54,201.0,0.0,0.0,0.0,0.0
1775763812682229999,63048,0.0,1.3,0.004,0.6,0.18,-0.06,-8.19,-1.5,2.44,0.04,-0.03,-0.4,0.06,-0.12,-0.12,208.54,202.0,0.0,0.0,0.0,0.0
1775763812780440415,63148,0.0,1.1,0.004,0.4,-0.16,-0.04,-8.19,-1.5,2.44,0.07,-0.05,-0.39,-0.0,-0.0,0.06,204.26,202.0,0.0,0.0,0.0,0.0
1775763812882753841,63248,0.0,1.5,0.0,0.5,0.0,-0.1,-8.19,-1.5,2.44,0.07,-0.05,-0.39,0.12,-0.19,0.06,207.52,204.0,0.0,0.0,0.0,0.0
1775763812980987664,63348,0.0,1.5,0.0,0.5,-0.06,0.06,-8.19,-1.5,2.44,0.06,-0.07,-0.36,0.06,0.06,-0.06,208.54,207.0,0.0,0.0,0.0,0.0
1775763813083288626,63449,0.0,1.2,0.004,0.3,-0.06,-0.12,-8.19,-1.5,2.44,0.04,-0.06,-0.39,-0.12,0.06,-0.06,208.54,207.0,0.0,0.0,0.0,0.0
1775763813215588738,63550,0.0,1.2,0.048,0.3,0.1,-0.14,-8.19,-1.5,2.44,0.05,-0.06,-0.38,-0.0,0.06,0.0,208.37,203.0,0.0,0.0,0.0,0.0
1775763813289825649,63649,0.0,1.3,0.04,0.1,-0.06,-0.16,-8.19,-1.5,2.44,0.05,-0.04,-0.38,0.06,0.06,0.0,207.52,201.0,0.0,0.0,0.0,0.0
1775763813382073330,63749,0.0,1.3,0.036,0.5,0.14,-0.02,-8.19,-1.5,2.44,0.07,-0.06,-0.39,0.06,-0.12,0.0,191.22,201.0,0.0,0.0,0.0,0.0
1775763813480202656,63849,0.0,1.4,0.028,0.3,0.08,0.0,-8.19,-1.5,2.44,0.06,-0.06,-0.37,0.12,0.12,0.0,211.63,202.0,0.0,0.0,0.0,0.0
1775763813582567820,63949,0.0,1.3,0.012,0.3,0.02,-0.18,-8.19,-1.5,2.44,0.04,-0.03,-0.36,-0.0,-0.06,0.0,194.31,200.0,0.0,0.0,0.0,0.0
1775763813684910890,64050,0.0,1.1,0.016,0.5,-0.04,-0.06,-8.19,-1.5,2.44,0.06,-0.06,-0.38,0.12,-0.06,0.0,198.43,200.0,0.0,0.0,0.0,0.0
1775763813783125259,64151,0.0,1.1,0.012,0.0,-0.1,-0.14,-8.19,-1.5,2.44,0.04,-0.03,-0.38,-0.0,-0.06,0.06,195.34,202.0,0.0,0.0,0.0,0.0
1775763813881360796,64250,0.0,1.4,0.004,0.6,-0.08,-0.16,-8.19,-1.5,2.44,0.04,-0.04,-0.38,0.06,-0.0,0.06,207.34,202.0,0.0,0.0,0.0,0.0
1775763813983657292,64350,0.0,1.3,0.004,0.4,-0.02,-0.2,-8.19,-1.5,2.44,0.06,-0.03,-0.39,-0.0,-0.0,0.0,194.31,205.0,0.0,0.0,0.0,0.0
1775763814091942197,64451,0.0,1.2,0.004,0.3,-0.08,-0.14,-8.19,-1.5,2.44,0.06,-0.07,-0.38,-0.0,0.06,0.06,208.54,204.0,0.0,0.0,0.0,0.0
1775763814184197960,64551,0.0,1.3,0.044,0.3,-0.12,-0.12,-8.19,-1.5,2.44,0.04,-0.06,-0.4,-0.06,0.06,-0.06,198.6,204.0,0.0,0.0,0.0,0.0
1775763814282385255,64651,0.0,1.3,0.036,0.3,0.02,-0.18,-8.19,-1.5,2.44,0.06,-0.05,-0.38,-0.0,-0.0,0.06,208.37,203.0,0.0,0.0,0.0,0.0
1775763814384755028,64751,0.0,1.3,0.028,0.4,-0.06,-0.08,-8.19,-1.5,2.44,0.05,-0.06,-0.36,0.12,-0.0,-0.06,207.52,202.0,0.0,0.0,0.0,0.0
1775763814482928094,64851,0.0,1.5,0.016,0.4,-0.04,-0.02,-8.19,-1.5,2.44,0.07,-0.05,-0.38,-0.06,-0.0,0.0,207.34,202.0,0.0,0.0,0.0,0.0
1775763814585266152,64952,0.0,1.4,0.008,0.3,-0.06,-0.14,-8.19,-1.5,2.44,0.06,-0.05,-0.38,-0.06,-0.06,0.06,208.54,202.0,0.0,0.0,0.0,0.0
1775763814683508052,65052,0.0,1.3,0.008,0.4,-0.04,-0.14,-8.19,-1.5,2.44,0.05,-0.03,-0.37,0.06,-0.12,-0.06,204.26,202.0,0.0,0.0,0.0,0.0
1775763814785811137,65153,0.0,1.3,0.016,0.3,0.02,-0.04,-8.19,-1.5,2.44,0.06,-0.03,-0.38,-0.0,-0.06,0.0,204.26,204.0,0.0,0.0,0.0,0.0
1775763814884009757,65253,0.0,1.8,0.0,0.6,-0.12,-0.18,-8.19,-1.5,2.44,0.06,-0.06,-0.38,-0.0,-0.0,0.0,203.23,202.0,0.0,0.0,0.0,0.0
1775763814986367818,65353,0.0,1.2,0.0,1.1,-0.04,-0.21,-8.19,-1.5,2.44,0.05,-0.05,-0.38,0.06,-0.06,0.0,208.54,202.0,0.0,0.0,0.0,0.0
1775763815219588269,65453,0.0,0.2,0.0,0.6,0.02,-0.08,-8.19,-1.5,2.44,0.04,-0.05,-0.36,0.06,0.06,0.0,204.26,202.0,0.0,0.0,0.0,0.0
1775763815285131284,65553,0.0,1.0,0.044,0.2,0.02,0.02,-8.19,-1.5,2.44,0.04,-0.05,-0.37,0.19,-0.0,0.06,208.54,204.0,0.0,0.0,0.0,0.0
1775763815297096574,65652,0.0,0.9,0.04,0.4,-0.02,-0.18,-8.19,-1.5,2.44,0.05,-0.04,-0.38,0.12,-0.12,0.06,208.54,204.0,0.0,0.0,0.0,0.0
1775763815383393957,65752,0.0,1.0,0.036,0.3,0.0,-0.18,-8.19,-1.5,2.44,0.05,-0.06,-0.38,-0.12,-0.06,0.0,204.43,202.0,0.0,0.0,0.0,0.0
1775763815485658248,65852,0.0,1.1,0.02,0.3,-0.1,-0.02,-8.19,-1.5,2.44,0.08,-0.05,-0.4,-0.0,0.12,0.06,208.54,201.0,0.0,0.0,0.0,0.0
1775763815583880749,65952,0.0,0.1,0.0,1.2,-0.23,-0.02,-8.19,-1.5,2.44,0.04,-0.05,-0.38,-0.0,-0.0,-0.06,208.37,201.0,0.0,0.0,0.0,0.0
1775763815686213080,66052,0.0,1.4,0.008,0.5,0.1,-0.12,-8.19,-1.5,2.44,0.05,-0.04,-0.38,0.06,-0.0,-0.06,208.54,204.0,0.0,0.0,0.0,0.0
1775763815784444037,66152,0.0,1.2,0.004,0.6,-0.02,-0.21,-8.19,-1.5,2.44,0.05,-0.05,-0.38,0.19,0.12,0.06,207.34,201.0,0.0,0.0,0.0,0.0
1775763815882670868,66251,0.0,1.7,0.004,0.5,-0.06,-0.27,-8.19,-1.5,2.44,0.06,-0.06,-0.39,-0.0,-0.12,0.0,207.52,201.0,0.0,0.0,0.0,0.0
1775763815984995908,66352,0.0,1.5,0.008,0.6,0.08,-0.18,-8.19,-1.5,2.44,0.06,-0.04,-0.38,-0.0,0.06,0.06,208.37,204.0,0.0,0.0,0.0,0.0
1775763816083206176,66452,0.0,1.3,0.004,0.4,-0.04,-0.21,-8.19,-1.5,2.44,0.04,-0.05,-0.38,0.06,0.06,-0.06,208.37,204.0,0.0,0.0,0.0,0.0
1775763816185550357,66552,0.0,1.4,0.044,0.4,0.02,-0.06,-8.19,-1.5,2.44,0.06,-0.05,-0.4,-0.0,-0.06,0.0,208.54,200.0,0.0,0.0,0.0,0.0
1775763816292087284,66653,0.0,1.7,0.044,0.1,-0.04,-0.2,-8.19,-1.5,2.44,0.05,-0.05,-0.39,-0.06,0.12,-0.06,199.63,202.0,0.0,0.0,0.0,0.0
1775763816386115590,66753,0.0,1.2,0.036,0.3,-0.04,-0.02,-8.19,-1.5,2.44,0.05,-0.05,-0.36,0.06,-0.0,0.0,191.22,202.0,0.0,0.0,0.0,0.0
1775763816484268728,66852,0.0,1.2,0.016,0.0,-0.12,-0.08,-8.19,-1.5,2.44,0.08,-0.05,-0.41,-0.0,0.06,0.0,199.45,202.0,0.0,0.0,0.0,0.0
1775763816703591765,66952,0.0,1.3,0.02,0.7,0.0,-0.06,-8.19,-1.5,2.44,0.06,-0.08,-0.36,0.06,-0.0,-0.06,208.54,202.0,0.0,0.0,0.0,0.0
1775763816715171600,67052,0.0,1.5,0.012,0.6,0.0,-0.08,-8.19,-1.5,2.44,0.07,-0.05,-0.39,0.06,0.06,0.0,199.45,202.0,0.0,0.0,0.0,0.0
1775763816783046592,67152,0.0,1.5,0.0,0.4,-0.04,-0.14,-8.19,-1.5,2.44,0.04,-0.05,-0.41,-0.06,0.19,0.12,208.54,203.0,0.0,0.0,0.0,0.0
1775763816903590589,67253,0.0,1.5,0.0,0.5,-0.18,-0.08,-8.19,-1.5,2.44,0.07,-0.04,-0.39,0.12,-0.06,0.0,207.34,203.0,0.0,0.0,0.0,0.0
1775763816983595299,67353,0.0,1.1,0.0,0.3,0.1,0.0,-8.19,-1.5,2.44,0.07,-0.06,-0.37,0.06,0.06,0.0,190.19,202.0,0.0,0.0,0.0,0.0
1775763817085928624,67453,0.0,1.4,0.008,0.4,0.02,-0.18,-8.19,-1.5,2.44,0.04,-0.04,-0.38,-0.0,-0.0,-0.06,191.22,201.0,0.0,0.0,0.0,0.0
1775763817188276111,67554,0.0,1.4,0.052,0.1,0.0,-0.06,-8.19,-1.5,2.44,0.05,-0.07,-0.38,0.06,-0.0,0.0,191.22,201.0,0.0,0.0,0.0,0.0
1775763817286495498,67654,0.0,1.3,0.02,0.3,-0.06,-0.14,-8.19,-1.5,2.44,0.04,-0.07,-0.39,-0.06,-0.06,0.0,199.45,201.0,0.0,0.0,0.0,0.0
1775763817384743420,67753,0.0,1.6,0.032,0.1,0.02,-0.18,-8.19,-1.5,2.44,0.05,-0.04,-0.38,0.06,-0.06,0.0,191.22,203.0,0.0,0.0,0.0,0.0
1775763817487065648,67853,0.0,1.4,0.024,0.6,-0.14,-0.02,-8.19,-1.5,2.44,0.04,-0.06,-0.39,-0.06,-0.06,0.06,195.34,203.0,0.0,0.0,0.0,0.0
1775763817585257907,67953,0.0,1.2,0.008,0.5,0.0,-0.14,-8.19,-1.5,2.44,0.08,-0.04,-0.39,-0.0,-0.12,0.0,198.43,201.0,0.0,0.0,0.0,0.0
1775763817687606855,68054,0.0,0.9,0.0,0.2,0.12,-0.1,-8.19,-1.5,2.44,0.05,-0.06,-0.42,0.06,-0.0,0.06,191.22,200.0,0.0,0.0,0.0,0.0
1775763817785792952,68155,0.0,0.9,0.016,0.2,0.06,-0.02,-8.19,-1.5,2.44,0.06,-0.08,-0.4,-0.06,0.12,0.06,208.37,200.0,0.0,0.0,0.0,0.0
1775763817888138459,68255,0.0,0.9,0.0,0.5,-0.02,-0.14,-8.19,-1.5,2.44,0.06,-0.04,-0.39,0.06,0.19,0.12,195.34,205.0,0.0,0.0,0.0,0.0
1775763817986371670,68355,0.0,1.1,0.0,0.3,0.04,-0.08,-8.19,-1.5,2.44,0.05,-0.07,-0.41,-0.0,0.06,-0.06,191.22,206.0,0.0,0.0,0.0,0.0
1775763818088740977,68455,0.0,1.1,0.0,0.0,0.02,-0.14,-8.19,-1.5,2.44,0.06,-0.04,-0.39,0.06,-0.06,0.0,195.34,206.0,0.0,0.0,0.0,0.0
1775763818186922705,68555,0.0,1.0,0.06,0.2,-0.08,-0.12,-8.19,-1.5,2.44,0.06,-0.06,-0.41,0.19,-0.06,-0.06,195.34,204.0,0.0,0.0,0.0,0.0
1775763818289256279,68655,0.0,0.9,0.04,0.6,0.06,-0.14,-8.19,-1.5,2.44,0.04,-0.07,-0.38,0.06,-0.0,0.06,191.22,204.0,0.0,0.0,0.0,0.0
1775763818387502313,68756,0.0,1.2,0.028,0.3,0.04,-0.06,-8.19,-1.5,2.44,0.08,-0.04,-0.38,-0.06,-0.0,0.0,208.54,201.0,0.0,0.0,0.0,0.0
1775763818485676768,68855,0.0,1.0,0.024,0.3,-0.23,-0.14,-8.19,-1.5,2.44,0.04,-0.07,-0.4,-0.0,0.06,-0.12,208.54,202.0,0.0,0.0,0.0,0.0
1775763818588023999,68955,0.0,0.9,0.016,0.5,-0.06,-0.04,-8.19,-1.5,2.44,0.05,-0.03,-0.41,-0.0,-0.06,-0.12,195.34,202.0,0.0,0.0,0.0,0.0
1775763818686275029,69055,0.0,1.1,0.008,0.5,0.0,-0.12,-8.19,-1.5,2.44,0.06,-0.07,-0.41,0.12,-0.0,0.06,191.05,203.0,0.0,0.0,0.0,0.0
1775763818784489512,69154,0.0,1.0,0.008,0.2,-0.02,-0.23,-8.19,-1.5,2.44,0.05,-0.07,-0.39,0.12,-0.0,-0.06,191.22,203.0,0.0,0.0,0.0,0.0
1775763818886818681,69254,0.0,1.1,0.008,0.5,0.04,-0.14,-8.19,-1.5,2.44,0.07,-0.07,-0.39,0.12,-0.06,0.0,194.31,203.0,0.0,0.0,0.0,0.0
1775763818985038290,69354,0.0,1.1,0.004,0.6,-0.02,-0.14,-8.19,-1.5,2.44,0.05,-0.05,-0.38,-0.0,0.12,0.0,208.54,206.0,0.0,0.0,0.0,0.0
1775763819087365375,69454,0.0,1.0,0.004,0.1,0.12,-0.12,-8.19,-1.5,2.44,0.06,-0.05,-0.4,-0.0,-0.0,-0.06,208.54,206.0,0.0,0.0,0.0,0.0
1775763819189691530,69555,0.0,0.9,0.052,0.3,0.04,-0.12,-8.19,-1.5,2.44,0.07,-0.05,-0.38,0.12,0.06,0.0,198.6,206.0,0.0,0.0,0.0,0.0
1775763819287918190,69656,0.0,1.1,0.032,0.3,0.08,-0.1,-8.19,-1.5,2.44,0.07,-0.04,-0.41,-0.0,-0.19,0.06,199.45,206.0,0.0,0.0,0.0,0.0
1775763819386173126,69755,0.0,1.0,0.04,0.3,-0.04,-0.16,-8.19,-1.5,2.44,0.05,-0.06,-0.4,-0.0,-0.06,-0.06,195.34,206.0,0.0,0.0,0.0,0.0
1775763819488464731,69855,0.0,1.2,0.024,0.6,0.08,-0.14,-8.19,-1.5,2.44,0.05,-0.05,-0.41,-0.12,-0.06,0.0,194.31,202.0,0.0,0.0,0.0,0.0
1775763819707593104,69956,0.0,0.8,0.0,0.1,0.06,-0.18,-8.19,-1.5,2.44,0.05,-0.07,-0.38,0.06,-0.06,0.0,195.34,202.0,0.0,0.0,0.0,0.0
1775763819709481789,70055,0.0,0.8,0.008,0.2,-0.12,-0.12,-8.19,-1.5,2.44,0.05,-0.04,-0.39,-0.0,0.06,0.19,207.34,202.0,0.0,0.0,0.0,0.0
1775763819787325445,70155,0.0,0.9,0.004,0.6,0.06,-0.16,-8.19,-1.5,2.44,0.06,-0.06,-0.4,-0.06,-0.0,-0.06,195.34,203.0,0.0,0.0,0.0,0.0
1775763819885482487,70255,0.0,1.0,0.004,0.5,0.02,-0.12,-8.19,-1.5,2.44,0.04,-0.06,-0.42,-0.06,-0.0,0.0,191.22,202.0,0.0,0.0,0.0,0.0
1775763819987841767,70355,0.0,1.2,0.004,0.1,0.04,-0.12,-8.19,-1.5,2.44,0.05,-0.06,-0.41,-0.0,-0.0,-0.06,195.34,202.0,0.0,0.0,0.0,0.0
1775763820086048661,70455,0.0,0.9,0.012,0.4,0.0,-0.12,-8.19,-1.5,2.44,0.06,-0.05,-0.4,-0.0,-0.0,-0.06,191.22,203.0,0.0,0.0,0.0,0.0
1775763820188362331,70555,0.0,0.9,0.044,0.5,0.12,-0.1,-8.19,-1.5,2.44,0.06,-0.05,-0.41,0.06,-0.0,-0.06,195.34,206.0,0.0,0.0,0.0,0.0
1775763820286605155,70654,0.0,1.1,0.036,0.1,-0.02,-0.2,-8.19,-1.5,2.44,0.03,-0.07,-0.4,-0.06,-0.06,-0.06,195.34,206.0,0.0,0.0,0.0,0.0
1775763820384830251,70754,0.0,0.9,0.028,0.2,-0.02,-0.04,-8.19,-1.5,2.44,0.05,-0.06,-0.4,-0.0,-0.12,-0.06,208.54,204.0,0.0,0.0,0.0,0.0
1775763820487145623,70855,0.0,1.0,0.024,0.1,0.02,-0.18,-8.19,-1.5,2.44,0.05,-0.04,-0.41,0.12,0.06,0.0,195.34,204.0,0.0,0.0,0.0,0.0
1775763820585371367,70955,0.0,0.8,0.008,0.0,0.0,-0.1,-8.19,-1.5,2.44,0.07,-0.06,-0.39,0.06,-0.06,-0.06,195.34,204.0,0.0,0.0,0.0,0.0
1775763820687716996,71055,0.0,1.0,0.008,0.3,0.08,-0.14,-8.19,-1.5,2.44,0.03,-0.05,-0.43,-0.0,-0.0,0.0,190.19,201.0,0.0,0.0,0.0,0.0
1775763820785964354,71155,0.0,0.9,0.008,0.3,-0.06,-0.1,-8.19,-1.5,2.44,0.06,-0.05,-0.41,-0.19,0.12,0.06,191.22,201.0,0.0,0.0,0.0,0.0
1775763821015590668,71256,0.0,1.0,0.0,0.2,0.1,-0.1,-8.19,-1.5,2.44,0.05,-0.05,-0.42,-0.06,0.06,0.06,191.22,202.0,0.0,0.0,0.0,0.0
1775763821084729234,71356,0.0,1.0,0.0,0.3,0.12,-0.14,-8.19,-1.5,2.44,0.05,-0.05,-0.4,-0.12,-0.06,-0.06,191.22,202.0,0.0,0.0,0.0,0.0
1775763821097041945,71455,0.0,1.0,0.0,0.3,0.08,-0.18,-8.19,-1.5,2.44,0.07,-0.05,-0.39,-0.0,-0.06,-0.06,191.22,202.0,0.0,0.0,0.0,0.0
1775763821187067515,71555,0.0,0.7,0.044,0.3,-0.04,0.04,-8.19,-1.5,2.44,0.06,-0.04,-0.39,-0.0,-0.12,-0.06,191.22,203.0,0.0,0.0,0.0,0.0
1775763821295357208,71655,0.0,1.1,0.036,0.1,-0.02,-0.18,-8.19,-1.5,2.44,0.05,-0.04,-0.4,-0.0,-0.12,0.0,195.34,203.0,0.0,0.0,0.0,0.0
1775763821387689226,71755,0.0,0.9,0.02,0.3,-0.08,-0.02,-8.19,-1.5,2.44,0.06,-0.05,-0.4,0.12,0.06,-0.06,195.34,204.0,0.0,0.0,0.0,0.0
1775763821489940862,71856,0.0,1.0,0.012,0.3,-0.06,-0.12,-8.19,-1.5,2.44,0.07,-0.04,-0.43,0.12,-0.06,0.06,208.54,204.0,0.0,0.0,0.0,0.0
1775763821588188797,71956,0.0,0.8,0.012,0.4,0.21,-0.18,-8.19,-1.5,2.44,0.04,-0.07,-0.44,0.06,-0.0,0.0,191.22,204.0,0.0,0.0,0.0,0.0
1775763821686384546,72057,0.0,1.1,0.012,0.3,-0.02,-0.18,-8.19,-1.5,2.44,0.05,-0.05,-0.38,-0.0,-0.06,-0.12,195.34,202.0,0.0,0.0,0.0,0.0
1775763821807591983,72157,0.0,0.9,0.008,0.3,0.02,-0.02,-8.19,-1.5,2.44,0.08,-0.06,-0.4,-0.12,0.06,0.06,195.34,201.0,0.0,0.0,0.0,0.0
1775763821891093771,72258,0.0,1.1,0.016,0.3,-0.04,-0.23,-8.19,-1.5,2.44,0.07,-0.04,-0.37,-0.06,-0.19,-0.12,191.22,201.0,0.0,0.0,0.0,0.0
1775763821989318704,72357,0.0,1.0,0.0,0.5,0.04,-0.06,-8.19,-1.5,2.44,0.08,-0.06,-0.43,-0.06,-0.0,0.0,191.22,201.0,0.0,0.0,0.0,0.0
1775763822087559886,72457,0.0,0.7,0.0,0.4,-0.02,-0.1,-8.19,-1.5,2.44,0.06,-0.06,-0.38,-0.12,-0.0,-0.06,191.22,202.0,0.0,0.0,0.0,0.0
1775763822195838815,72557,0.0,0.9,0.052,0.7,0.02,-0.21,-8.19,-1.5,2.44,0.05,-0.06,-0.37,-0.0,-0.06,0.0,194.31,202.0,0.0,0.0,0.0,0.0
1775763822288143029,72656,0.0,1.0,0.044,0.3,0.08,-0.04,-8.19,-1.5,2.44,0.05,-0.05,-0.37,0.06,-0.0,0.06,195.34,203.0,0.0,0.0,0.0,0.0
1775763822386364653,72756,0.0,1.0,0.024,0.2,-0.02,-0.08,-8.19,-1.5,2.44,0.06,-0.04,-0.39,-0.06,-0.06,-0.12,208.54,202.0,0.0,0.0,0.0,0.0
1775763822488659032,72856,0.0,1.2,0.012,0.3,-0.1,-0.06,-8.19,-1.5,2.44,0.06,-0.06,-0.42,0.12,-0.06,0.0,195.34,202.0,0.0,0.0,0.0,0.0
1775763822586913763,72956,0.0,1.1,0.02,0.3,-0.08,-0.16,-8.19,-1.5,2.44,0.06,-0.06,-0.41,0.12,-0.0,0.06,208.54,202.0,0.0,0.0,0.0,0.0
1775763822689245432,73057,0.0,1.0,0.016,0.5,0.12,-0.21,-8.19,-1.5,2.44,0.07,-0.06,-0.4,-0.0,-0.0,-0.06,208.54,202.0,0.0,0.0,0.0,0.0
1775763822787484803,73157,0.0,1.0,0.0,0.5,0.04,-0.1,-8.19,-1.5,2.44,0.05,-0.05,-0.37,-0.12,0.12,-0.06,199.63,199.0,0.0,0.0,0.0,0.0
1775763822889808329,73256,0.0,0.9,0.0,0.1,-0.08,0.04,-8.19,-1.5,2.44,0.03,-0.06,-0.38,-0.0,-0.0,-0.06,203.74,201.0,0.0,0.0,0.0,0.0
1775763822988058285,73357,0.0,1.2,0.004,0.5,-0.02,0.04,-8.19,-1.5,2.44,0.09,-0.05,-0.38,0.12,0.19,-0.12,199.63,201.0,0.0,0.0,0.0,0.0
1775763823086252019,73457,0.0,1.0,0.0,0.4,-0.06,-0.14,-8.19,-1.5,2.44,0.04,-0.05,-0.38,-0.0,-0.0,0.06,195.34,205.0,0.0,0.0,0.0,0.0
1775763823188601469,73556,0.0,1.2,0.052,0.3,0.04,-0.25,-8.19,-1.5,2.44,0.06,-0.05,-0.38,0.19,-0.0,-0.12,207.52,203.0,0.0,0.0,0.0,0.0
1775763823290940129,73657,0.0,1.1,0.044,0.4,-0.06,0.0,-8.19,-1.5,2.44,0.05,-0.05,-0.43,-0.06,-0.0,-0.25,199.63,203.0,0.0,0.0,0.0,0.0
1775763823389192074,73757,0.0,1.0,0.024,0.3,0.0,-0.08,-8.19,-1.5,2.44,0.06,-0.04,-0.39,0.12,0.06,-0.06,208.54,204.0,0.0,0.0,0.0,0.0
1775763823487376822,73857,0.0,0.9,0.02,0.1,-0.04,-0.02,-8.19,-1.5,2.44,0.06,-0.04,-0.4,-0.19,0.12,0.06,195.51,204.0,0.0,0.0,0.0,0.0
1775763823589735858,73957,0.0,1.1,0.012,0.1,-0.04,-0.14,-8.19,-1.5,2.44,0.04,-0.05,-0.37,-0.06,-0.06,0.06,195.34,200.0,0.0,0.0,0.0,0.0
1775763823687967778,74057,0.0,1.1,0.004,0.3,0.04,-0.08,-8.19,-1.5,2.44,0.08,-0.05,-0.37,-0.0,0.12,0.19,199.45,207.0,0.0,0.0,0.0,0.0
1775763823935588792,74157,0.0,1.0,0.0,0.3,0.02,-0.14,-8.19,-1.5,2.44,0.07,-0.05,-0.4,-0.0,-0.0,0.06,208.37,207.0,0.0,0.0,0.0,0.0
1775763823986780959,74257,0.0,1.0,0.0,0.5,-0.08,-0.18,-8.19,-1.5,2.44,0.03,-0.07,-0.39,0.06,-0.12,0.0,208.54,202.0,0.0,0.0,0.0,0.0
1775763823998959770,74356,0.0,1.0,0.0,0.1,0.02,-0.08,-8.19,-1.5,2.44,0.04,-0.06,-0.39,-0.12,0.12,0.0,195.34,204.0,0.0,0.0,0.0,0.0
1775763824089128393,74456,0.0,0.5,0.008,0.2,0.0,-0.08,-8.19,-1.5,2.44,0.06,-0.08,-0.39,-0.0,-0.0,0.0,195.34,204.0,0.0,0.0,0.0,0.0
1775763824187341047,74556,0.0,0.9,0.056,0.3,0.0,-0.06,-8.19,-1.5,2.44,0.04,-0.05,-0.39,-0.0,0.12,0.06,199.45,203.0,0.0,0.0,0.0,0.0
1775763824285525589,74656,0.0,1.1,0.036,0.6,0.0,-0.12,-8.19,-1.5,2.44,0.06,-0.05,-0.41,0.12,-0.0,-0.12,191.22,205.0,0.0,0.0,0.0,0.0
1775763824387960208,74756,0.0,0.9,0.024,0.5,-0.1,-0.18,-8.19,-1.5,2.44,0.04,-0.06,-0.4,0.06,-0.19,-0.06,194.31,205.0,0.0,0.0,0.0,0.0
1775763824486085122,74857,0.0,1.1,0.016,0.4,-0.02,-0.02,-8.19,-1.5,2.44,0.04,-0.04,-0.38,-0.0,-0.12,0.06,191.22,204.0,0.0,0.0,0.0,0.0
1775763824588460279,74956,0.0,1.1,0.008,0.5,0.14,-0.2,-8.19,-1.5,2.44,0.07,-0.05,-0.38,-0.0,-0.06,0.0,194.31,205.0,0.0,0.0,0.0,0.0
1775763824686676153,75057,0.0,0.8,0.012,0.5,-0.06,-0.21,-8.19,-1.5,2.44,0.06,-0.05,-0.38,0.06,-0.12,0.0,208.54,205.0,0.0,0.0,0.0,0.0
1775763824789035617,75157,0.0,0.3,0.0,0.3,-0.04,-0.1,-8.19,-1.5,2.44,0.05,-0.05,-0.38,0.12,-0.06,0.06,208.54,204.0,0.0,0.0,0.0,0.0
1775763824887277585,75257,0.0,1.5,0.004,0.3,0.1,0.06,-8.19,-1.5,2.44,0.05,-0.04,-0.37,0.12,-0.0,0.12,208.54,204.0,0.0,0.0,0.0,0.0
1775763824989610325,75357,0.0,1.5,0.0,1.1,0.02,-0.18,-8.19,-1.5,2.44,0.06,-0.05,-0.38,-0.0,-0.12,0.0,207.52,198.0,0.0,0.0,0.0,0.0
1775763825087848474,75458,0.0,1.1,0.004,0.5,0.04,-0.25,-8.19,-1.5,2.44,0.07,-0.06,-0.39,-0.06,0.06,0.06,207.52,199.0,0.0,0.0,0.0,0.0
1775763825190176118,75557,0.0,0.7,0.052,0.3,0.02,-0.1,-8.19,-1.5,2.44,0.06,-0.05,-0.37,0.12,-0.06,0.0,204.26,199.0,0.0,0.0,0.0,0.0
1775763825288412064,75658,0.0,0.9,0.04,0.5,0.02,-0.1,-8.19,-1.5,2.44,0.06,-0.03,-0.37,-0.0,-0.06,0.0,204.43,199.0,0.0,0.0,0.0,0.0
1775763825390786883,75758,0.0,1.0,0.032,0.2,0.06,-0.25,-8.19,-1.5,2.44,0.05,-0.06,-0.38,-0.0,0.06,-0.06,204.43,204.0,0.0,0.0,0.0,0.0
1775763825488979615,75857,0.0,1.0,0.004,0.2,-0.06,-0.18,-8.19,-1.5,2.44,0.05,-0.06,-0.38,-0.0,0.06,0.06,200.14,204.0,0.0,0.0,0.0,0.0
1775763825597220313,75957,0.0,1.0,0.02,0.5,0.1,-0.1,-8.19,-1.5,2.44,0.05,-0.07,-0.38,-0.06,-0.06,-0.06,204.43,202.0,0.0,0.0,0.0,0.0
1775763825689555236,76058,0.0,1.0,0.008,0.3,-0.04,0.0,-8.19,-1.5,2.44,0.05,-0.04,-0.38,-0.0,0.06,-0.06,196.02,202.0,0.0,0.0,0.0,0.0
1775763825911593447,76157,0.0,1.0,0.008,0.2,0.04,0.0,-8.19,-1.5,2.44,0.05,-0.08,-0.4,0.06,-0.0,-0.06,196.02,202.0,0.0,0.0,0.0,0.0
1775763825988362564,76257,0.0,1.2,0.0,0.5,-0.1,-0.21,-8.19,-1.5,2.44,0.05,-0.04,-0.4,-0.12,-0.0,0.06,204.26,201.0,0.0,0.0,0.0,0.0
1775763826000690330,76357,0.0,1.2,0.008,0.2,-0.04,-0.1,-8.19,-1.5,2.44,0.06,-0.06,-0.4,-0.06,0.06,-0.06,196.02,201.0,0.0,0.0,0.0,0.0
1775763826086593434,76456,0.0,1.1,0.008,0.5,-0.1,-0.12,-8.19,-1.5,2.44,0.06,-0.04,-0.4,0.06,-0.06,-0.12,191.74,202.0,0.0,0.0,0.0,0.0
1775763826188930173,76557,0.0,1.1,0.036,0.3,0.04,-0.23,-8.19,-1.5,2.44,0.07,-0.05,-0.4,-0.0,0.06,0.06,195.85,204.0,0.0,0.0,0.0,0.0
1775763826287172365,76657,0.0,1.0,0.0,1.6,-0.1,-0.21,-8.19,-1.5,2.44,0.06,-0.04,-0.41,0.12,-0.12,0.0,194.82,204.0,0.0,0.0,0.0,0.0
1775763826389518358,76758,0.0,1.4,0.024,0.2,0.04,-0.16,-8.19,-1.5,2.44,0.05,-0.05,-0.38,-0.19,-0.0,-0.06,191.74,201.0,0.0,0.0,0.0,0.0
1775763826491823340,76858,0.0,1.5,0.004,0.2,0.1,-0.04,-8.19,-1.5,2.44,0.05,-0.07,-0.39,-0.12,-0.0,-0.06,196.02,204.0,0.0,0.0,0.0,0.0
1775763826590050060,76959,0.0,1.3,0.004,0.4,0.1,-0.1,-8.19,-1.5,2.44,0.04,-0.05,-0.38,-0.06,-0.0,0.0,196.02,204.0,0.0,0.0,0.0,0.0
1775763826707589212,77059,0.0,1.3,0.016,0.6,-0.1,-0.21,-8.19,-1.5,2.44,0.07,-0.06,-0.38,-0.06,0.06,0.0,196.02,201.0,0.0,0.0,0.0,0.0
1775763826790645166,77159,0.0,1.3,0.0,0.5,-0.08,-0.16,-8.19,-1.5,2.44,0.06,-0.06,-0.38,0.12,-0.0,-0.06,195.0,206.0,0.0,0.0,0.0,0.0
1775763826888875588,77259,0.0,1.4,0.004,0.3,0.08,-0.18,-8.19,-1.5,2.44,0.04,-0.05,-0.4,-0.06,0.06,0.0,195.85,206.0,0.0,0.0,0.0,0.0
1775763826991205998,77359,0.0,1.8,0.0,0.3,0.0,-0.1,-8.19,-1.5,2.44,0.06,-0.04,-0.39,-0.06,-0.06,0.0,196.02,202.0,0.0,0.0,0.0,0.0
1775763827093539887,77460,0.0,1.3,0.004,0.2,0.14,-0.2,-8.19,-1.5,2.44,0.05,-0.05,-0.38,-0.06,0.12,0.12,196.02,202.0,0.0,0.0,0.0,0.0
1775763827191784736,77560,0.0,1.3,0.048,0.4,0.02,-0.1,-8.19,-1.5,2.44,0.06,-0.05,-0.39,0.06,0.06,-0.06,196.02,202.0,0.0,0.0,0.0,0.0
1775763827294117263,77661,0.0,1.4,0.044,0.5,-0.08,-0.02,-8.19,-1.5,2.44,0.06,-0.05,-0.38,-0.06,0.06,0.0,196.02,203.0,0.0,0.0,0.0,0.0
1775763827392372495,77761,0.0,1.5,0.024,0.5,0.0,-0.18,-8.19,-1.5,2.44,0.06,-0.06,-0.41,0.12,-0.0,0.06,195.85,203.0,0.0,0.0,0.0,0.0
1775763827490578351,77860,0.0,1.4,0.02,0.6,-0.18,0.0,-8.19,-1.5,2.44,0.03,-0.09,-0.38,-0.0,0.12,-0.06,195.85,201.0,0.0,0.0,0.0,0.0
1775763827592920224,77961,0.0,1.3,0.016,0.2,-0.1,-0.27,-8.19,-1.5,2.44,0.06,-0.05,-0.38,-0.06,0.12,0.0,196.02,201.0,0.0,0.0,0.0,0.0
1775763827691194379,78061,0.0,1.3,0.012,0.3,-0.04,-0.08,-8.19,-1.5,2.44,0.05,-0.06,-0.38,-0.06,0.19,0.06,195.0,201.0,0.0,0.0,0.0,0.0
1775763827789468368,78160,0.0,1.3,0.0,0.5,0.12,-0.12,-8.19,-1.5,2.44,0.06,-0.05,-0.38,-0.06,-0.0,-0.06,196.02,203.0,0.0,0.0,0.0,0.0
1775763827891814027,78260,0.0,1.3,0.0,0.6,-0.12,-0.02,-8.19,-1.5,2.44,0.05,-0.04,-0.38,0.06,-0.25,0.06,191.74,203.0,0.0,0.0,0.0,0.0
1775763827990022603,78361,0.0,1.5,0.0,0.3,0.02,-0.02,-8.19,-1.5,2.44,0.03,-0.06,-0.39,-0.0,-0.12,0.0,196.02,202.0,0.0,0.0,0.0,0.0
1775763828092507162,78460,0.0,1.2,0.004,0.4,0.02,-0.14,-8.19,-1.5,2.44,0.06,-0.06,-0.41,-0.06,0.06,-0.06,195.0,202.0,0.0,0.0,0.0,0.0
1775763828190845401,78561,0.0,0.8,0.048,0.3,0.0,-0.1,-8.19,-1.5,2.44,0.06,-0.05,-0.38,0.12,-0.06,0.0,195.0,202.0,0.0,0.0,0.0,0.0
1775763828293333788,78661,0.0,1.2,0.036,0.3,0.06,0.12,-8.19,-1.5,2.44,0.05,-0.05,-0.38,-0.06,-0.12,-0.12,196.02,204.0,0.0,0.0,0.0,0.0
1775763828391675789,78761,0.0,1.2,0.028,0.0,0.0,0.0,-8.19,-1.5,2.44,0.05,-0.04,-0.39,-0.0,-0.06,0.0,196.02,206.0,0.0,0.0,0.0,0.0
1775763828494151427,78862,0.0,0.9,0.016,0.5,-0.12,-0.06,-8.19,-1.5,2.44,0.05,-0.07,-0.42,-0.12,0.06,0.06,196.02,206.0,0.0,0.0,0.0,0.0
1775763828592479771,78962,0.0,1.0,0.012,0.1,-0.06,-0.1,-8.19,-1.5,2.44,0.07,-0.04,-0.41,-0.06,0.06,0.06,196.02,202.0,0.0,0.0,0.0,0.0
1775763828694968435,79062,0.0,1.0,0.0,0.4,0.0,-0.06,-8.19,-1.5,2.44,0.07,-0.07,-0.4,0.06,-0.06,-0.12,196.02,202.0,0.0,0.0,0.0,0.0
1775763828793335397,79162,0.0,1.0,0.0,0.6,0.06,-0.02,-8.19,-1.5,2.44,0.05,-0.06,-0.42,-0.0,0.06,0.06,196.02,202.0,0.0,0.0,0.0,0.0
1775763829051595065,79262,0.0,0.7,0.008,0.2,-0.1,-0.1,-8.19,-1.5,2.44,0.06,-0.06,-0.37,-0.0,-0.0,0.0,196.02,204.0,0.0,0.0,0.0,0.0
1775763829096634092,79362,0.0,0.7,0.0,0.4,-0.04,-0.12,-8.19,-1.5,2.44,0.05,-0.03,-0.38,-0.12,-0.06,-0.06,196.02,202.0,0.0,0.0,0.0,0.0
1775763829109018243,79463,0.0,1.0,0.0,0.2,-0.02,-0.08,-8.19,-1.5,2.44,0.05,-0.06,-0.38,-0.12,-0.06,-0.12,196.02,202.0,0.0,0.0,0.0,0.0
1775763829194961179,79563,0.0,1.1,0.056,0.2,0.06,-0.16,-8.19,-1.5,2.44,0.05,-0.07,-0.39,0.12,-0.0,0.0,196.02,200.0,0.0,0.0,0.0,0.0
1775763829297447176,79663,0.0,0.7,0.036,0.3,0.0,0.0,-8.19,-1.5,2.44,0.05,-0.05,-0.39,0.12,-0.12,0.0,195.85,200.0,0.0,0.0,0.0,0.0
1775763829395818069,79763,0.0,1.2,0.024,0.2,0.08,-0.23,-8.19,-1.5,2.44,0.04,-0.06,-0.38,-0.06,-0.0,0.06,196.02,205.0,0.0,0.0,0.0,0.0
1775763829494136633,79863,0.0,0.7,0.028,0.4,-0.12,-0.2,-8.19,-1.5,2.44,0.05,-0.05,-0.38,-0.12,0.12,0.12,196.02,200.0,0.0,0.0,0.0,0.0
1775763829596595187,79963,0.0,0.9,0.008,0.2,0.12,-0.1,-8.19,-1.5,2.44,0.06,-0.06,-0.39,-0.06,0.06,0.0,196.02,200.0,0.0,0.0,0.0,0.0
1775763829694986258,80063,0.0,0.9,0.004,0.4,0.04,-0.18,-8.19,-1.5,2.44,0.04,-0.03,-0.39,-0.06,-0.0,0.0,196.02,198.0,0.0,0.0,0.0,0.0
1775763829797442348,80162,0.0,1.1,0.004,0.5,0.02,-0.06,-8.19,-1.5,2.44,0.05,-0.07,-0.38,0.06,-0.19,0.06,196.02,206.0,0.0,0.0,0.0,0.0
1775763829895807459,80262,0.0,0.9,0.0,0.5,0.14,-0.23,-8.19,-1.5,2.44,0.05,-0.06,-0.38,0.06,0.06,0.0,196.02,206.0,0.0,0.0,0.0,0.0
1775763829994186208,80362,0.0,0.9,0.012,0.3,0.08,-0.18,-8.19,-1.5,2.44,0.05,-0.05,-0.4,0.06,0.12,-0.06,191.91,203.0,0.0,0.0,0.0,0.0
1775763830096635120,80461,0.0,0.9,0.004,0.1,-0.06,-0.2,-8.19,-1.5,2.44,0.06,-0.05,-0.37,-0.06,-0.0,0.0,191.91,203.0,0.0,0.0,0.0,0.0
1775763830194978893,80561,0.0,1.0,0.044,0.3,0.18,-0.16,-8.19,-1.5,2.44,0.07,-0.05,-0.39,-0.0,0.06,0.0,191.91,200.0,0.0,0.0,0.0,0.0
1775763830293439659,80661,0.0,0.9,0.036,0.4,-0.04,-0.1,-8.19,-1.5,2.44,0.04,-0.04,-0.43,-0.06,-0.06,0.0,195.85,202.0,0.0,0.0,0.0,0.0
1775763830395788790,80760,0.0,1.1,0.028,0.1,0.16,-0.12,-8.19,-1.5,2.44,0.06,-0.08,-0.43,0.06,-0.0,0.06,195.85,202.0,0.0,0.0,0.0,0.0
1775763830494126948,80860,0.0,1.0,0.024,0.3,0.12,-0.04,-8.19,-1.5,2.44,0.04,-0.06,-0.38,0.06,0.12,0.0,196.02,203.0,0.0,0.0,0.0,0.0
1775763830592467089,80960,0.0,1.0,0.012,0.0,0.02,-0.18,-8.19,-1.5,2.44,0.05,-0.05,-0.38,-0.06,0.12,0.06,191.74,199.0,0.0,0.0,0.0,0.0
1775763830694968308,81060,0.0,1.4,0.0,0.0,-0.08,-0.16,-8.19,-1.5,2.44,0.06,-0.04,-0.4,0.06,0.06,-0.06,191.74,199.0,0.0,0.0,0.0,0.0
1775763831023587607,81160,0.0,1.2,0.004,0.7,-0.04,-0.23,-8.19,-1.5,2.44,0.08,-0.07,-0.42,-0.06,-0.0,-0.06,190.71,205.0,0.0,0.0,0.0,0.0
1775763831096625494,81261,0.0,1.3,0.0,0.1,-0.02,-0.18,-8.19,-1.5,2.44,0.04,-0.06,-0.39,-0.12,0.06,0.0,196.02,200.0,0.0,0.0,0.0,0.0
1775763831108526738,81360,0.0,1.3,0.0,0.3,0.02,-0.23,-8.19,-1.5,2.44,0.04,-0.07,-0.4,-0.06,0.19,0.0,195.85,200.0,0.0,0.0,0.0,0.0
1775763831120111325,81461,0.0,1.5,0.0,0.5,0.0,-0.2,-8.19,-1.5,2.44,0.06,-0.04,-0.42,-0.0,-0.19,0.0,191.74,202.0,0.0,0.0,0.0,0.0
1775763831194941686,81561,0.0,1.4,0.048,0.1,-0.04,-0.16,-8.19,-1.5,2.44,0.07,-0.07,-0.41,-0.0,-0.19,-0.06,196.02,202.0,0.0,0.0,0.0,0.0
1775763831293288730,81660,0.0,1.4,0.04,0.2,-0.04,-0.18,-8.19,-1.5,2.44,0.06,-0.06,-0.41,-0.0,-0.0,0.06,191.74,202.0,0.0,0.0,0.0,0.0
1775763831395788760,81760,0.0,1.4,0.02,0.3,0.04,-0.25,-8.19,-1.5,2.44,0.07,-0.06,-0.41,-0.0,-0.0,-0.06,191.91,203.0,0.0,0.0,0.0,0.0
1775763831494023352,81861,0.0,1.5,0.024,0.6,-0.14,0.02,-8.19,-1.5,2.44,0.05,-0.07,-0.39,-0.06,-0.06,0.0,191.74,203.0,0.0,0.0,0.0,0.0
1775763831596543375,81960,0.0,1.5,0.012,0.2,-0.02,-0.12,-8.19,-1.5,2.44,0.05,-0.04,-0.39,-0.06,0.06,0.0,196.02,202.0,0.0,0.0,0.0,0.0
1775763831694929495,82060,0.0,1.2,0.008,0.4,-0.08,-0.08,-8.19,-1.5,2.44,0.05,-0.07,-0.42,-0.06,0.06,0.0,191.74,200.0,0.0,0.0,0.0,0.0
1775763831793242501,82160,0.0,1.2,0.0,0.6,-0.18,-0.2,-8.19,-1.5,2.44,0.04,-0.06,-0.38,-0.12,0.06,-0.06,196.02,200.0,0.0,0.0,0.0,0.0
1775763831895752500,82259,0.0,0.7,0.0,0.6,-0.04,-0.23,-8.19,-1.5,2.44,0.06,-0.06,-0.38,-0.0,-0.06,0.06,196.02,201.0,0.0,0.0,0.0,0.0
1775763831994047496,82359,0.0,0.8,0.012,0.2,-0.06,-0.12,-8.19,-1.5,2.44,0.06,-0.08,-0.41,0.06,0.06,0.0,191.74,203.0,0.0,0.0,0.0,0.0
1775763832096539395,82460,0.0,0.7,0.0,0.3,-0.08,-0.16,-8.19,-1.5,2.44,0.04,-0.05,-0.37,0.06,-0.0,-0.06,191.74,203.0,0.0,0.0,0.0,0.0
1775763832194888985,82560,0.0,1.3,0.032,0.3,0.02,-0.23,-8.19,-1.5,2.44,0.04,-0.04,-0.37,0.06,0.06,-0.06,191.74,202.0,0.0,0.0,0.0,0.0
1775763832297336950,82660,0.0,1.5,0.04,0.4,0.0,-0.16,-8.19,-1.5,2.44,0.04,-0.03,-0.39,-0.06,-0.0,0.0,191.74,202.0,0.0,0.0,0.0,0.0
1775763832395728359,82760,0.0,1.5,0.02,0.2,0.06,-0.16,-8.19,-1.5,2.44,0.03,-0.06,-0.39,0.12,0.06,0.0,191.74,201.0,0.0,0.0,0.0,0.0
1775763832498104564,82860,0.0,1.4,0.024,0.3,0.02,-0.18,-8.19,-1.5,2.44,0.06,-0.05,-0.38,-0.06,0.06,0.0,191.91,201.0,0.0,0.0,0.0,0.0
1775763832596495343,82960,0.0,1.3,0.008,0.7,-0.02,-0.18,-8.19,-1.5,2.44,0.05,-0.06,-0.4,-0.12,0.06,0.0,195.85,201.0,0.0,0.0,0.0,0.0
1775763832704939958,83060,0.0,1.6,0.0,0.2,0.14,-0.16,-8.19,-1.5,2.44,0.05,-0.04,-0.38,-0.0,-0.0,0.0,196.02,202.0,0.0,0.0,0.0,0.0
1775763832797290657,83161,0.0,1.6,0.008,0.2,0.14,-0.2,-8.19,-1.5,2.44,0.07,-0.06,-0.43,-0.06,0.12,0.06,191.74,204.0,0.0,0.0,0.0,0.0
1775763832899733953,83261,0.0,1.5,0.012,0.3,0.02,-0.14,-8.19,-1.5,2.44,0.06,-0.07,-0.42,-0.12,-0.06,0.12,190.71,204.0,0.0,0.0,0.0,0.0
1775763832998097217,83361,0.0,1.4,0.0,0.6,0.02,-0.06,-8.19,-1.5,2.44,0.05,-0.04,-0.39,-0.0,0.06,0.06,191.74,203.0,0.0,0.0,0.0,0.0
1775763833096404105,83461,0.0,1.4,0.012,0.3,0.08,-0.16,-8.19,-1.5,2.44,0.05,-0.02,-0.37,-0.12,-0.12,-0.06,196.02,204.0,0.0,0.0,0.0,0.0
1775763833198898650,83561,0.0,1.3,0.056,0.3,0.08,-0.16,-8.19,-1.5,2.44,0.05,-0.07,-0.4,-0.0,0.06,-0.06,191.91,204.0,0.0,0.0,0.0,0.0
1775763833297309442,83661,0.0,1.1,0.032,0.3,-0.02,-0.14,-8.19,-1.5,2.44,0.03,-0.04,-0.37,-0.06,0.12,0.06,196.02,200.0,0.0,0.0,0.0,0.0
1775763833531585893,83762,0.0,1.1,0.028,0.3,0.04,-0.18,-8.19,-1.5,2.44,0.04,-0.03,-0.4,-0.06,-0.06,0.06,196.02,200.0,0.0,0.0,0.0,0.0
1775763833600484676,83862,0.0,1.1,0.028,0.4,-0.12,-0.02,-8.19,-1.5,2.44,0.04,-0.05,-0.41,0.06,-0.06,-0.12,191.74,207.0,0.0,0.0,0.0,0.0
1775763833608858321,83962,0.0,0.9,0.008,0.5,-0.04,-0.14,-8.19,-1.5,2.44,0.06,-0.05,-0.38,-0.0,-0.06,0.12,196.02,199.0,0.0,0.0,0.0,0.0
1775763833698834048,84062,0.0,1.1,0.0,0.5,-0.06,-0.08,-8.19,-1.5,2.44,0.06,-0.06,-0.42,-0.0,-0.0,-0.06,196.02,199.0,0.0,0.0,0.0,0.0
1775763833801285201,84162,0.0,0.9,0.0,0.2,-0.06,-0.06,-8.19,-1.5,2.44,0.06,-0.04,-0.38,0.12,-0.06,0.06,196.02,203.0,0.0,0.0,0.0,0.0
1775763833899631202,84261,0.0,1.1,0.0,0.6,0.04,-0.21,-8.19,-1.5,2.44,0.07,-0.04,-0.38,-0.06,0.06,0.0,195.68,201.0,0.0,0.0,0.0,0.0
1775763834002089747,84362,0.0,1.1,0.0,0.3,0.0,-0.16,-8.19,-1.5,2.44,0.05,-0.03,-0.38,0.12,-0.12,-0.06,195.0,201.0,0.0,0.0,0.0,0.0
1775763834100427633,84463,0.0,1.0,0.008,0.3,0.0,-0.2,-8.19,-1.5,2.44,0.05,-0.05,-0.38,-0.0,-0.0,-0.06,196.02,204.0,0.0,0.0,0.0,0.0
1775763834198766369,84562,0.004,0.9,0.044,0.5,0.0,-0.14,-8.19,-1.5,2.44,0.06,-0.05,-0.39,0.06,-0.06,0.0,196.02,204.0,0.0,0.0,0.0,0.0
1775763834319589694,84662,0.0,1.2,0.024,0.5,0.02,-0.2,-8.19,-1.5,2.44,0.05,-0.07,-0.4,-0.12,0.06,0.0,196.02,204.0,0.0,0.0,0.0,0.0
1775763834399558089,84763,0.0,1.2,0.02,0.2,-0.2,-0.08,-8.19,-1.5,2.44,0.04,-0.06,-0.38,-0.0,-0.12,-0.12,196.02,204.0,0.0,0.0,0.0,0.0
1775763834501981690,84862,0.0,1.1,0.016,0.3,-0.04,-0.23,-8.19,-1.5,2.44,0.05,-0.06,-0.39,-0.0,-0.06,-0.06,196.02,204.0,0.0,0.0,0.0,0.0
1775763834600357221,84963,0.0,1.4,0.016,0.2,-0.04,-0.25,-8.19,-1.5,2.44,0.03,-0.06,-0.36,-0.0,-0.0,0.06,196.02,203.0,0.0,0.0,0.0,0.0
1775763834759600704,85063,0.0,1.5,0.004,0.2,0.08,-0.14,-8.19,-1.5,2.44,0.06,-0.04,-0.4,-0.0,-0.19,0.0,195.0,201.0,0.0,0.0,0.0,0.0
1775763834801124857,85164,0.0,1.2,0.0,0.5,0.08,-0.18,-8.19,-1.5,2.44,0.04,-0.05,-0.37,-0.0,-0.06,0.0,195.85,201.0,0.0,0.0,0.0,0.0
1775763834903584641,85264,0.0,1.4,0.0,0.3,0.02,-0.23,-8.19,-1.5,2.44,0.05,-0.04,-0.38,0.25,-0.12,0.0,200.31,203.0,0.0,0.0,0.0,0.0
1775763835001932474,85363,0.0,1.3,0.004,0.3,0.04,-0.12,-8.19,-1.5,2.44,0.05,-0.05,-0.38,-0.12,-0.0,0.0,195.0,197.0,0.0,0.0,0.0,0.0
1775763835104399665,85464,0.0,1.3,0.0,0.2,0.14,-0.14,-8.19,-1.5,2.44,0.05,-0.05,-0.4,-0.0,-0.12,-0.06,196.02,197.0,0.0,0.0,0.0,0.0
1775763835202720975,85564,0.0,1.4,0.052,0.5,-0.08,-0.12,-8.19,-1.5,2.44,0.05,-0.05,-0.41,-0.0,0.06,0.0,191.74,201.0,0.0,0.0,0.0,0.0
1775763835305179362,85664,0.0,1.4,0.048,0.2,-0.1,-0.14,-8.19,-1.5,2.44,0.05,-0.04,-0.38,-0.0,0.06,0.12,196.02,202.0,0.0,0.0,0.0,0.0
1775763835403577928,85764,0.0,1.4,0.028,0.6,0.04,-0.12,-8.19,-1.5,2.44,0.06,-0.06,-0.37,0.12,-0.06,-0.06,196.02,202.0,0.0,0.0,0.0,0.0
1775763835501807363,85864,0.0,1.2,0.024,0.5,-0.14,-0.12,-8.19,-1.5,2.44,0.06,-0.06,-0.39,0.06,-0.06,0.06,195.85,202.0,0.0,0.0,0.0,0.0
1775763835604277904,85964,0.0,0.4,0.0,1.1,-0.06,-0.14,-8.19,-1.5,2.44,0.05,-0.06,-0.41,0.12,-0.0,0.06,193.8,201.0,0.0,0.0,0.0,0.0
1775763835706765822,86065,0.0,1.1,0.008,0.3,0.12,-0.14,-8.19,-1.5,2.44,0.06,-0.06,-0.4,0.06,-0.12,0.0,194.82,201.0,0.0,0.0,0.0,0.0
1775763835805090707,86166,0.0,0.9,0.008,0.3,0.06,-0.23,-8.19,-1.5,2.44,0.06,-0.04,-0.38,-0.06,-0.19,-0.06,195.85,204.0,0.0,0.0,0.0,0.0
1775763835903396121,86265,0.0,0.8,0.016,0.2,-0.23,-0.14,-8.19,-1.5,2.44,0.05,-0.06,-0.38,-0.0,-0.06,0.0,200.14,204.0,0.0,0.0,0.0,0.0
1775763836005873940,86366,0.0,0.9,0.0,0.4,0.0,-0.14,-8.19,-1.5,2.44,0.04,-0.04,-0.38,-0.0,-0.0,-0.06,200.14,205.0,0.0,0.0,0.0,0.0
1775763836114300807,86466,0.0,1.0,0.0,0.2,0.02,-0.14,-8.19,-1.5,2.44,0.06,-0.05,-0.39,-0.0,-0.06,0.0,200.14,205.0,0.0,0.0,0.0,0.0
1775763836206649317,86566,0.0,1.0,0.048,0.5,-0.1,-0.27,-8.19,-1.5,2.44,0.08,-0.03,-0.38,0.06,-0.06,-0.06,200.14,205.0,0.0,0.0,0.0,0.0
1775763836304990390,86666,0.0,1.0,0.032,0.2,0.02,-0.23,-8.19,-1.5,2.44,0.05,-0.05,-0.38,-0.06,-0.06,-0.06,196.02,204.0,0.0,0.0,0.0,0.0
1775763836407456133,86766,0.0,1.2,0.02,0.1,-0.04,-0.08,-8.19,-1.5,2.44,0.05,-0.05,-0.39,0.06,0.12,0.0,196.02,205.0,0.0,0.0,0.0,0.0
1775763836505747556,86865,0.0,1.1,0.016,0.5,-0.12,-0.08,-8.19,-1.5,2.44,0.06,-0.05,-0.38,-0.12,-0.19,-0.06,203.4,205.0,0.0,0.0,0.0,0.0
1775763836604052392,86965,0.0,1.3,0.012,0.6,-0.08,-0.18,-8.19,-1.5,2.44,0.05,-0.06,-0.38,-0.06,-0.0,0.0,196.02,200.0,0.0,0.0,0.0,0.0
1775763836706551112,87065,0.0,1.2,0.0,1.5,0.04,-0.12,-8.19,-1.5,2.44,0.05,-0.04,-0.39,-0.0,-0.06,0.0,195.85,200.0,0.0,0.0,0.0,0.0
1775763836804892166,87164,0.0,1.3,0.0,0.2,-0.02,-0.1,-8.19,-1.5,2.44,0.05,-0.06,-0.41,-0.0,0.06,0.0,196.02,202.0,0.0,0.0,0.0,0.0
1775763836907342996,87265,0.0,1.4,0.004,0.2,-0.08,-0.18,-8.19,-1.5,2.44,0.06,-0.06,-0.37,-0.0,-0.12,0.12,196.02,201.0,0.0,0.0,0.0,0.0
1775763837005705131,87365,0.0,1.4,0.0,0.2,-0.02,-0.08,-8.19,-1.5,2.44,0.08,-0.06,-0.4,0.06,0.06,0.0,196.02,201.0,0.0,0.0,0.0,0.0
1775763837103988810,87464,0.0,1.4,0.0,0.5,0.06,-0.08,-8.19,-1.5,2.44,0.05,-0.04,-0.39,-0.0,0.12,-0.06,196.02,204.0,0.0,0.0,0.0,0.0
1775763837206456230,87565,0.0,1.3,0.032,0.3,0.0,0.1,-8.19,-1.5,2.44,0.03,-0.05,-0.4,-0.0,-0.06,0.06,200.14,206.0,0.0,0.0,0.0,0.0
1775763837304865496,87665,0.0,1.4,0.028,0.4,0.08,-0.16,-8.19,-1.5,2.44,0.05,-0.07,-0.38,-0.0,-0.0,0.0,196.02,206.0,0.0,0.0,0.0,0.0
1775763837407241546,87764,0.0,1.4,0.028,0.4,0.0,-0.14,-8.19,-1.5,2.44,0.06,-0.05,-0.39,0.06,-0.06,-0.06,195.85,203.0,0.0,0.0,0.0,0.0
1775763837505545715,87864,0.0,1.4,0.012,0.5,-0.04,-0.14,-8.19,-1.5,2.44,0.06,-0.06,-0.4,-0.0,0.12,0.0,196.02,202.0,0.0,0.0,0.0,0.0
1775763837603860944,87964,0.0,1.0,0.004,0.4,0.04,-0.14,-8.19,-1.5,2.44,0.07,-0.07,-0.38,0.06,-0.0,0.06,196.02,202.0,0.0,0.0,0.0,0.0
1775763837706341536,88065,0.0,0.3,0.0,0.5,-0.06,-0.18,-8.19,-1.5,2.44,0.05,-0.04,-0.38,-0.19,-0.06,0.12,196.02,203.0,0.0,0.0,0.0,0.0
1775763837814744459,88165,0.0,1.1,0.012,0.4,0.0,-0.04,-8.19,-1.5,2.44,0.06,-0.04,-0.38,-0.0,-0.0,0.0,193.8,203.0,0.0,0.0,0.0,0.0
1775763837907200844,88265,0.0,0.8,0.0,0.3,-0.04,-0.18,-8.19,-1.5,2.44,0.05,-0.05,-0.41,-0.0,-0.0,0.0,196.02,203.0,0.0,0.0,0.0,0.0
1775763838015551224,88365,0.0,1.1,0.0,0.2,-0.06,-0.16,-8.19,-1.5,2.44,0.04,-0.05,-0.4,0.12,-0.06,-0.06,196.02,202.0,0.0,0.0,0.0,0.0
1775763838107899452,88465,0.0,1.0,0.0,0.2,-0.06,-0.06,-8.19,-1.5,2.44,0.04,-0.05,-0.39,0.06,-0.12,0.0,196.02,202.0,0.0,0.0,0.0,0.0
1775763838210346563,88566,0.0,1.0,0.048,0.1,-0.04,-0.25,-8.19,-1.5,2.44,0.05,-0.06,-0.37,-0.0,-0.06,0.0,194.82,205.0,0.0,0.0,0.0,0.0
1775763838308700493,88667,0.0,1.1,0.032,0.2,-0.08,-0.16,-8.19,-1.5,2.44,0.07,-0.06,-0.39,0.06,0.06,0.06,195.85,203.0,0.0,0.0,0.0,0.0
1775763838411101624,88767,0.0,1.0,0.032,0.3,0.04,-0.14,-8.19,-1.5,2.44,0.06,-0.05,-0.39,-0.0,-0.0,-0.06,196.02,203.0,0.0,0.0,0.0,0.0
1775763838509471004,88867,0.0,0.9,0.012,0.3,-0.02,-0.04,-8.19,-1.5,2.44,0.07,-0.07,-0.39,-0.06,0.06,0.06,196.02,201.0,0.0,0.0,0.0,0.0
1775763838617810998,88967,0.0,1.1,0.004,0.3,0.12,-0.02,-8.19,-1.5,2.44,0.05,-0.05,-0.41,-0.0,-0.06,0.06,195.85,201.0,0.0,0.0,0.0,0.0
1775763838710213301,89067,0.0,1.1,0.004,0.3,-0.08,-0.12,-8.19,-1.5,2.44,0.05,-0.07,-0.39,-0.0,-0.0,0.06,195.85,201.0,0.0,0.0,0.0,0.0
1775763838808539166,89166,0.0,0.7,0.012,0.5,0.04,-0.21,-8.19,-1.5,2.44,0.05,-0.04,-0.4,-0.06,-0.06,0.0,195.85,200.0,0.0,0.0,0.0,0.0
1775763838910978940,89267,0.0,1.1,0.004,0.4,-0.1,-0.04,-8.19,-1.5,2.44,0.05,-0.06,-0.4,-0.0,-0.12,0.0,195.85,200.0,0.0,0.0,0.0,0.0
1775763839009311933,89368,0.0,0.9,0.004,0.5,0.0,-0.27,-8.19,-1.5,2.44,0.05,-0.03,-0.41,-0.12,0.12,0.0,196.02,203.0,0.0,0.0,0.0,0.0
1775763839117694618,89467,0.0,0.9,0.008,0.3,-0.08,-0.23,-8.19,-1.5,2.44,0.05,-0.06,-0.4,-0.0,0.06,0.0,196.02,203.0,0.0,0.0,0.0,0.0
1775763839210089704,89567,0.0,1.1,0.044,0.1,-0.23,-0.16,-8.19,-1.5,2.44,0.06,-0.05,-0.39,-0.12,0.06,0.0,196.02,203.0,0.0,0.0,0.0,0.0
1775763839312515565,89667,0.0,0.7,0.04,0.5,-0.08,-0.08,-8.19,-1.5,2.44,0.05,-0.06,-0.38,0.06,-0.0,0.12,196.02,199.0,0.0,0.0,0.0,0.0
1775763839410863308,89767,0.0,1.0,0.02,0.3,0.04,-0.1,-8.19,-1.5,2.44,0.06,-0.05,-0.42,0.12,-0.0,0.0,196.02,200.0,0.0,0.0,0.0,0.0
1775763839513253064,89868,0.0,1.0,0.004,0.4,0.0,-0.2,-8.19,-1.5,2.44,0.05,-0.04,-0.39,-0.06,0.06,0.0,196.02,200.0,0.0,0.0,0.0,0.0
1775763839611600455,89968,0.0,1.0,0.012,0.2,0.08,-0.04,-8.19,-1.5,2.44,0.04,-0.05,-0.39,-0.0,-0.0,0.06,196.02,200.0,0.0,0.0,0.0,0.0
1775763839709959146,90067,0.0,0.8,0.012,0.4,-0.2,-0.14,-8.19,-1.5,2.44,0.05,-0.05,-0.39,-0.0,-0.0,-0.12,196.02,203.0,0.0,0.0,0.0,0.0
1775763839812385914,90167,0.0,0.9,0.012,0.3,-0.06,-0.1,-8.19,-1.5,2.44,0.05,-0.05,-0.4,0.12,0.12,0.0,195.85,203.0,0.0,0.0,0.0,0.0
1775763839910715466,90267,0.0,0.8,0.008,0.6,0.06,-0.04,-8.19,-1.5,2.44,0.06,-0.06,-0.41,0.06,-0.12,0.0,195.85,205.0,0.0,0.0,0.0,0.0
1775763840009052814,90366,0.0,1.0,0.008,0.6,-0.02,-0.25,-8.19,-1.5,2.44,0.05,-0.05,-0.38,0.06,0.06,0.0,194.82,204.0,0.0,0.0,0.0,0.0
1775763840111482582,90466,0.0,0.9,0.004,0.3,-0.08,-0.14,-8.19,-1.5,2.44,0.05,-0.07,-0.38,-0.0,0.06,-0.06,196.02,204.0,0.0,0.0,0.0,0.0
1775763840209808426,90566,0.0,0.9,0.052,0.3,0.04,0.0,-8.19,-1.5,2.44,0.04,-0.06,-0.37,-0.06,-0.0,0.0,196.02,204.0,0.0,0.0,0.0,0.0
1775763840308139698,90665,0.0,0.7,0.04,0.5,-0.02,-0.2,-8.19,-1.5,2.44,0.05,-0.06,-0.39,-0.12,0.06,-0.06,196.02,204.0,0.0,0.0,0.0,0.0
1775763840410536122,90765,0.0,1.1,0.024,0.4,0.0,-0.12,-8.19,-1.5,2.44,0.05,-0.06,-0.41,-0.06,-0.12,0.0,196.02,201.0,0.0,0.0,0.0,0.0
1775763840508869320,90866,0.0,1.0,0.024,0.5,-0.08,-0.16,-8.19,-1.5,2.44,0.06,-0.06,-0.38,-0.06,0.06,-0.06,196.02,204.0,0.0,0.0,0.0,0.0
1775763840611330580,90966,0.0,1.3,0.012,0.2,0.08,-0.1,-8.19,-1.5,2.44,0.06,-0.05,-0.41,-0.06,-0.06,0.0,196.02,204.0,0.0,0.0,0.0,0.0
1775763840709674671,91067,0.0,0.7,0.004,0.2,-0.1,-0.1,-8.19,-1.5,2.44,0.06,-0.06,-0.4,0.06,-0.12,0.0,196.02,204.0,0.0,0.0,0.0,0.0
1775763840812129372,91166,0.0,1.1,0.0,0.2,0.14,-0.16,-8.19,-1.5,2.44,0.03,-0.04,-0.41,-0.0,-0.0,0.06,200.31,203.0,0.0,0.0,0.0,0.0
1775763840910432987,91266,0.0,1.1,0.0,0.2,-0.02,-0.2,-8.19,-1.5,2.44,0.04,-0.06,-0.4,-0.0,-0.0,0.0,196.02,203.0,0.0,0.0,0.0,0.0
1775763841012892243,91366,0.0,1.0,0.0,0.2,0.1,-0.14,-8.19,-1.5,2.44,0.04,-0.03,-0.41,0.12,0.25,0.0,196.02,203.0,0.0,0.0,0.0,0.0
1775763841111189979,91466,0.0,1.0,0.008,0.1,0.04,-0.16,-8.19,-1.5,2.44,0.04,-0.04,-0.38,-0.06,0.06,0.0,196.02,203.0,0.0,0.0,0.0,0.0
1775763841213626152,91567,0.0,1.0,0.052,0.5,0.02,-0.21,-8.19,-1.5,2.44,0.04,-0.05,-0.39,-0.06,-0.06,-0.12,196.02,204.0,0.0,0.0,0.0,0.0
1775763841311960362,91667,0.0,1.0,0.028,0.4,-0.2,-0.2,-8.19,-1.5,2.44,0.03,-0.05,-0.41,-0.06,-0.06,0.0,191.74,201.0,0.0,0.0,0.0,0.0
1775763841410289533,91766,0.0,1.1,0.024,0.3,-0.12,-0.14,-8.19,-1.5,2.44,0.04,-0.07,-0.37,-0.12,0.12,-0.06,191.74,201.0,0.0,0.0,0.0,0.0
1775763841512667410,91866,0.0,1.0,0.012,0.1,0.08,-0.06,-8.19,-1.5,2.44,0.05,-0.04,-0.39,-0.06,-0.0,-0.12,191.91,200.0,0.0,0.0,0.0,0.0
1775763841611005696,91966,0.0,0.8,0.016,0.4,-0.06,-0.21,-8.19,-1.5,2.44,0.05,-0.05,-0.4,-0.0,-0.12,-0.06,196.02,202.0,0.0,0.0,0.0,0.0
1775763841719422604,92066,0.0,1.0,0.016,0.6,0.02,-0.27,-8.19,-1.5,2.44,0.06,-0.05,-0.41,-0.0,0.06,0.06,191.74,202.0,0.0,0.0,0.0,0.0
1775763841811807940,92166,0.0,0.9,0.0,0.3,0.0,-0.06,-8.19,-1.5,2.44,0.05,-0.05,-0.42,-0.06,-0.12,0.0,191.74,200.0,0.0,0.0,0.0,0.0
1775763841910113567,92266,0.0,0.9,0.0,0.4,0.12,-0.2,-8.19,-1.5,2.44,0.04,-0.05,-0.39,-0.06,0.12,0.06,196.02,204.0,0.0,0.0,0.0,0.0
1775763842012555869,92365,0.0,1.1,0.004,0.3,-0.12,-0.04,-8.19,-1.5,2.44,0.06,-0.05,-0.38,-0.12,0.12,-0.19,190.71,204.0,0.0,0.0,0.0,0.0
1775763842110883840,92466,0.0,0.9,0.0,0.5,-0.04,-0.16,-8.19,-1.5,2.44,0.04,-0.07,-0.39,-0.06,-0.12,0.0,196.02,202.0,0.0,0.0,0.0,0.0
1775763842213300961,92567,0.0,1.0,0.04,0.4,-0.06,-0.16,-8.19,-1.5,2.44,0.04,-0.06,-0.39,-0.06,-0.06,0.06,195.0,199.0,0.0,0.0,0.0,0.0
1775763842311635879,92666,0.0,0.7,0.04,0.5,0.04,-0.14,-8.19,-1.5,2.44,0.05,-0.04,-0.4,-0.12,-0.06,0.0,196.02,199.0,0.0,0.0,0.0,0.0
1775763842414067412,92766,0.0,1.1,0.036,1.6,0.02,-0.1,-8.19,-1.5,2.44,0.04,-0.05,-0.38,0.12,0.06,-0.06,196.02,204.0,0.0,0.0,0.0,0.0
1775763842512344201,92867,0.0,1.6,0.012,0.6,-0.02,-0.18,-8.19,-1.5,2.44,0.05,-0.04,-0.36,-0.06,0.06,0.0,196.02,204.0,0.0,0.0,0.0,0.0
1775763842610659891,92966,0.0,1.4,0.028,0.5,0.1,-0.18,-8.19,-1.5,2.44,0.05,-0.07,-0.4,-0.0,-0.0,0.06,196.02,200.0,0.0,0.0,0.0,0.0
1775763842713140605,93067,0.0,0.9,0.016,0.0,-0.08,-0.12,-8.19,-1.5,2.44,0.04,-0.04,-0.38,0.06,-0.12,0.0,200.14,204.0,0.0,0.0,0.0,0.0
1775763842815579732,93168,0.0,1.0,0.004,0.3,-0.1,-0.16,-8.19,-1.5,2.44,0.03,-0.06,-0.38,-0.0,0.12,0.0,196.02,204.0,0.0,0.0,0.0,0.0
1775763842913909092,93267,0.0,0.9,0.004,0.2,-0.02,-0.12,-8.19,-1.5,2.44,0.07,-0.05,-0.38,0.12,0.12,-0.06,196.02,205.0,0.0,0.0,0.0,0.0
