timestamp_ns,time_ms,voltage_left,current_left_ma,voltage_right,current_right_ma,motor_current_left,motor_current_right,euler_x,euler_y,euler_z,acc_lin_x,acc_lin_y,acc_lin_z,gyro_x,gyro_y,gyro_z,sonar_mm,tof_mm,rpm_left,rpm_right,rotations_left,rotations_right
1776450395885293966,135736,0.0,0.0,1.7,-0.04,-0.06,2.5,-2.94,-2.81,-0.01,-0.36,0.03,-0.06,0.06,0.12,165.84,226.0,0.0,0.0,0.0,0.0,0.0
1776450396784932504,382630,0.088,0.3,0.0,1.7,-0.04,-0.06,-2.5,-2.94,2.81,-0.03,0.01,-0.36,0.06,0.06,-0.12,165.84,226.0,0.0,0.0,0.0,0.0
1776450398699574266,382630,0.088,0.3,0.0,1.7,-0.04,-0.06,-2.5,-2.94,2.81,-0.03,0.01,-0.36,0.06,0.06,-0.12,165.84,226.0,0.0,0.0,0.0,
1776450398791863132,1904,0.088,0.1,0.0,1.1,0.06,-0.2,0.06,-2.88,3.19,0.0,0.01,-0.37,-0.0,0.12,-0.06,165.84,190.0,0.0,0.0,0.0,0.0
1776450398894264670,2004,0.092,0.0,0.0,1.2,0.02,-0.04,0.06,-2.88,3.19,0.01,-0.0,-0.35,0.25,-0.0,-0.12,167.04,203.0,0.0,0.0,0.0,0.0
1776450398992531094,2105,0.1,0.1,0.072,0.4,-0.08,-0.16,0.06,-2.88,3.19,0.0,0.03,-0.34,0.12,-0.06,0.0,166.01,203.0,0.0,0.0,0.0,0.0
1776450399094944465,2206,0.0,0.1,0.0,1.3,0.04,-0.04,0.06,-2.88,3.19,0.0,0.01,-0.36,0.06,-0.06,0.12,165.84,200.0,0.0,0.0,0.0,0.0
1776450399193259630,2306,0.084,0.0,0.0,1.5,0.1,0.02,0.06,-2.88,3.19,0.02,0.02,-0.37,-0.0,-0.12,-0.12,165.84,212.0,0.0,0.0,0.0,0.0
1776450399295660020,2406,0.0,1.3,0.06,0.3,-0.02,-0.04,0.06,-2.88,3.19,0.01,-0.0,-0.35,0.06,-0.12,0.06,166.01,212.0,0.0,0.0,0.0,0.0
1776450399393958055,2506,0.0,0.0,0.0,1.3,-0.04,-0.18,0.06,-2.88,3.19,0.0,0.02,-0.36,-0.06,-0.0,0.06,165.84,173.0,0.0,0.0,0.0,0.0
1776450399496358037,2606,0.092,0.2,0.064,0.3,-0.06,-0.02,0.06,-2.88,3.19,0.0,0.01,-0.36,-0.06,0.06,-0.06,165.84,206.0,0.0,0.0,0.0,0.0
1776450399594658869,2706,0.0,0.6,0.06,0.3,-0.06,-0.12,0.06,-2.88,3.19,0.01,0.01,-0.34,-0.06,-0.0,0.0,166.53,206.0,0.0,0.0,0.0,0.0
1776450399697058036,2807,0.0,0.7,0.06,0.3,-0.21,0.0,0.06,-2.88,3.19,0.0,0.01,-0.37,-0.0,-0.0,0.12,165.84,198.0,0.0,0.0,0.0,0.0
1776450399795288683,2908,0.0,0.6,0.06,0.3,-0.08,-0.02,0.06,-2.88,3.19,0.02,-0.0,-0.38,0.06,-0.0,0.0,165.84,213.0,0.0,0.0,0.0,0.0
1776450399897750498,3008,0.0,0.6,0.064,0.5,0.02,-0.14,0.06,-2.88,3.19,0.0,-0.0,-0.36,-0.0,-0.0,0.0,166.01,213.0,0.0,0.0,0.0,0.0
1776450399996058608,3107,0.092,0.2,0.0,1.5,0.06,0.02,0.06,-2.88,3.19,0.0,0.01,-0.37,-0.12,0.06,0.0,165.84,196.0,0.0,0.0,0.0,0.0
1776450400098451275,3208,0.096,0.0,0.0,1.3,0.04,-0.14,0.06,-2.88,3.19,0.01,0.03,-0.37,-0.06,-0.19,0.0,165.84,196.0,0.0,0.0,0.0,0.0
1776450400196753365,3308,0.0,1.4,0.0,1.0,-0.06,-0.08,0.06,-2.88,3.19,0.0,0.01,-0.37,-0.06,-0.06,0.0,165.84,210.0,0.0,0.0,0.0,0.0
1776450400295017493,3407,0.0,0.9,0.072,0.1,-0.08,0.0,0.06,-2.88,3.19,0.0,0.01,-0.34,0.12,-0.06,0.06,165.84,193.0,0.0,0.0,0.0,0.0
1776450400397442142,3507,0.0,0.6,0.06,0.3,0.0,0.08,0.06,-2.88,3.19,0.0,0.02,-0.36,0.06,0.06,0.0,165.84,193.0,0.0,0.0,0.0,0.0
1776450400495750677,3607,0.0,1.0,0.0,1.6,0.06,0.04,0.06,-2.88,3.19,0.0,0.02,-0.38,-0.12,-0.0,0.06,165.84,179.0,0.0,0.0,0.0,0.0
1776450400598125103,3707,0.096,0.4,0.0,0.8,0.1,0.06,0.06,-2.88,3.19,0.0,0.01,-0.36,0.12,0.06,-0.06,165.84,195.0,0.0,0.0,0.0,0.0
1776450400696426435,3808,0.0,1.4,0.064,0.6,0.08,0.04,0.06,-2.88,3.19,0.03,0.01,-0.39,0.06,-0.06,0.0,165.84,195.0,0.0,0.0,0.0,0.0
1776450400798835546,3908,0.0,0.3,0.0,1.1,-0.18,-0.08,0.06,-2.88,3.19,0.0,-0.0,-0.37,0.06,-0.0,0.12,165.84,207.0,0.0,0.0,0.0,0.0
1776450400897138767,4008,0.0,0.6,0.0,1.7,0.0,-0.14,0.06,-2.88,3.19,0.0,-0.0,-0.36,-0.06,-0.0,-0.06,166.87,193.0,0.0,0.0,0.0,0.0
1776450400999546841,4109,0.092,0.1,0.0,1.5,0.08,-0.12,0.06,-2.88,3.19,0.01,0.02,-0.37,0.06,-0.19,-0.06,165.84,193.0,0.0,0.0,0.0,0.0
1776450401097825191,4209,0.096,0.0,0.0,0.4,0.04,-0.04,0.06,-2.88,3.19,0.02,0.03,-0.33,0.06,-0.0,0.0,166.01,234.0,0.0,0.0,0.0,0.0
1776450401200231098,4310,0.0,1.2,0.068,0.0,-0.02,-0.06,0.06,-2.88,3.19,0.0,0.01,-0.36,0.06,0.06,-0.06,165.84,234.0,0.0,0.0,0.0,0.0
1776450401298533707,4410,0.0,1.6,0.06,0.1,0.02,-0.02,0.06,-2.88,3.19,0.0,0.01,-0.34,-0.0,-0.06,0.06,165.84,193.0,0.0,0.0,0.0,0.0
1776450401400924004,4509,0.0,1.2,0.064,0.5,0.08,-0.16,0.06,-2.88,3.19,0.0,0.02,-0.36,-0.0,-0.0,0.06,166.01,198.0,0.0,0.0,0.0,0.0
1776450401499224187,4609,0.0,1.2,0.052,0.4,-0.16,-0.12,0.06,-2.88,3.19,0.01,0.03,-0.36,0.06,-0.06,0.06,165.84,198.0,0.0,0.0,0.0,0.0
1776450401601595335,4710,0.0,1.1,0.0,0.9,-0.1,-0.02,0.06,-2.88,3.19,0.01,0.02,-0.34,-0.0,-0.0,0.0,165.84,218.0,0.0,0.0,0.0,0.0
1776450401699879092,4809,0.0,0.6,0.0,1.4,-0.12,0.0,0.06,-2.88,3.19,0.0,0.01,-0.35,-0.0,-0.12,0.0,166.01,209.0,0.0,0.0,0.0,0.0
1776450401798189164,4909,0.0,1.4,0.068,0.2,0.12,-0.06,0.06,-2.88,3.19,0.02,0.01,-0.36,-0.06,0.12,0.12,166.87,209.0,0.0,0.0,0.0,0.0
1776450402044215576,5010,0.092,0.0,0.0,1.2,-0.04,-0.08,0.06,-2.88,3.19,0.0,0.02,-0.37,-0.06,-0.0,0.0,165.84,210.0,0.0,0.0,0.0,0.0
1776450402101343847,5109,0.096,0.1,0.0,0.5,-0.06,-0.1,0.06,-2.88,3.19,0.0,-0.0,-0.35,0.12,-0.12,0.12,165.84,186.0,0.0,0.0,0.0,0.0
1776450402113987725,5209,0.0,0.3,0.0,0.3,-0.23,-0.04,0.06,-2.88,3.19,0.03,0.03,-0.37,0.06,-0.06,0.12,166.87,186.0,0.0,0.0,0.0,0.0
1776450402199587641,5310,0.0,1.0,0.056,0.5,0.0,-0.14,0.06,-2.88,3.19,0.0,0.02,-0.38,-0.12,-0.06,-0.12,165.84,200.0,0.0,0.0,0.0,0.0
1776450402308007996,5409,0.0,-0.1,0.0,1.5,0.16,-0.08,0.06,-2.88,3.19,0.0,0.01,-0.36,0.12,-0.06,-0.06,166.53,200.0,0.0,0.0,0.0,0.0
1776450402400316935,5509,0.096,0.2,0.0,1.7,0.04,-0.08,0.06,-2.88,3.19,0.0,0.02,-0.37,-0.0,-0.06,-0.19,166.53,200.0,0.0,0.0,0.0,0.0
1776450402498634137,5609,0.0,1.3,0.0,1.1,0.04,-0.06,0.06,-2.88,3.19,0.0,0.01,-0.36,-0.0,-0.06,0.0,166.53,204.0,0.0,0.0,0.0,0.0
1776450402600986785,5708,0.0,1.1,0.064,0.7,-0.06,0.0,0.06,-2.88,3.19,0.0,0.01,-0.34,0.06,-0.12,0.0,166.53,204.0,0.0,0.0,0.0,0.0
1776450402699288486,5808,0.096,0.0,0.064,0.3,0.0,-0.08,0.06,-2.88,3.19,0.0,0.02,-0.37,-0.06,0.12,-0.12,166.53,166.0,0.0,0.0,0.0,0.0
1776450402797617095,5908,0.0,1.0,0.064,0.3,0.14,-0.06,0.06,-2.88,3.19,0.01,0.01,-0.36,-0.06,-0.0,0.06,166.36,199.0,0.0,0.0,0.0,0.0
1776450402900016632,6007,0.084,0.3,0.0,1.1,0.06,-0.18,0.06,-2.88,3.19,0.0,-0.0,-0.37,0.12,0.06,0.0,162.24,199.0,0.0,0.0,0.0,0.0
1776450402998352259,6107,0.0,1.1,0.064,0.6,0.14,0.02,0.06,-2.88,3.19,0.0,0.02,-0.34,0.06,-0.0,0.06,162.24,183.0,0.0,0.0,0.0,0.0
1776450403100709481,6208,0.0,0.9,0.06,0.6,0.0,-0.02,0.06,-2.88,3.19,0.02,0.01,-0.36,0.06,-0.19,0.06,166.53,205.0,0.0,0.0,0.0,0.0
1776450403199019349,6307,0.0,0.4,0.0,1.4,-0.1,-0.12,0.06,-2.88,3.19,0.0,-0.0,-0.38,0.06,-0.06,0.12,166.53,205.0,0.0,0.0,0.0,0.0
1776450403297295698,6407,0.092,0.4,0.0,0.5,0.0,-0.04,0.06,-2.88,3.19,0.01,0.02,-0.37,0.19,-0.06,0.0,166.53,207.0,0.0,0.0,0.0,0.0
1776450403399744383,6507,0.0,1.3,0.0,0.2,0.12,0.1,0.06,-2.88,3.19,0.02,0.02,-0.35,-0.0,-0.12,0.06,166.53,207.0,0.0,0.0,0.0,0.0
1776450403498003991,6606,0.0,0.6,0.06,0.1,-0.02,-0.12,0.06,-2.88,3.19,0.0,0.02,-0.38,-0.0,0.19,0.0,166.53,192.0,0.0,0.0,0.0,0.0
1776450403600402565,6707,0.0,0.1,0.0,1.5,-0.12,-0.02,0.06,-2.88,3.19,0.0,0.01,-0.36,-0.0,-0.0,0.0,166.53,235.0,0.0,0.0,0.0,0.0
1776450403698681544,6807,0.0,1.5,0.064,0.2,0.08,-0.02,0.06,-2.88,3.19,0.0,0.02,-0.37,0.06,0.06,0.0,166.36,235.0,0.0,0.0,0.0,0.0
1776450403796999097,6906,0.0,1.4,0.072,0.2,0.08,-0.08,0.06,-2.88,3.19,0.02,0.02,-0.36,0.12,-0.12,0.0,166.36,195.0,0.0,0.0,0.0,0.0
1776450403899385523,7006,0.0,1.4,0.0,1.2,0.08,-0.12,0.06,-2.88,3.19,-0.01,0.02,-0.36,-0.0,-0.06,0.0,166.53,188.0,0.0,0.0,0.0,0.0
1776450403997707835,7107,0.096,0.3,0.0,1.2,-0.08,0.1,0.06,-2.88,3.19,0.0,0.03,-0.34,-0.12,-0.0,0.06,166.53,188.0,0.0,0.0,0.0,0.0
1776450404095997166,7206,0.1,0.2,0.0,1.1,0.0,0.04,0.06,-2.88,3.19,0.01,0.02,-0.36,0.12,-0.12,-0.06,166.53,185.0,0.0,0.0,0.0,0.0
1776450404198403758,7306,0.092,0.1,0.0,0.3,0.14,-0.16,0.06,-2.88,3.19,0.02,0.03,-0.37,-0.06,-0.0,-0.12,166.53,205.0,0.0,0.0,0.0,0.0
1776450404296675070,7406,0.0,0.8,0.06,0.4,-0.02,-0.16,0.06,-2.88,3.19,0.01,0.02,-0.34,-0.06,-0.12,0.06,167.56,205.0,0.0,0.0,0.0,0.0
1776450404399090773,7506,0.0,1.0,0.068,0.3,0.0,-0.04,0.06,-2.88,3.19,0.0,-0.0,-0.36,0.12,-0.12,-0.19,165.84,189.0,0.0,0.0,0.0,0.0
1776450404497363492,7606,0.0,0.7,0.072,0.3,0.04,-0.1,0.06,-2.88,3.19,0.03,0.02,-0.37,-0.0,0.06,-0.12,165.84,189.0,0.0,0.0,0.0,0.0
1776450404599753992,7706,0.0,1.5,0.088,1.1,-0.08,0.02,0.06,-2.88,3.19,0.02,0.02,-0.4,-0.0,-0.0,0.06,165.84,201.0,0.0,0.0,0.0,0.0
1776450404698091674,7805,0.088,0.3,0.0,1.1,0.14,-0.04,0.06,-2.88,3.19,0.0,0.03,-0.37,0.06,-0.12,0.0,165.84,194.0,0.0,0.0,0.0,0.0
1776450404800492359,7906,0.092,0.2,0.0,1.0,-0.1,0.02,0.06,-2.88,3.19,0.01,0.02,-0.37,-0.06,-0.12,0.0,165.84,194.0,0.0,0.0,0.0,0.0
1776450404898788986,8006,0.088,0.6,0.0,1.5,-0.12,-0.06,0.06,-2.88,3.19,0.01,0.02,-0.33,-0.0,0.06,-0.06,165.84,183.0,0.0,0.0,0.0,0.0
1776450404997093038,8105,0.088,0.2,0.0,1.5,-0.16,0.02,0.06,-2.88,3.19,0.0,0.02,-0.37,-0.06,-0.06,-0.06,165.84,192.0,0.0,0.0,0.0,0.0
1776450405099489297,8205,0.0,1.4,0.0,0.6,0.04,-0.1,0.06,-2.88,3.19,0.0,0.02,-0.37,-0.12,-0.06,-0.06,165.33,192.0,0.0,0.0,0.0,0.0
1776450405197799479,8305,0.0,1.0,0.04,0.6,0.04,-0.02,0.06,-2.88,3.19,0.02,-0.0,-0.37,0.06,-0.0,0.06,165.84,177.0,0.0,0.0,0.0,0.0
1776450405296088365,8404,0.0,0.7,0.0,1.4,0.14,-0.02,0.06,-2.88,3.19,0.01,0.03,-0.38,0.12,-0.12,-0.06,165.84,202.0,0.0,0.0,0.0,0.0
1776450405398462142,8504,0.0,1.2,0.064,0.3,0.0,-0.23,0.06,-2.88,3.19,0.01,-0.0,-0.36,-0.06,-0.0,-0.06,161.72,202.0,0.0,0.0,0.0,0.0
1776450405496753991,8604,0.0,1.4,0.068,0.4,0.0,-0.08,0.06,-2.88,3.19,0.03,-0.0,-0.37,-0.0,0.06,0.12,165.84,204.0,0.0,0.0,0.0,0.0
1776450405599154360,8705,0.0,1.2,0.0,1.2,-0.08,-0.2,0.06,-2.88,3.19,0.01,0.01,-0.34,-0.0,-0.06,0.0,165.15,204.0,0.0,0.0,0.0,0.0
1776450405697510376,8805,0.092,0.3,0.0,1.4,-0.1,-0.06,0.06,-2.88,3.19,0.0,0.01,-0.37,-0.06,0.12,-0.06,165.33,196.0,0.0,0.0,0.0,0.0
1776450405795766854,8904,0.0,0.6,0.072,0.2,0.06,-0.08,0.06,-2.88,3.19,-0.01,0.02,-0.37,-0.0,0.06,0.06,166.36,192.0,0.0,0.0,0.0,0.0
1776450405898187594,9005,0.096,0.1,0.0,0.2,0.14,-0.21,0.06,-2.88,3.19,0.01,0.02,-0.37,-0.06,-0.06,-0.06,165.33,192.0,0.0,0.0,0.0,0.0
1776450405996443832,9105,0.0,0.9,0.076,0.5,0.02,0.0,0.06,-2.88,3.19,0.0,-0.0,-0.35,-0.0,-0.06,0.0,165.15,214.0,0.0,0.0,0.0,0.0
1776450406098893775,9205,0.0,0.7,0.056,0.5,-0.1,-0.14,0.06,-2.88,3.19,0.01,0.02,-0.38,0.12,0.06,0.06,165.33,205.0,0.0,0.0,0.0,0.0
1776450406388213578,9305,0.0,0.9,0.056,0.2,0.1,-0.08,0.06,-2.88,3.19,0.0,-0.0,-0.34,0.06,0.06,0.0,165.84,205.0,0.0,0.0,0.0,0.0
1776450406397897083,9405,0.0,1.0,0.068,0.3,0.0,-0.06,0.06,-2.88,3.19,0.0,0.01,-0.34,0.06,0.06,0.0,165.84,210.0,0.0,0.0,0.0,0.0
1776450406406251587,9504,0.0,0.6,0.0,1.4,0.1,-0.06,0.06,-2.88,3.19,0.01,0.01,-0.34,-0.12,0.06,0.06,165.84,210.0,0.0,0.0,0.0,0.0
1776450406500281341,9605,0.0,1.4,0.064,0.5,-0.04,-0.06,0.06,-2.88,3.19,0.0,0.01,-0.37,-0.12,0.12,0.0,165.84,210.0,0.0,0.0,0.0,0.0
1776450406598529338,9706,0.0,0.1,0.0,1.1,0.0,-0.06,0.06,-2.88,3.19,0.01,0.03,-0.35,-0.0,-0.0,0.06,165.84,192.0,0.0,0.0,0.0,0.0
1776450406696893464,9805,0.0,1.1,0.06,0.1,-0.18,-0.16,0.06,-2.88,3.19,0.0,0.02,-0.38,-0.12,0.12,0.0,165.15,192.0,0.0,0.0,0.0,0.0
1776450406799256278,9905,0.0,0.6,0.0,1.5,0.0,0.02,0.06,-2.88,3.19,0.0,0.04,-0.38,0.12,-0.19,-0.12,165.15,201.0,0.0,0.0,0.0,0.0
1776450406897580756,10005,0.088,0.2,0.068,0.5,-0.08,-0.08,0.06,-2.88,3.19,0.01,-0.0,-0.38,0.06,-0.12,0.06,165.15,209.0,0.0,0.0,0.0,0.0
1776450406995841809,10104,0.0,0.7,0.068,0.2,0.06,-0.12,0.06,-2.88,3.19,0.01,0.03,-0.38,0.19,-0.0,-0.06,165.33,209.0,0.0,0.0,0.0,0.0
1776450407098271900,10204,0.0,1.1,0.068,0.4,-0.12,-0.12,0.06,-2.88,3.19,0.01,0.04,-0.37,0.06,0.12,0.0,165.33,201.0,0.0,0.0,0.0,0.0
1776450407196555359,10304,0.088,0.2,0.0,1.4,-0.12,0.06,0.06,-2.88,3.19,0.0,0.02,-0.37,0.06,0.06,0.12,165.33,189.0,0.0,0.0,0.0,0.0
1776450407298978673,10404,0.0,1.4,0.064,0.7,0.0,0.0,0.06,-2.88,3.19,0.0,0.02,-0.37,-0.12,0.06,0.06,165.84,189.0,0.0,0.0,0.0,0.0
1776450407397265355,10504,0.0,1.1,0.068,0.7,-0.06,0.12,0.06,-2.88,3.19,0.0,0.02,-0.37,-0.06,0.12,-0.06,165.15,193.0,0.0,0.0,0.0,0.0
1776450407499641594,10604,0.0,1.5,0.068,1.0,-0.06,-0.02,0.06,-2.88,3.19,0.0,0.02,-0.37,-0.06,-0.0,0.06,165.84,186.0,0.0,0.0,0.0,0.0
1776450407598012035,10704,0.0,1.0,0.06,0.6,-0.04,-0.08,0.06,-2.88,3.19,0.0,0.03,-0.37,-0.0,0.12,0.19,161.72,186.0,0.0,0.0,0.0,0.0
1776450407876218220,10804,0.0,0.9,0.068,0.1,-0.04,-0.12,0.06,-2.88,3.19,0.01,0.02,-0.37,0.06,0.06,0.06,165.33,206.0,0.0,0.0,0.0,0.0
1776450407896968101,10904,0.0,0.1,0.0,1.6,0.08,-0.04,0.06,-2.88,3.19,0.01,-0.0,-0.37,-0.0,-0.19,0.06,165.84,206.0,0.0,0.0,0.0,0.0
1776450407910498460,11003,0.088,0.2,0.0,1.4,0.06,-0.1,0.06,-2.88,3.19,0.0,0.02,-0.4,-0.06,-0.12,-0.12,165.84,199.0,0.0,0.0,0.0,0.0
1776450407999358452,11104,0.088,0.3,0.0,1.4,0.02,-0.16,0.06,-2.88,3.19,0.0,-0.0,-0.39,0.06,-0.06,0.0,165.84,196.0,0.0,0.0,0.0,0.0
1776450408097662615,11204,0.092,0.2,0.0,1.4,-0.1,-0.1,0.06,-2.88,3.19,0.0,0.02,-0.39,-0.0,0.06,0.0,165.84,196.0,0.0,0.0,0.0,0.0
1776450408195955519,11303,0.092,0.2,0.0,1.4,-0.04,-0.1,0.06,-2.88,3.19,0.0,0.04,-0.36,0.12,-0.0,-0.06,161.72,197.0,0.0,0.0,0.0,0.0
1776450408298360536,11403,0.092,0.0,0.0,1.5,0.12,-0.12,0.06,-2.88,3.19,0.0,0.02,-0.4,0.12,0.12,0.06,161.72,182.0,0.0,0.0,0.0,0.0
1776450408396682384,11503,0.088,0.2,0.0,1.5,0.02,-0.1,0.06,-2.88,3.19,0.0,0.02,-0.38,0.12,-0.0,0.06,161.72,182.0,0.0,0.0,0.0,0.0
1776450408499001327,11602,0.092,0.3,0.0,1.2,0.06,0.0,0.06,-2.88,3.19,0.03,-0.0,-0.4,-0.25,0.31,0.12,165.33,192.0,0.0,0.0,0.0,0.0
1776450408597330657,11702,0.0,1.5,0.068,0.1,-0.1,-0.02,0.06,-2.94,3.19,-0.03,-0.0,-0.23,0.19,0.56,0.19,165.15,195.0,0.0,0.0,0.0,0.0
1776450408695628653,11803,0.0,0.7,0.0,1.1,0.02,-0.06,0.06,-2.94,3.19,0.13,0.07,-0.44,-0.44,-0.06,1.69,165.15,195.0,0.0,0.0,0.0,0.0
1776450408798061781,11902,0.084,0.2,0.0,1.2,0.0,-0.12,0.5,-2.88,3.0,0.38,0.14,-0.42,-0.81,0.06,6.88,165.33,199.0,0.0,0.0,0.0,0.0
1776450408896359704,12002,0.084,0.1,0.0,1.5,0.0,-0.02,1.25,-2.75,2.94,-0.01,-0.03,-0.33,-1.0,0.06,8.63,165.15,199.0,0.0,0.0,0.0,0.0
1776450408998750406,12102,0.092,0.1,0.0,1.3,0.0,0.06,2.06,-2.75,2.88,0.05,0.01,-0.33,-1.69,-0.12,8.63,165.33,201.0,0.0,0.0,0.0,0.0
1776450409300214879,12201,0.092,0.2,0.0,0.9,-0.1,-0.18,3.0,-2.69,2.75,0.1,0.03,-0.35,-1.06,0.31,10.13,165.15,181.0,0.0,0.0,0.0,0.0
1776450409313112256,12302,0.0,0.9,0.06,0.5,0.06,-0.1,4.06,-2.63,2.63,0.07,0.05,-0.37,-1.25,0.06,11.0,165.33,181.0,0.0,0.0,0.0,0.0
1776450409325571707,12402,0.088,0.3,0.0,1.5,-0.02,-0.08,5.13,-2.56,2.56,0.07,0.01,-0.32,-1.37,-0.37,11.19,165.33,166.0,0.0,0.0,0.0,0.0
1776450409396004633,12502,0.088,0.1,0.0,1.5,0.02,0.0,6.19,-2.56,2.5,-0.02,-0.0,-0.32,-1.12,-0.06,10.75,161.21,208.0,0.0,0.0,0.0,0.0
1776450409498433965,12602,0.0,1.5,0.06,0.6,-0.06,-0.18,7.13,-2.5,2.56,-0.24,-0.04,-0.39,-1.0,0.19,8.06,165.15,208.0,0.0,0.0,0.0,0.0
1776450409596723221,12702,0.0,1.2,0.0,0.7,0.02,-0.02,7.81,-2.5,2.56,-0.13,-0.0,-0.38,-1.06,-0.06,5.94,165.15,218.0,0.0,0.0,0.0,0.0
1776450409699156941,12802,0.0,0.9,0.0,1.5,0.02,-0.21,8.38,-2.5,2.5,-0.13,0.01,-0.36,-0.12,-0.06,4.88,161.21,195.0,0.0,0.0,0.0,0.0
1776450409797419104,12903,0.088,0.0,0.0,1.5,0.08,-0.08,8.81,-2.5,2.5,-0.08,0.03,-0.38,-0.19,-0.0,4.31,165.15,195.0,0.0,0.0,0.0,0.0
1776450409899856176,13003,0.096,0.2,0.0,0.1,-0.02,0.16,9.19,-2.5,2.56,-0.17,-0.04,-0.37,-0.44,0.06,3.0,165.15,201.0,0.0,0.0,0.0,0.0
1776450410316215006,13104,0.0,1.1,0.052,0.7,0.02,-0.02,9.44,-2.44,2.56,0.08,0.03,-0.36,-1.19,-0.37,2.38,168.76,201.0,0.0,0.0,0.0,0.0
1776450410328903031,13204,0.0,1.3,0.064,0.3,-0.16,0.02,9.69,-2.44,2.31,0.18,0.05,-0.33,0.12,-0.25,2.94,165.15,193.0,0.0,0.0,0.0,0.0
1776450410341532075,13304,0.092,0.0,0.0,1.2,0.12,-0.04,9.94,-2.38,2.31,-0.18,-0.01,-0.35,0.5,0.06,2.25,164.81,208.0,0.0,0.0,0.0,0.0
1776450410399556327,13404,0.088,0.3,0.0,1.1,-0.06,-0.04,10.13,-2.38,2.38,-0.13,-0.01,-0.34,-0.5,-0.25,1.5,164.81,208.0,0.0,0.0,0.0,0.0
1776450410407925443,13504,0.0,0.9,0.06,0.2,0.08,0.12,10.25,-2.38,2.19,0.29,0.03,-0.35,-1.44,-0.75,1.06,165.15,193.0,0.0,0.0,0.0,0.0
1776450410497768657,13603,0.0,0.7,0.06,0.3,0.0,-0.06,10.31,-2.31,2.06,0.23,-0.0,-0.33,-0.94,-0.37,0.31,164.64,200.0,0.0,0.0,0.0,0.0
1776450410600269562,13704,0.0,0.4,0.0,1.4,0.04,-0.06,10.31,-2.31,1.94,0.06,0.06,-0.36,0.5,-0.19,-0.31,164.64,200.0,0.0,0.0,0.0,0.0
1776450410698534003,13804,0.096,0.1,0.0,1.5,0.1,-0.02,10.19,-2.31,1.94,-0.04,0.02,-0.36,-0.06,-0.19,-1.19,165.15,188.0,0.0,0.0,0.0,0.0
1776450410800941186,13903,0.096,0.0,0.0,1.1,-0.12,-0.08,10.13,-2.31,2.06,-0.3,0.04,-0.33,0.31,-0.0,-0.5,165.33,202.0,0.0,0.0,0.0,0.0
1776450410899244830,14003,0.096,0.2,0.06,0.5,0.1,-0.04,10.13,-2.31,2.06,-0.1,0.03,-0.37,-0.5,-0.69,0.0,165.33,202.0,0.0,0.0,0.0,0.0
1776450411001632624,14103,0.0,1.2,0.0,1.1,-0.12,-0.27,10.13,-2.31,2.06,0.01,0.02,-0.35,-1.0,-0.31,-0.19,162.24,209.0,0.0,0.0,0.0,0.0
1776450411099930565,14203,0.0,0.1,0.06,0.2,-0.04,-0.04,10.13,-2.31,2.06,0.03,0.05,-0.34,-0.81,-0.37,-0.25,165.15,209.0,0.0,0.0,0.0,0.0
1776450411202332562,14304,0.092,0.4,0.0,1.8,0.04,-0.04,10.13,-2.31,2.0,-0.06,0.08,-0.33,0.75,-0.0,-0.12,161.04,196.0,0.0,0.0,0.0,0.0
1776450411300630632,14405,0.096,0.1,0.0,1.5,-0.02,-0.02,10.13,-2.31,2.0,0.02,0.06,-0.37,0.25,-0.0,0.37,165.33,191.0,0.0,0.0,0.0,0.0
1776450411403038852,14504,0.084,0.2,0.06,0.3,0.1,-0.2,10.13,-2.31,2.0,0.17,0.01,-0.36,-1.19,-0.56,0.63,165.33,191.0,0.0,0.0,0.0,0.0
1776450411501317848,14604,0.0,1.4,0.072,0.3,0.04,-0.14,10.25,-2.25,1.94,0.1,0.09,-0.35,0.56,-0.12,1.12,161.21,207.0,0.0,0.0,0.0,0.0
1776450411599592048,14704,0.0,1.3,0.072,0.5,-0.02,0.04,10.38,-2.25,1.94,0.07,0.07,-0.35,0.31,0.31,2.13,161.04,206.0,0.0,0.0,0.0,0.0
1776450411702031749,14803,0.0,0.2,0.0,0.9,0.14,0.02,10.69,-2.25,1.94,0.05,0.08,-0.42,0.44,0.63,3.25,165.33,206.0,0.0,0.0,0.0,0.0
1776450411800329004,14904,0.088,0.2,0.0,1.2,-0.02,-0.12,11.0,-2.31,2.0,0.08,0.01,-0.35,-1.06,0.81,3.13,165.15,187.0,0.0,0.0,0.0,0.0
1776450411902720076,15004,0.0,0.6,0.0,1.2,-0.02,-0.02,11.31,-2.25,1.94,0.09,0.06,-0.4,0.69,0.44,3.19,165.33,199.0,0.0,0.0,0.0,0.0
1776450412001030998,15105,0.0,1.3,0.0,1.3,-0.06,0.0,11.56,-2.31,2.06,-0.11,0.01,-0.35,0.69,0.88,2.5,165.33,199.0,0.0,0.0,0.0,0.0
1776450412103431996,15205,0.088,0.1,0.0,1.2,-0.06,-0.06,11.75,-2.38,2.19,-0.18,-0.0,-0.31,-0.0,0.31,1.37,165.15,188.0,0.0,0.0,0.0,0.0
1776450412201717565,15305,0.092,0.3,0.0,1.2,-0.14,-0.1,11.81,-2.38,2.25,-0.18,0.01,-0.4,1.75,0.12,0.19,165.15,188.0,0.0,0.0,0.0,0.0
1776450412304115322,15405,0.096,0.1,0.0,1.5,0.16,-0.02,11.75,-2.38,2.63,-0.28,-0.0,-0.36,0.19,-0.0,-1.0,168.76,191.0,0.0,0.0,0.0,0.0
1776450412402429133,15505,0.092,0.2,0.0,0.3,0.0,0.04,11.69,-2.38,2.81,-0.25,-0.0,-0.35,0.31,0.06,-0.75,165.33,181.0,0.0,0.0,0.0,0.0
1776450412504788427,15605,0.0,1.3,0.064,0.3,-0.1,-0.06,11.63,-2.38,2.81,0.06,0.02,-0.35,-1.25,-0.44,-0.69,165.33,181.0,0.0,0.0,0.0,0.0
1776450412603085848,15706,0.0,1.4,0.06,1.2,0.0,0.1,11.56,-2.38,2.69,0.27,0.04,-0.33,-0.88,-0.37,-0.88,165.33,192.0,0.0,0.0,0.0,0.0
1776450412701398066,15806,0.092,0.1,0.0,1.6,0.06,-0.1,11.5,-2.38,2.44,0.31,0.04,-0.3,-0.25,0.06,-0.56,165.33,216.0,0.0,0.0,0.0,0.0
1776450412803819564,15905,0.088,0.1,0.0,1.5,-0.02,-0.16,11.44,-2.31,2.19,0.3,0.06,-0.39,1.37,0.19,-0.5,165.33,216.0,0.0,0.0,0.0,0.0
1776450412902117615,16005,0.092,0.3,0.0,1.4,-0.06,-0.02,11.38,-2.38,2.31,0.02,0.02,-0.38,2.38,0.56,-0.63,161.04,183.0,0.0,0.0,0.0,0.0
1776450413004505335,16105,0.0,1.4,0.06,0.1,-0.02,-0.08,11.38,-2.44,2.63,-0.17,-0.0,-0.33,1.25,0.69,-0.19,161.21,206.0,0.0,0.0,0.0,0.0
1776450413102831293,16205,0.0,1.2,0.056,0.3,-0.02,-0.14,11.38,-2.44,2.63,0.03,-0.0,-0.34,-0.31,-0.06,0.0,161.21,206.0,0.0,0.0,0.0,0.0
1776450413205226994,16305,0.0,1.1,0.064,0.2,-0.14,0.04,11.38,-2.44,2.69,-0.02,0.05,-0.38,1.69,1.25,-0.63,165.15,195.0,0.0,0.0,0.0,0.0
1776450413303513138,16406,0.0,1.4,0.06,0.3,0.1,-0.08,11.38,-2.56,3.0,-0.29,-0.0,-0.34,2.44,1.37,0.31,165.33,207.0,0.0,0.0,0.0,0.0
1776450413401773041,16505,0.0,1.2,0.064,0.2,0.04,-0.04,11.5,-2.69,3.25,-0.2,-0.02,-0.34,-0.0,0.19,1.5,165.33,207.0,0.0,0.0,0.0,0.0
1776450413504216260,16606,0.0,1.3,0.0,1.0,0.0,0.06,11.56,-2.69,3.38,-0.16,0.01,-0.34,0.12,0.06,0.81,165.33,206.0,0.0,0.0,0.0,0.0
1776450413602475756,16706,0.092,0.2,0.064,0.2,0.0,0.0,11.63,-2.69,3.38,-0.15,0.03,-0.35,0.5,-0.06,0.25,164.64,206.0,0.0,0.0,0.0,0.0
1776450413704911624,16805,0.0,1.1,0.0,1.7,0.1,-0.08,11.63,-2.69,3.31,0.18,0.02,-0.37,-0.88,-0.37,0.25,164.64,207.0,0.0,0.0,0.0,0.0
1776450413803199360,16905,0.0,1.2,0.0,0.3,-0.1,-0.1,11.63,-2.69,3.25,0.22,0.04,-0.34,-1.44,-0.25,-0.5,164.64,212.0,0.0,0.0,0.0,0.0
1776450413905565005,17006,0.0,1.1,0.056,0.6,0.02,-0.12,11.63,-2.69,3.31,-0.08,0.02,-0.29,0.31,0.25,-0.56,164.64,212.0,0.0,0.0,0.0,0.0
1776450414003961038,17105,0.0,0.9,0.0,0.2,-0.02,0.02,11.63,-2.69,3.31,-0.05,-0.0,-0.3,0.88,0.25,-0.19,164.64,194.0,0.0,0.0,0.0,0.0
1776450414106296072,17206,0.0,0.9,0.0,1.4,-0.12,-0.06,11.63,-2.69,3.19,0.31,0.01,-0.38,-0.81,-0.63,-0.37,164.64,198.0,0.0,0.0,0.0,0.0
1776450414204604160,17306,0.084,0.2,0.0,1.1,-0.02,-0.16,11.63,-2.69,3.19,0.18,0.01,-0.37,-0.69,-0.06,-0.12,165.33,198.0,0.0,0.0,0.0,0.0
1776450414302883544,17405,0.088,0.4,0.056,0.1,0.06,0.02,11.63,-2.63,3.25,-0.12,0.04,-0.35,2.25,0.19,0.31,165.67,205.0,0.0,0.0,0.0,0.0
1776450414405300023,17506,0.0,1.1,0.0,1.3,0.04,0.04,11.63,-2.69,3.5,-0.23,-0.03,-0.31,0.19,-0.0,-0.19,164.64,205.0,0.0,0.0,0.0,0.0
1776450414503575147,17606,0.0,1.3,0.08,0.3,-0.16,0.04,11.56,-2.63,3.38,0.28,-0.0,-0.35,-1.81,-0.63,-1.12,165.67,194.0,0.0,0.0,0.0,0.0
1776450414606005126,17707,0.0,1.2,0.068,0.3,-0.04,-0.04,11.38,-2.63,3.13,0.36,0.05,-0.36,-0.56,-0.63,-2.75,164.81,196.0,0.0,0.0,0.0,0.0
1776450414708364087,17807,0.0,1.2,0.0,1.0,0.0,-0.06,11.06,-2.63,3.06,0.07,0.04,-0.37,2.06,-0.0,-2.81,168.93,196.0,0.0,0.0,0.0,0.0
1776450414806683545,17908,0.084,0.3,0.06,0.3,0.02,-0.02,10.81,-2.63,3.25,-0.06,0.03,-0.34,0.81,-0.37,-2.31,168.76,183.0,0.0,0.0,0.0,0.0
1776450414909098227,18008,0.0,0.0,0.068,0.6,0.0,-0.08,10.63,-2.63,3.25,0.0,0.01,-0.34,0.12,-0.31,-2.06,168.76,203.0,0.0,0.0,0.0,0.0
1776450415007380259,18108,0.0,1.3,0.064,0.2,-0.08,0.0,10.44,-2.63,3.25,0.09,0.06,-0.37,0.69,-0.25,-0.81,164.64,203.0,0.0,0.0,0.0,0.0
1776450415109790108,18209,0.0,1.2,0.072,0.2,0.0,-0.08,10.44,-2.63,3.25,0.02,0.08,-0.42,0.81,-0.06,0.25,168.76,202.0,0.0,0.0,0.0,0.0
1776450415208164085,18309,0.0,1.4,0.064,0.2,-0.02,-0.06,10.5,-2.63,3.5,-0.21,0.03,-0.34,1.19,0.44,0.88,164.64,215.0,0.0,0.0,0.0,0.0
1776450415310483619,18410,0.0,1.4,0.068,0.3,-0.1,-0.12,10.63,-2.56,3.56,-0.14,-0.0,-0.38,0.06,0.06,1.25,164.64,215.0,0.0,0.0,0.0,0.0
1776450415408799466,18509,0.0,1.7,0.064,0.7,0.02,-0.08,10.75,-2.56,3.63,-0.06,0.03,-0.36,-0.31,-0.19,0.88,168.76,200.0,0.0,0.0,0.0,0.0
1776450415511145204,18610,0.0,0.6,0.0,1.1,-0.14,-0.04,10.81,-2.56,3.63,-0.07,0.06,-0.33,-0.06,0.06,1.0,164.64,182.0,0.0,0.0,0.0,0.0
1776450415609443328,18710,0.092,0.3,0.0,0.5,0.0,-0.04,10.94,-2.56,3.56,0.19,0.04,-0.34,-0.88,-0.37,1.75,164.64,182.0,0.0,0.0,0.0,0.0
1776450415717849551,18810,0.0,0.8,0.056,0.4,-0.06,-0.06,11.13,-2.56,3.5,0.1,0.07,-0.36,0.63,0.31,2.0,168.76,183.0,0.0,0.0,0.0,0.0
1776450415810225617,18910,0.0,0.7,0.0,0.1,-0.14,-0.21,11.38,-2.5,3.44,0.07,0.01,-0.32,-1.06,0.19,2.56,164.64,183.0,0.0,0.0,0.0,0.0
1776450415912568540,19011,0.0,1.3,0.0,1.4,-0.1,-0.12,11.63,-2.5,3.44,0.0,0.05,-0.32,0.63,0.37,2.56,168.76,203.0,0.0,0.0,0.0,0.0
1776450416010880424,19110,0.0,0.7,0.0,1.5,0.06,-0.06,11.81,-2.5,3.44,-0.07,-0.0,-0.38,0.12,0.69,1.5,168.93,209.0,0.0,0.0,0.0,0.0
1776450416113271847,19211,0.092,0.1,0.056,0.7,0.1,-0.1,11.94,-2.56,3.44,0.04,-0.02,-0.4,-1.37,-0.06,1.25,168.93,209.0,0.0,0.0,0.0,0.0
1776450416211562730,19311,0.0,1.0,0.064,0.3,0.04,-0.06,12.06,-2.56,3.44,-0.15,0.03,-0.38,0.12,0.37,0.63,168.93,187.0,0.0,0.0,0.0,0.0
1776450416309858910,19411,0.0,1.0,0.064,0.6,-0.04,-0.12,12.06,-2.56,3.56,-0.28,-0.0,-0.34,-0.12,0.44,0.81,168.76,208.0,0.0,0.0,0.0,0.0
1776450416412320370,19511,0.092,0.1,0.0,1.4,0.04,0.02,12.13,-2.56,3.63,-0.08,-0.02,-0.35,-0.5,-0.25,0.63,164.81,208.0,0.0,0.0,0.0,0.0
1776450416510562495,19611,0.0,1.2,0.064,0.5,-0.1,0.0,12.13,-2.5,3.44,0.26,0.03,-0.35,-0.94,-0.94,0.06,168.93,187.0,0.0,0.0,0.0,0.0
1776450416608857008,19710,0.0,1.3,0.076,0.3,0.16,-0.16,12.13,-2.5,3.38,0.19,0.03,-0.38,-0.56,0.06,-0.44,164.64,202.0,0.0,0.0,0.0,0.0
1776450416711268153,19810,0.0,1.0,0.064,0.3,0.0,-0.08,12.13,-2.5,3.25,0.28,-0.0,-0.37,-1.12,-0.19,-0.25,164.64,202.0,0.0,0.0,0.0,0.0
1776450416809562592,19910,0.0,1.2,0.06,0.3,0.0,-0.04,12.13,-2.5,3.13,0.06,0.1,-0.39,0.5,0.75,-0.56,164.64,189.0,0.0,0.0,0.0,0.0
1776450416907865161,20009,0.084,0.4,0.0,1.2,-0.2,-0.06,12.06,-2.63,3.19,-0.07,-0.07,-0.37,-1.12,0.56,-0.56,164.64,189.0,0.0,0.0,0.0,0.0
1776450417010263621,20109,0.0,1.0,0.064,0.3,0.0,-0.18,12.06,-2.63,3.06,0.13,0.03,-0.35,-1.56,-0.37,-0.88,164.64,192.0,0.0,0.0,0.0,0.0
1776450417108570264,20209,0.096,0.0,0.0,1.7,-0.08,-0.02,11.94,-2.63,3.0,0.07,0.04,-0.34,-0.5,0.69,-1.25,164.64,202.0,0.0,0.0,0.0,0.0
1776450417210959612,20310,0.092,0.3,0.0,1.5,-0.06,-0.08,11.88,-2.69,3.0,-0.21,0.04,-0.38,0.44,1.19,-0.88,168.24,202.0,0.0,0.0,0.0,0.0
1776450417309242366,20410,0.084,0.1,0.0,1.4,-0.06,-0.23,11.81,-2.81,3.13,-0.28,-0.03,-0.36,-0.31,0.63,-0.37,165.67,202.0,0.0,0.0,0.0,0.0
1776450417411623030,20510,0.088,0.3,0.0,1.3,0.04,-0.02,11.81,-2.81,3.19,-0.12,-0.01,-0.36,-0.81,-0.19,-0.56,164.64,203.0,0.0,0.0,0.0,0.0
1776450417509928802,20610,0.092,0.3,0.0,1.5,-0.02,-0.12,11.75,-2.88,3.06,0.19,0.03,-0.35,-1.44,-0.63,-0.75,164.64,203.0,0.0,0.0,0.0,0.0
1776450417612376558,20710,0.084,-0.1,0.0,0.2,-0.02,-0.06,11.69,-2.81,2.94,0.2,0.01,-0.37,-1.5,0.06,-0.25,164.64,198.0,0.0,0.0,0.0,0.0
1776450417710665349,20809,0.0,1.1,0.064,0.3,0.02,-0.12,11.69,-2.81,2.81,0.11,0.02,-0.3,-1.44,0.19,0.12,165.67,193.0,0.0,0.0,0.0,0.0
1776450417813069401,20910,0.0,1.5,0.0,0.5,0.08,0.02,11.75,-2.81,2.56,0.14,0.13,-0.36,0.94,0.56,0.75,165.15,193.0,0.0,0.0,0.0,0.0
1776450417911350544,21010,0.0,0.6,0.0,0.4,0.02,-0.04,11.81,-2.88,2.5,0.12,-0.04,-0.37,-1.25,0.19,1.31,165.33,198.0,0.0,0.0,0.0,0.0
1776450418009650372,21109,0.0,1.1,0.0,0.6,-0.16,-0.1,11.94,-2.88,2.44,-0.03,0.05,-0.36,-0.31,0.63,0.56,164.3,212.0,0.0,0.0,0.0,0.0
1776450418112044535,21209,0.0,0.9,0.06,0.2,0.12,-0.2,11.94,-2.94,2.31,0.07,0.04,-0.34,-0.88,-0.12,0.37,161.04,212.0,0.0,0.0,0.0,0.0
1776450418210347826,21309,0.092,0.0,0.0,0.6,-0.04,-0.06,11.94,-3.0,2.38,-0.15,0.03,-0.38,-0.25,1.0,-0.44,162.24,198.0,0.0,0.0,0.0,0.0
1776450418312754637,21409,0.092,0.5,0.0,1.1,-0.18,-0.1,11.94,-3.13,2.5,-0.18,-0.04,-0.4,-1.06,0.63,-0.5,165.33,198.0,0.0,0.0,0.0,0.0
1776450418411055299,21510,0.0,0.9,0.06,0.2,-0.02,0.08,11.94,-3.13,2.5,-0.14,-0.0,-0.37,-0.63,0.12,-0.56,161.04,204.0,0.0,0.0,0.0,0.0
1776450418509279200,21610,0.092,0.4,0.0,1.3,0.12,-0.06,11.88,-3.13,2.38,0.16,0.02,-0.36,-1.0,-0.31,-0.94,165.33,183.0,0.0,0.0,0.0,0.0
1776450418611717919,21709,0.0,0.4,0.0,0.3,-0.02,0.02,11.75,-3.13,2.19,0.33,0.05,-0.35,-1.06,-0.25,-1.75,162.24,183.0,0.0,0.0,0.0,0.0
1776450418720098271,21810,0.0,1.1,0.072,0.5,0.0,-0.21,11.5,-3.13,1.88,0.2,0.08,-0.34,-0.12,0.5,-2.56,161.21,188.0,0.0,0.0,0.0,0.0
1776450418812443503,21910,0.0,0.5,0.0,1.7,0.08,0.02,11.25,-3.13,1.81,0.07,0.02,-0.34,-0.25,0.56,-2.44,161.21,190.0,0.0,0.0,0.0,0.0
1776450418910710534,22010,0.088,0.0,0.0,0.4,-0.18,-0.08,11.0,-3.19,1.75,0.12,-0.0,-0.36,-1.12,0.12,-2.38,165.33,190.0,0.0,0.0,0.0,0.0
1776450419013136012,22110,0.0,0.5,0.0,0.9,-0.04,0.02,10.75,-3.19,1.69,0.11,0.01,-0.39,-1.06,0.12,-2.69,165.33,205.0,0.0,0.0,0.0,0.0
1776450419111440321,22211,0.092,0.0,0.0,1.1,-0.18,-0.04,10.56,-3.19,1.63,0.08,-0.01,-0.38,-0.63,0.63,-2.19,165.33,205.0,0.0,0.0,0.0,0.0
1776450419213847836,22310,0.0,0.6,0.064,0.5,0.1,-0.06,10.38,-3.25,1.63,-0.1,0.03,-0.36,0.94,0.75,-1.37,165.15,190.0,0.0,0.0,0.0,0.0
1776450419312126960,22411,0.092,0.3,0.0,1.5,0.02,-0.02,10.25,-3.31,1.69,-0.11,-0.01,-0.39,0.44,0.63,-1.0,165.33,194.0,0.0,0.0,0.0,0.0
1776450419414506586,22511,0.096,0.0,0.068,0.2,0.06,-0.12,10.19,-3.38,1.63,0.03,-0.02,-0.39,-1.25,-0.19,-0.69,165.15,194.0,0.0,0.0,0.0,0.0
1776450419512799155,22610,0.096,0.2,0.0,1.1,0.08,-0.2,10.13,-3.38,1.63,0.0,0.01,-0.4,0.12,0.37,-0.75,165.33,208.0,0.0,0.0,0.0,0.0
1776450419611064167,22710,0.0,0.6,0.0,1.3,-0.06,-0.04,10.13,-3.38,1.5,0.16,0.02,-0.38,-0.69,-0.19,0.12,165.33,205.0,0.0,0.0,0.0,0.0
1776450419713526442,22810,0.092,0.4,0.056,0.2,0.0,-0.04,10.13,-3.38,1.5,0.1,0.01,-0.38,-0.19,0.63,0.94,161.04,205.0,0.0,0.0,0.0,0.0
1776450419811834954,22909,0.0,1.2,0.064,0.1,0.02,-0.04,10.25,-3.5,1.5,0.05,-0.04,-0.39,-1.25,0.69,1.81,165.15,205.0,0.0,0.0,0.0,0.0
1776450419914227080,23010,0.0,1.3,0.064,0.5,-0.21,-0.12,10.5,-3.5,1.44,0.21,-0.0,-0.35,-2.0,0.06,2.25,165.33,196.0,0.0,0.0,0.0,0.0
1776450420012524778,23110,0.0,1.3,0.0,0.2,0.02,-0.02,10.69,-3.5,1.31,0.03,-0.0,-0.41,1.5,0.94,1.69,168.76,196.0,0.0,0.0,0.0,0.0
1776450420110848606,23209,0.092,0.4,0.0,1.4,0.0,-0.1,10.81,-3.63,1.5,-0.25,-0.08,-0.39,-0.0,0.37,0.69,168.76,214.0,0.0,0.0,0.0,0.0
1776450420213224898,23309,0.096,0.1,0.0,1.5,0.0,-0.06,10.88,-3.63,1.5,0.0,-0.03,-0.43,-0.44,-0.31,0.44,165.67,190.0,0.0,0.0,0.0,0.0
1776450420311531281,23410,0.088,0.2,0.0,1.4,0.08,0.0,10.88,-3.63,1.5,-0.13,0.01,-0.42,0.69,0.19,-0.12,168.93,190.0,0.0,0.0,0.0,0.0
1776450420413925092,23510,0.088,0.3,0.0,1.3,0.0,-0.04,10.88,-3.63,1.63,-0.18,-0.02,-0.38,-0.31,-0.06,-0.12,168.76,180.0,0.0,0.0,0.0,0.0
1776450420516281607,23611,0.096,0.1,0.0,0.2,0.0,-0.06,10.88,-3.69,1.63,0.04,-0.0,-0.36,-0.81,-0.56,-0.25,168.76,180.0,0.0,0.0,0.0,0.0
1776450420614632675,23711,0.0,1.2,0.064,0.6,-0.02,-0.14,10.88,-3.69,1.44,0.26,0.01,-0.4,-0.75,-0.5,-0.5,165.33,202.0,0.0,0.0,0.0,0.0
1776450420717016671,23812,0.0,1.2,0.076,0.3,0.0,0.0,10.81,-3.63,1.31,0.26,0.05,-0.33,-0.88,-0.44,-0.94,164.64,203.0,0.0,0.0,0.0,0.0
1776450420815335073,23912,0.0,1.3,0.068,0.3,-0.18,-0.14,10.75,-3.63,1.06,0.22,0.03,-0.4,0.69,-0.5,-0.88,168.93,203.0,0.0,0.0,0.0,0.0
1776450420917719384,24012,0.0,1.4,0.064,0.2,-0.02,-0.04,10.69,-3.56,1.06,0.12,0.02,-0.44,1.06,-0.81,-0.63,164.64,198.0,0.0,0.0,0.0,0.0
1776450421016019248,24113,0.0,1.3,0.056,0.2,-0.02,-0.08,10.56,-3.5,1.25,-0.15,0.03,-0.35,1.06,-0.5,-0.56,164.64,199.0,0.0,0.0,0.0,0.0
1776450421114325001,24213,0.0,1.1,0.0,1.4,-0.16,0.0,10.56,-3.5,1.25,-0.06,0.03,-0.38,-0.25,-0.44,0.06,164.64,199.0,0.0,0.0,0.0,0.0
1776450421216722571,24312,0.088,0.9,0.0,1.4,-0.02,-0.1,10.63,-3.5,1.31,-0.1,0.03,-0.4,0.75,0.19,0.88,164.64,193.0,0.0,0.0,0.0,0.0
1776450421315003121,24412,0.088,0.4,0.0,1.2,-0.02,-0.2,10.69,-3.5,1.37,-0.04,0.04,-0.38,-0.0,-0.19,1.44,164.64,193.0,0.0,0.0,0.0,0.0
1776450421417423024,24512,0.0,0.9,0.08,0.7,-0.08,-0.12,10.88,-3.5,1.37,-0.04,0.06,-0.4,1.19,0.31,1.88,168.76,206.0,0.0,0.0,0.0,0.0
1776450421515675222,24611,0.0,0.9,0.056,0.5,0.0,0.02,11.06,-3.5,1.44,-0.02,0.01,-0.44,-0.69,0.31,1.88,164.64,201.0,0.0,0.0,0.0,0.0
1776450421618109255,24712,0.0,0.4,0.0,0.9,-0.04,-0.14,11.25,-3.5,1.5,-0.03,0.01,-0.38,-0.44,0.37,1.75,164.81,201.0,0.0,0.0,0.0,0.0
1776450421716404231,24812,0.096,0.3,0.0,0.3,-0.1,-0.06,11.38,-3.5,1.56,-0.15,-0.0,-0.31,0.69,1.06,1.31,168.76,208.0,0.0,0.0,0.0,0.0
1776450421814709558,24911,0.0,0.9,0.068,0.5,0.02,0.02,11.5,-3.56,1.44,0.3,0.03,-0.37,-1.31,-0.44,1.56,164.64,199.0,0.0,0.0,0.0,0.0
1776450421917115850,25012,0.0,0.1,0.056,0.5,0.06,-0.12,11.69,-3.5,1.31,-0.02,0.08,-0.38,2.38,1.19,1.37,164.64,199.0,0.0,0.0,0.0,0.0
1776450422015409418,25112,0.092,0.4,0.0,1.2,0.02,0.02,11.81,-3.63,1.37,-0.02,-0.0,-0.38,-0.0,0.75,2.06,164.64,209.0,0.0,0.0,0.0,0.0
1776450422117803840,25212,0.096,0.4,0.0,0.2,-0.12,-0.18,12.0,-3.63,1.44,-0.01,0.03,-0.43,0.63,-0.0,1.94,168.76,213.0,0.0,0.0,0.0,0.0
1776450422216187760,25312,0.0,0.8,0.052,0.4,0.08,-0.16,12.13,-3.63,1.5,0.01,-0.0,-0.46,-1.06,-0.12,1.19,164.64,213.0,0.0,0.0,0.0,0.0
1776450422318482941,25413,0.092,0.3,0.0,1.1,-0.02,-0.08,12.25,-3.63,1.56,-0.05,-0.04,-0.36,-0.81,0.06,0.63,168.76,203.0,0.0,0.0,0.0,0.0
1776450422416762509,25512,0.0,0.7,0.0,1.2,0.1,-0.16,12.25,-3.63,1.44,0.07,0.04,-0.41,-0.31,-0.44,0.19,165.84,200.0,0.0,0.0,0.0,0.0
1776450422519164430,25613,0.092,0.1,0.0,1.5,0.06,-0.18,12.25,-3.63,1.5,-0.02,0.04,-0.39,0.44,0.25,-0.37,164.64,200.0,0.0,0.0,0.0,0.0
1776450422617494276,25713,0.096,0.1,0.0,1.4,0.0,-0.21,12.25,-3.63,1.5,0.03,-0.0,-0.38,-0.19,-0.06,-0.56,164.64,211.0,0.0,0.0,0.0,0.0
1776450422715800825,25812,0.088,0.2,0.0,1.6,0.08,-0.14,12.19,-3.63,1.44,0.11,0.05,-0.39,-0.0,-0.12,-1.25,164.64,211.0,0.0,0.0,0.0,0.0
1776450422818246988,25912,0.092,-0.1,0.0,1.5,0.06,-0.1,12.0,-3.63,1.37,0.23,0.02,-0.37,-0.56,-0.0,-2.38,165.33,210.0,0.0,0.0,0.0,0.0
1776450422916482685,26013,0.084,0.0,0.0,1.7,-0.02,0.0,11.69,-3.69,1.44,-0.15,0.12,-0.36,3.75,1.44,-3.13,165.33,204.0,0.0,0.0,0.0,0.0
1776450423018899663,26113,0.088,0.2,0.0,1.2,0.04,-0.08,11.44,-3.81,1.56,-0.04,0.01,-0.46,0.88,0.31,-2.13,165.33,204.0,0.0,0.0,0.0,0.0
1776450423117162786,26213,0.092,0.1,0.0,1.6,0.08,-0.18,11.25,-3.81,1.69,-0.03,-0.01,-0.44,-0.94,0.37,-1.31,165.15,201.0,0.0,0.0,0.0,0.0
1776450423215481742,26312,0.0,1.5,0.064,1.1,0.04,-0.06,11.19,-3.81,1.75,-0.08,0.03,-0.36,0.19,0.5,-0.69,165.15,188.0,0.0,0.0,0.0,0.0
1776450423317910127,26413,0.092,0.2,0.0,1.3,-0.02,-0.12,11.13,-3.88,1.81,-0.04,0.04,-0.42,1.69,1.0,0.06,164.64,188.0,0.0,0.0,0.0,0.0
1776450423416152454,26513,0.092,0.3,0.0,1.4,-0.04,0.02,11.19,-4.0,1.94,-0.19,-0.04,-0.36,0.12,0.75,0.88,169.96,200.0,0.0,0.0,0.0,0.0
1776450423518564579,26613,0.088,0.2,0.056,0.5,0.04,-0.06,11.25,-4.0,2.0,-0.04,-0.01,-0.36,-0.19,0.12,0.88,164.64,187.0,0.0,0.0,0.0,0.0
1776450423616885610,26713,0.0,1.2,0.068,0.6,-0.08,-0.02,11.31,-4.0,2.0,0.06,0.03,-0.4,0.06,0.31,0.56,164.64,187.0,0.0,0.0,0.0,0.0
1776450423719284587,26813,0.0,1.4,0.0,1.2,0.16,-0.12,11.31,-4.0,1.94,0.16,0.05,-0.37,-0.69,0.44,0.75,164.64,210.0,0.0,0.0,0.0,0.0
1776450423817606562,26912,0.08,0.3,0.0,1.5,-0.12,-0.04,11.44,-4.0,1.88,0.3,-0.0,-0.35,-1.69,-0.06,1.63,164.64,210.0,0.0,0.0,0.0,0.0
1776450423925920542,27012,0.092,0.4,0.0,1.1,-0.12,-0.16,11.63,-4.0,1.81,0.01,0.11,-0.38,2.5,1.63,1.5,168.24,194.0,0.0,0.0,0.0,0.0
1776450424018283496,27113,0.088,0.1,0.0,1.5,0.02,-0.14,11.75,-4.13,1.81,0.12,-0.03,-0.44,0.5,0.69,1.63,168.24,202.0,0.0,0.0,0.0,0.0
1776450424120688177,27213,0.084,1.3,0.068,0.6,-0.02,-0.02,11.88,-4.25,2.06,-0.19,-0.05,-0.3,0.44,1.19,1.06,168.24,202.0,0.0,0.0,0.0,0.0
1776450424218979300,27314,0.0,1.0,0.072,0.4,-0.12,-0.12,12.0,-4.31,2.06,-0.07,0.03,-0.37,1.0,0.19,1.44,168.24,212.0,0.0,0.0,0.0,0.0
1776450424321373888,27415,0.0,1.5,0.0,1.1,-0.02,-0.12,12.06,-4.38,2.19,-0.15,-0.04,-0.37,0.37,0.81,0.12,168.24,197.0,0.0,0.0,0.0,0.0
1776450424419646011,27514,0.092,0.5,0.0,1.7,0.0,-0.12,12.06,-4.44,2.25,-0.25,-0.02,-0.45,1.19,0.63,0.0,167.73,197.0,0.0,0.0,0.0,0.0
1776450424522035691,27614,0.0,1.2,0.0,1.1,0.02,-0.04,12.06,-4.5,2.56,-0.23,-0.06,-0.37,-0.69,0.12,-0.19,167.73,203.0,0.0,0.0,0.0,0.0
1776450424620434870,27715,0.0,0.9,0.064,0.5,0.04,0.04,12.0,-4.5,2.5,0.08,-0.02,-0.33,-1.19,-0.75,-0.94,168.24,213.0,0.0,0.0,0.0,0.0
1776450424722773736,27815,0.0,0.4,0.0,1.7,0.08,-0.12,11.88,-4.5,2.31,0.3,0.06,-0.36,-0.25,-0.56,-1.81,168.07,213.0,0.0,0.0,0.0,0.0
1776450424821071118,27915,0.0,1.3,0.064,1.1,0.0,0.04,11.69,-4.5,2.19,0.15,0.05,-0.39,0.19,-0.19,-1.88,167.56,195.0,0.0,0.0,0.0,0.0
1776450424923449558,28016,0.084,0.4,0.0,1.7,0.0,-0.12,11.56,-4.5,2.13,0.12,0.04,-0.38,-0.5,-0.31,-1.37,167.73,186.0,0.0,0.0,0.0,0.0
1776450425021781885,28115,0.0,0.1,0.0,0.5,-0.1,-0.08,11.38,-4.5,2.06,0.23,-0.01,-0.37,-1.19,-0.44,-1.81,171.84,186.0,0.0,0.0,0.0,0.0
1776450425124182639,28216,0.0,0.9,0.0,0.3,0.04,-0.12,11.19,-4.44,1.88,0.12,0.1,-0.4,0.63,-0.25,-2.06,168.24,194.0,0.0,0.0,0.0,0.0
1776450425222474577,28316,0.0,1.1,0.06,0.0,0.02,-0.1,11.0,-4.44,1.81,0.09,0.04,-0.4,-0.5,-0.31,-1.56,168.24,194.0,0.0,0.0,0.0,0.0
1776450425324853795,28416,0.0,1.2,0.068,0.8,-0.2,-0.12,10.88,-4.44,1.81,-0.12,0.06,-0.38,0.75,0.31,-0.94,168.24,204.0,0.0,0.0,0.0,0.0
1776450425423127455,28517,0.084,0.1,0.0,1.0,0.06,0.06,10.81,-4.44,1.81,-0.01,-0.04,-0.38,-1.5,-0.25,-0.5,168.24,202.0,0.0,0.0,0.0,0.0
1776450425521420707,28616,0.088,0.1,0.0,1.2,-0.04,0.02,10.81,-4.38,1.63,0.21,0.05,-0.37,-0.63,-0.44,-0.56,164.81,202.0,0.0,0.0,0.0,0.0
1776450425623859629,28717,0.0,0.9,0.06,0.3,-0.02,0.04,10.75,-4.38,1.69,-0.15,0.08,-0.36,1.37,0.81,-0.37,164.64,193.0,0.0,0.0,0.0,0.0
1776450425722172048,28817,0.0,0.9,0.064,0.2,0.12,0.06,10.75,-4.44,1.75,-0.1,-0.03,-0.39,-0.37,0.06,0.31,164.64,200.0,0.0,0.0,0.0,0.0
1776450425824559932,28917,0.0,0.7,0.0,0.3,0.06,-0.02,10.81,-4.44,1.75,0.13,-0.01,-0.35,-1.31,-0.31,0.56,164.64,200.0,0.0,0.0,0.0,0.0
1776450425922855221,29017,0.0,1.2,0.064,0.1,-0.08,0.02,10.88,-4.38,1.56,0.19,0.12,-0.36,0.19,-0.12,1.0,164.64,208.0,0.0,0.0,0.0,0.0
1776450426025263717,29117,0.0,0.7,0.0,1.2,-0.02,-0.08,10.94,-4.38,1.31,0.3,0.1,-0.43,-0.37,-0.0,1.56,164.64,208.0,0.0,0.0,0.0,0.0
1776450426123558266,29217,0.0,0.9,0.0,1.7,0.06,-0.14,11.13,-4.44,1.44,-0.12,0.01,-0.39,1.25,1.63,1.69,164.64,213.0,0.0,0.0,0.0,0.0
1776450426225961890,29318,0.0,1.0,0.0,1.0,-0.08,0.02,11.31,-4.56,1.69,-0.24,-0.02,-0.34,1.06,0.81,2.38,168.24,176.0,0.0,0.0,0.0,0.0
1776450426324261087,29418,0.088,0.9,0.068,0.6,-0.06,-0.08,11.56,-4.56,1.81,-0.14,-0.0,-0.41,1.06,0.31,1.69,168.24,176.0,0.0,0.0,0.0,0.0
1776450426426638712,29517,0.0,0.6,0.072,0.3,-0.1,-0.1,11.63,-4.63,2.0,-0.22,-0.06,-0.35,-0.06,0.37,0.37,164.64,207.0,0.0,0.0,0.0,0.0
1776450426524914187,29618,0.0,1.3,0.072,0.2,0.0,-0.1,11.63,-4.63,2.0,0.0,0.04,-0.39,0.37,-0.19,0.06,169.27,195.0,0.0,0.0,0.0,0.0
1776450426627351867,29719,0.092,0.1,0.0,1.2,-0.02,-0.06,11.63,-4.63,2.0,0.0,0.01,-0.41,0.69,-0.06,-0.75,168.24,195.0,0.0,0.0,0.0,0.0
1776450426725653730,29818,0.092,0.1,0.0,0.9,-0.1,0.1,11.5,-4.69,2.06,0.02,-0.01,-0.38,-0.31,-0.25,-1.31,168.24,174.0,0.0,0.0,0.0,0.0
1776450426823911649,29918,0.0,0.9,0.06,0.7,0.02,-0.18,11.38,-4.69,2.06,0.06,0.05,-0.35,0.56,-0.06,-1.37,168.24,206.0,0.0,0.0,0.0,0.0
1776450426926346200,30018,0.0,0.5,0.068,0.2,0.02,-0.08,11.25,-4.69,2.06,0.11,0.04,-0.39,0.94,-0.19,-1.63,168.24,206.0,0.0,0.0,0.0,0.0
1776450427024645101,30117,0.0,1.4,0.056,0.4,0.08,-0.02,11.06,-4.69,2.13,0.04,-0.02,-0.33,0.44,-0.31,-2.31,168.24,189.0,0.0,0.0,0.0,0.0
1776450427127039392,30218,0.0,1.1,0.06,0.0,0.08,-0.14,10.81,-4.63,2.0,0.21,0.07,-0.44,1.0,-0.94,-2.75,168.24,191.0,0.0,0.0,0.0,0.0
1776450427225349089,30318,0.0,0.4,0.0,0.8,-0.21,-0.12,10.56,-4.63,2.13,0.05,0.06,-0.36,1.56,0.12,-2.38,168.24,191.0,0.0,0.0,0.0,0.0
1776450427323608933,30417,0.036,0.1,0.076,0.3,0.04,-0.08,10.31,-4.63,2.19,0.12,0.01,-0.35,-0.12,-0.37,-1.69,168.24,204.0,0.0,0.0,0.0,0.0
1776450427426004762,30517,0.0,0.3,0.0,1.5,0.04,-0.08,10.19,-4.56,2.13,0.15,0.06,-0.35,0.19,-0.56,-1.5,164.13,204.0,0.0,0.0,0.0,0.0
1776450427524297533,30617,0.092,0.2,0.0,1.3,-0.06,-0.16,10.0,-4.56,2.19,-0.03,0.15,-0.41,3.0,0.37,-1.31,168.76,205.0,0.0,0.0,0.0,0.0
1776450427626740102,30717,0.0,1.4,0.076,0.3,-0.06,-0.1,10.0,-4.63,2.56,-0.36,-0.01,-0.33,1.94,1.19,-0.19,168.76,199.0,0.0,0.0,0.0,0.0
1776450427725037317,30817,0.0,1.2,0.0,1.1,0.1,-0.16,10.0,-4.75,2.75,-0.03,-0.04,-0.38,-1.56,-0.69,0.06,168.76,199.0,0.0,0.0,0.0,0.0
1776450427827429423,30918,0.092,0.4,0.0,1.1,0.0,0.1,9.94,-4.69,2.63,0.23,0.07,-0.39,-1.5,-0.5,-1.25,164.64,191.0,0.0,0.0,0.0,0.0
1776450427925742379,31017,0.092,0.2,0.0,0.9,-0.06,-0.14,9.81,-4.63,2.38,0.24,0.14,-0.38,0.25,0.69,-1.06,164.64,206.0,0.0,0.0,0.0,0.0
1776450428028163985,31118,0.0,0.6,0.064,0.4,-0.06,-0.12,9.81,-4.75,2.5,0.0,0.12,-0.38,1.88,2.38,0.63,164.64,206.0,0.0,0.0,0.0,0.0
1776450428126427922,31218,0.0,0.9,0.072,0.2,0.06,-0.08,9.94,-5.0,2.75,-0.25,-0.06,-0.31,0.69,1.69,1.37,165.67,185.0,0.0,0.0,0.0,0.0
1776450428228824676,31319,0.0,1.0,0.064,0.2,0.08,0.06,10.0,-5.0,2.69,0.31,0.02,-0.41,-2.25,-1.56,0.63,164.64,185.0,0.0,0.0,0.0,0.0
1776450428327132669,31419,0.0,0.4,0.0,1.5,0.0,-0.18,10.0,-5.0,2.81,-0.25,0.12,-0.28,2.38,2.44,-0.31,172.36,199.0,0.0,0.0,0.0,0.0
1776450428425355940,31519,0.088,-0.1,0.0,1.5,-0.12,-0.16,10.06,-5.13,2.75,0.14,-0.03,-0.38,-0.75,-0.31,0.75,176.47,208.0,0.0,0.0,0.0,0.0
1776450428527790249,31619,0.088,0.1,0.0,-0.1,0.0,-0.1,10.06,-5.13,2.75,-0.1,0.08,-0.34,0.94,1.0,-0.19,172.36,208.0,0.0,0.0,0.0,0.0
1776450428626138928,31719,0.0,1.3,0.0,1.1,-0.02,0.04,10.06,-5.25,2.81,-0.07,-0.01,-0.37,-0.25,0.31,-0.44,168.76,190.0,0.0,0.0,0.0,0.0
1776450428728522145,31818,0.088,0.1,0.0,0.3,-0.08,-0.18,10.0,-5.25,2.81,-0.03,0.01,-0.4,-0.25,0.06,-1.12,168.24,209.0,0.0,0.0,0.0,0.0
1776450428826830600,31918,0.0,0.9,0.076,0.1,0.06,-0.08,9.88,-5.25,2.81,-0.01,-0.03,-0.35,-1.06,-0.06,-1.44,168.24,209.0,0.0,0.0,0.0,0.0
1776450428925134297,32018,0.0,1.0,0.0,1.3,0.02,-0.06,9.69,-5.25,2.69,0.12,0.03,-0.37,-0.5,-0.56,-2.13,168.24,198.0,0.0,0.0,0.0,0.0
1776450429027525088,32117,0.092,0.4,0.0,1.3,-0.08,-0.06,9.5,-5.25,2.5,0.35,0.02,-0.35,-1.94,-0.69,-2.63,168.24,195.0,0.0,0.0,0.0,0.0
1776450429125836710,32217,0.088,0.2,0.0,1.6,-0.02,0.0,9.25,-5.19,2.31,0.1,0.04,-0.35,0.37,0.19,-2.63,168.24,195.0,0.0,0.0,0.0,0.0
1776450429224178407,32317,0.096,0.1,0.0,1.4,0.1,-0.08,9.0,-5.19,2.25,-0.09,0.05,-0.4,1.81,0.31,-2.0,163.95,204.0,0.0,0.0,0.0,0.0
1776450429326495513,32416,0.096,0.3,0.0,1.5,0.1,-0.23,8.81,-5.25,2.38,-0.03,-0.01,-0.39,-1.88,-0.69,-1.5,168.24,177.0,0.0,0.0,0.0,0.0
1776450429424779153,32516,0.092,0.3,0.0,1.4,-0.06,0.0,8.63,-5.13,2.13,0.29,0.05,-0.38,-1.88,-1.06,-2.94,168.24,177.0,0.0,0.0,0.0,0.0
1776450429523101702,32616,0.096,0.3,0.0,1.6,0.02,-0.16,8.31,-5.13,2.06,-0.09,0.06,-0.37,1.25,-0.0,-3.0,168.24,189.0,0.0,0.0,0.0,0.0
1776450429625563456,32715,0.0,1.4,0.0,1.1,-0.08,0.02,8.13,-5.13,2.25,-0.39,-0.04,-0.41,0.81,-0.0,-1.56,168.24,189.0,0.0,0.0,0.0,0.0
1776450429723831559,32815,0.096,0.3,0.0,1.4,-0.02,0.0,8.0,-5.13,2.44,0.01,-0.0,-0.41,-2.06,-0.88,-1.0,168.24,202.0,0.0,0.0,0.0,0.0
1776450429826287091,32916,0.0,0.2,0.0,1.3,0.04,0.0,7.88,-5.06,2.19,0.39,0.07,-0.34,-2.56,-1.0,-2.06,168.24,207.0,0.0,0.0,0.0,0.0
1776450429924503899,33015,0.0,0.8,0.064,0.2,0.02,-0.18,7.69,-4.94,1.88,0.26,0.06,-0.41,-0.0,-1.06,-1.12,168.24,207.0,0.0,0.0,0.0,0.0
1776450430026917208,33116,0.0,0.2,0.072,0.6,-0.04,-0.2,7.69,-4.81,1.81,0.04,0.03,-0.39,0.69,-1.37,1.0,168.24,206.0,0.0,0.0,0.0,0.0
1776450430125207126,33216,0.0,0.9,0.0,1.4,0.1,-0.08,7.81,-4.63,1.81,0.09,0.06,-0.36,-1.5,-1.63,1.19,168.24,209.0,0.0,0.0,0.0,0.0
1776450430223479452,33316,0.092,0.2,0.0,1.5,-0.08,0.0,7.94,-4.5,1.75,0.03,-0.0,-0.32,0.37,-1.31,1.37,168.24,209.0,0.0,0.0,0.0,0.0
1776450430325904984,33416,0.092,0.3,0.0,1.5,0.0,0.06,8.06,-4.38,1.69,0.14,0.04,-0.38,0.5,-1.37,1.63,164.64,185.0,0.0,0.0,0.0,0.0
1776450430424217625,33516,0.084,0.2,0.0,1.7,-0.02,-0.02,8.25,-4.19,1.69,0.08,0.1,-0.36,-0.0,-1.69,1.88,168.24,185.0,0.0,0.0,0.0,0.0
1776450430526563841,33615,0.088,-0.1,0.0,1.5,0.0,0.08,8.38,-4.06,1.69,0.18,0.07,-0.35,0.12,-1.31,1.37,164.64,191.0,0.0,0.0,0.0,0.0
1776450430624882834,33715,0.096,0.0,0.0,1.4,-0.06,-0.06,8.5,-3.94,1.75,-0.06,0.04,-0.4,1.88,-1.06,0.75,164.64,186.0,0.0,0.0,0.0,0.0
1776450430723207530,33815,0.088,1.2,0.0,1.0,0.02,0.04,8.5,-3.88,2.13,-0.41,-0.0,-0.39,0.94,-1.12,-0.44,164.64,186.0,0.0,0.0,0.0,0.0
1776450430825608210,33914,0.0,0.9,0.064,0.7,0.14,-0.1,8.44,-3.81,2.44,-0.49,0.03,-0.4,1.69,-0.5,-1.37,164.64,194.0,0.0,0.0,0.0,0.0
1776450430923851536,34015,0.0,1.4,0.068,0.3,-0.04,-0.02,8.25,-3.75,2.63,0.16,-0.01,-0.36,-2.19,-1.25,-2.0,164.64,218.0,0.0,0.0,0.0,0.0
1776450431026319215,34115,0.0,1.5,0.072,0.4,-0.08,-0.14,8.0,-3.63,2.38,0.28,0.09,-0.41,0.12,-0.37,-2.81,168.93,218.0,0.0,0.0,0.0,0.0
1776450431124611060,34214,0.0,1.3,0.068,0.6,-0.12,-0.1,7.75,-3.63,2.44,-0.14,0.03,-0.37,1.0,0.37,-1.75,165.33,198.0,0.0,0.0,0.0,0.0
1776450431222885219,34314,0.0,1.3,0.0,1.4,0.0,-0.16,7.75,-3.63,2.38,0.22,0.03,-0.36,-1.69,-0.81,-0.06,165.33,203.0,0.0,0.0,0.0,0.0
1776450431325315991,34414,0.0,0.7,0.064,0.2,-0.1,-0.14,7.81,-3.56,2.13,0.36,0.08,-0.38,-1.12,-0.63,1.0,165.33,203.0,0.0,0.0,0.0,0.0
1776450431423601428,34513,0.0,0.9,0.064,0.5,-0.06,-0.12,7.94,-3.5,1.88,0.22,0.1,-0.34,0.31,-0.37,2.13,165.33,203.0,0.0,0.0,0.0,0.0
1776450431521837457,34613,0.0,0.9,0.064,0.4,0.0,-0.04,8.19,-3.5,1.94,0.0,0.05,-0.36,0.81,-0.0,2.69,165.33,227.0,0.0,0.0,0.0,0.0
1776450431624273248,34713,0.0,0.7,0.0,1.8,-0.08,-0.16,8.5,-3.5,2.06,-0.1,0.04,-0.33,0.44,0.37,3.13,165.33,227.0,0.0,0.0,0.0,0.0
1776450431722598203,34812,0.088,0.3,0.0,1.4,0.04,0.0,8.88,-3.44,1.94,0.25,0.1,-0.4,-1.31,-0.63,4.38,165.15,195.0,0.0,0.0,0.0,0.0
1776450431820835695,34912,0.088,0.1,0.0,1.5,-0.06,-0.02,9.25,-3.44,1.94,0.02,0.05,-0.35,0.44,0.31,4.0,165.33,195.0,0.0,0.0,0.0,0.0
1776450431923305153,35012,0.088,0.4,0.0,1.3,-0.02,0.06,9.63,-3.44,2.13,-0.4,0.06,-0.35,2.81,1.12,3.13,164.64,224.0,0.0,0.0,0.0,0.0
1776450432021591553,35111,0.084,1.1,0.056,0.2,-0.08,0.08,9.81,-3.5,2.25,-0.01,-0.01,-0.37,-1.19,-0.37,1.44,168.93,198.0,0.0,0.0,0.0,0.0
1776450432123985528,35211,0.0,1.4,0.0,1.0,-0.08,-0.12,9.88,-3.5,2.06,0.28,0.05,-0.41,-1.5,-0.25,0.31,165.15,198.0,0.0,0.0,0.0,0.0
1776450432222293280,35311,0.088,0.1,0.0,1.1,-0.04,-0.06,9.88,-3.56,2.0,0.03,0.08,-0.38,0.19,1.63,-0.88,168.76,207.0,0.0,0.0,0.0,0.0
1776450432320631494,35410,0.092,0.4,0.0,1.1,0.04,-0.02,9.81,-3.69,2.0,-0.15,-0.0,-0.4,0.75,1.25,-0.5,168.76,204.0,0.0,0.0,0.0,0.0
1776450432423002489,35511,0.0,0.7,0.0,1.7,0.04,-0.08,9.81,-3.81,2.06,-0.11,-0.06,-0.39,-1.06,0.19,-0.19,165.33,204.0,0.0,0.0,0.0,0.0
1776450432521258259,35611,0.092,0.3,0.0,1.7,0.02,-0.08,9.81,-3.81,2.0,0.19,0.02,-0.41,-1.56,-0.37,-0.75,165.15,184.0,0.0,0.0,0.0,0.0
1776450432623690864,35712,0.088,1.5,0.0,1.1,0.02,-0.12,9.69,-3.81,1.75,0.32,0.07,-0.42,-1.0,0.25,-1.37,165.33,184.0,0.0,0.0,0.0,0.0
1776450432721976727,35813,0.088,0.2,0.0,1.2,0.08,-0.02,9.56,-3.88,1.69,-0.1,0.05,-0.36,0.88,2.13,-1.69,165.15,203.0,0.0,0.0,0.0,0.0
1776450432824396999,35912,0.088,0.1,0.0,1.2,-0.12,-0.12,9.44,-4.06,1.75,-0.15,-0.07,-0.38,-0.37,1.0,-0.88,161.04,212.0,0.0,0.0,0.0,0.0
1776450432926795234,36013,0.096,0.3,0.0,1.1,-0.12,-0.04,9.31,-4.06,1.69,0.06,0.03,-0.35,-0.37,-0.19,-1.19,165.15,212.0,0.0,0.0,0.0,0.0
1776450433025092670,36113,0.088,-0.2,0.0,1.3,-0.08,-0.02,9.19,-4.06,1.63,0.05,0.12,-0.42,0.63,0.81,-1.37,165.15,196.0,0.0,0.0,0.0,0.0
1776450433123383014,36212,0.088,0.7,0.068,0.3,-0.04,-0.02,9.06,-4.19,1.63,0.11,-0.04,-0.39,-1.37,0.44,-0.75,165.33,196.0,0.0,0.0,0.0,0.0
1776450433225781656,36312,0.088,1.3,0.0,1.2,0.0,-0.08,9.06,-4.19,1.56,0.06,0.09,-0.39,-0.19,0.37,-0.06,165.84,196.0,0.0,0.0,0.0,0.0
1776450433324048945,36413,0.096,0.1,0.0,1.2,-0.23,-0.08,9.06,-4.25,1.56,-0.16,0.02,-0.38,0.56,1.12,0.31,165.33,194.0,0.0,0.0,0.0,0.0
1776450433426484772,36513,0.088,0.2,0.0,1.1,-0.08,-0.06,9.13,-4.31,1.56,-0.02,-0.01,-0.38,-0.56,-0.12,0.88,165.33,210.0,0.0,0.0,0.0,0.0
1776450433524763246,36613,0.0,0.8,0.064,0.2,-0.02,-0.08,9.25,-4.31,1.44,0.17,0.04,-0.38,-1.31,-0.12,1.25,165.15,210.0,0.0,0.0,0.0,0.0
1776450433633094835,36713,0.088,0.1,0.0,1.6,0.0,-0.06,9.38,-4.31,1.25,0.31,0.05,-0.41,-1.75,0.12,2.19,165.33,200.0,0.0,0.0,0.0,0.0
1776450433725482047,36813,0.0,0.0,0.064,0.5,0.14,-0.04,9.63,-4.38,1.19,-0.15,0.07,-0.43,1.75,1.94,3.19,168.93,195.0,0.0,0.0,0.0,0.0
1776450433823744224,36913,0.0,0.9,0.0,1.7,0.0,-0.02,10.0,-4.56,1.37,-0.21,-0.13,-0.41,-1.88,0.12,3.31,168.76,195.0,0.0,0.0,0.0,0.0
1776450433926163885,37013,0.0,0.1,0.0,0.4,0.0,-0.04,10.25,-4.5,1.25,0.17,-0.01,-0.35,-2.5,-1.12,1.75,168.76,208.0,0.0,0.0,0.0,0.0
1776450434024489229,37112,0.0,1.0,0.06,0.5,-0.02,-0.1,10.31,-4.38,1.12,0.14,0.13,-0.42,1.94,0.06,0.06,168.24,208.0,0.0,0.0,0.0,0.0
1776450434126903445,37212,0.092,0.2,0.0,1.4,0.06,-0.1,10.31,-4.44,1.31,-0.26,-0.01,-0.42,0.81,0.56,-0.37,169.27,191.0,0.0,0.0,0.0,0.0
1776450434225201641,37313,0.088,0.0,0.0,1.6,0.02,-0.1,10.31,-4.5,1.56,-0.18,-0.08,-0.35,-1.31,-0.63,0.06,168.24,197.0,0.0,0.0,0.0,0.0
1776450434323441818,37412,0.0,1.3,0.0,1.2,0.04,-0.14,10.25,-4.44,1.44,0.07,0.05,-0.36,-0.63,-0.81,-1.44,168.24,197.0,0.0,0.0,0.0,0.0
1776450434425837830,37512,0.0,0.7,0.068,0.3,0.08,-0.08,10.06,-4.38,1.37,0.12,0.06,-0.37,0.81,-0.44,-2.38,172.36,197.0,0.0,0.0,0.0,0.0
1776450434524165952,37612,0.092,0.2,0.0,0.3,-0.08,-0.1,9.88,-4.38,1.25,0.32,-0.0,-0.38,-0.94,-0.81,-2.38,164.64,196.0,0.0,0.0,0.0,0.0
1776450434622478759,37711,0.0,1.3,0.0,1.5,0.02,-0.08,9.63,-4.31,1.12,0.12,0.07,-0.41,0.63,-0.12,-2.63,164.81,196.0,0.0,0.0,0.0,0.0
1776450434724875641,37811,0.0,0.9,0.0,1.3,-0.06,-0.2,9.31,-4.31,1.19,0.01,0.04,-0.38,0.69,-0.19,-2.75,164.64,166.0,0.0,0.0,0.0,0.0
1776450434823139356,37911,0.0,0.4,0.064,0.3,0.04,-0.02,9.06,-4.31,1.12,0.14,0.02,-0.34,-1.19,-1.0,-2.94,164.64,212.0,0.0,0.0,0.0,0.0
1776450434925567720,38011,0.0,0.7,0.064,0.2,-0.1,-0.12,8.81,-4.19,1.12,-0.04,0.06,-0.36,1.31,-0.69,-2.69,168.93,212.0,0.0,0.0,0.0,0.0
1776450435023864730,38111,0.0,1.1,0.06,0.2,0.02,0.0,8.56,-4.19,1.19,-0.12,0.02,-0.35,0.25,-0.63,-1.69,164.64,189.0,0.0,0.0,0.0,0.0
1776450435126277132,38212,0.0,0.9,0.056,0.2,-0.06,0.02,8.44,-4.13,1.19,-0.01,0.04,-0.4,0.12,-1.19,-0.44,168.93,189.0,0.0,0.0,0.0,0.0
1776450435224554105,38311,0.0,0.8,0.06,0.3,0.02,0.0,8.44,-4.0,1.25,-0.12,0.04,-0.33,0.44,-0.31,0.06,165.15,200.0,0.0,0.0,0.0,0.0
1776450435326963932,38411,0.0,1.0,0.0,1.5,-0.12,0.0,8.44,-4.0,1.25,-0.11,0.05,-0.32,0.31,-0.56,0.56,165.33,204.0,0.0,0.0,0.0,0.0
1776450435425222702,38512,0.088,0.0,0.0,1.4,0.1,-0.06,8.5,-4.0,1.25,0.05,0.07,-0.38,0.06,-0.75,1.0,165.33,204.0,0.0,0.0,0.0,0.0
1776450435527619584,38612,0.0,1.4,0.0,0.5,-0.08,-0.04,8.69,-4.0,1.25,0.04,0.07,-0.34,0.06,-0.44,1.56,165.33,202.0,0.0,0.0,0.0,0.0
1776450435625954909,38713,0.0,0.9,0.072,0.2,0.02,-0.04,8.81,-3.94,1.06,0.38,0.15,-0.43,0.06,-0.75,2.19,165.15,197.0,0.0,0.0,0.0,0.0
1776450435724261735,38813,0.0,0.9,0.068,0.5,-0.02,0.08,9.06,-3.88,1.44,-0.42,-0.0,-0.23,2.75,0.5,2.56,165.15,197.0,0.0,0.0,0.0,0.0
1776450435826649562,38913,0.0,0.8,0.056,0.2,0.0,-0.12,9.31,-3.88,1.5,0.0,0.01,-0.33,-0.5,-0.63,1.88,165.15,199.0,0.0,0.0,0.0,0.0
1776450435924947757,39013,0.0,0.9,0.0,1.7,-0.04,0.02,9.38,-3.75,1.31,0.27,0.09,-0.42,0.69,-0.81,0.69,168.76,209.0,0.0,0.0,0.0,0.0
1776450436023224545,39112,0.088,1.2,0.056,0.1,-0.08,-0.02,9.38,-3.75,1.5,-0.3,0.02,-0.38,1.88,-0.0,0.19,164.64,209.0,0.0,0.0,0.0,0.0
1776450436125652780,39212,0.092,0.2,0.064,0.5,-0.04,0.0,9.38,-3.75,1.81,-0.32,-0.01,-0.38,0.12,-0.31,0.12,168.76,194.0,0.0,0.0,0.0,0.0
1776450436223913494,39312,0.0,0.6,0.0,1.3,0.04,0.02,9.38,-3.69,1.81,0.08,0.02,-0.36,-1.25,-0.94,-0.56,168.76,194.0,0.0,0.0,0.0,0.0
1776450436326364080,39412,0.096,-0.1,0.0,0.4,-0.16,-0.2,9.31,-3.63,1.63,0.2,0.09,-0.38,0.37,-0.88,-1.44,164.64,217.0,0.0,0.0,0.0,0.0
1776450436424602942,39512,0.092,0.1,0.0,0.7,0.04,0.0,9.13,-3.56,1.56,0.24,0.08,-0.34,-0.44,-0.75,-2.06,164.64,203.0,0.0,0.0,0.0,0.0
1776450436527042399,39612,0.088,0.1,0.0,1.2,0.2,-0.1,8.88,-3.44,1.44,0.14,0.07,-0.37,0.88,-1.0,-2.56,164.64,203.0,0.0,0.0,0.0,0.0
1776450436625338724,39712,0.08,0.2,0.0,1.1,-0.06,-0.02,8.56,-3.38,1.5,0.07,0.07,-0.33,0.31,-1.06,-3.56,164.64,191.0,0.0,0.0,0.0,0.0
1776450436727760828,39812,0.088,-0.2,0.0,1.2,-0.02,-0.02,8.25,-3.25,1.5,0.05,0.01,-0.31,-0.06,-0.81,-3.56,165.67,185.0,0.0,0.0,0.0,0.0
1776450436826040265,39913,0.084,0.2,0.0,1.3,0.04,-0.02,7.94,-3.19,1.44,0.06,0.1,-0.35,1.56,-0.56,-2.63,165.33,185.0,0.0,0.0,0.0,0.0
1776450436928445221,40013,0.084,0.5,0.0,1.4,-0.04,-0.1,7.75,-3.13,1.44,0.06,0.08,-0.37,1.63,0.25,-1.56,166.36,191.0,0.0,0.0,0.0,0.0
1776450437026708639,40114,0.0,1.1,0.0,1.1,0.02,-0.1,7.63,-3.13,1.63,-0.1,0.05,-0.39,1.31,0.56,0.5,165.15,203.0,0.0,0.0,0.0,0.0
1776450437129157632,40214,0.088,0.3,0.0,1.2,-0.1,0.04,7.75,-3.19,1.69,-0.02,-0.0,-0.37,-0.94,0.31,1.37,165.33,203.0,0.0,0.0,0.0,0.0
1776450437227427476,40313,0.0,0.4,0.0,1.7,0.08,-0.1,7.88,-3.19,1.75,-0.01,0.02,-0.33,-0.12,0.69,1.31,165.33,196.0,0.0,0.0,0.0,0.0
1776450437325693301,40413,0.0,1.2,0.068,0.3,-0.25,-0.02,8.0,-3.19,1.75,0.07,0.04,-0.38,0.19,0.69,1.5,165.33,196.0,0.0,0.0,0.0,0.0
1776450437428170887,40513,0.0,1.2,0.0,1.3,-0.06,-0.06,8.19,-3.25,1.75,0.11,0.13,-0.41,2.44,1.63,2.25,165.15,184.0,0.0,0.0,0.0,0.0
1776450437526390212,40613,0.088,0.3,0.056,0.5,0.0,-0.02,8.44,-3.44,2.0,-0.09,-0.02,-0.26,-0.75,1.81,2.69,168.76,199.0,0.0,0.0,0.0,0.0
1776450437628836650,40713,0.0,0.3,0.0,1.7,-0.12,-0.06,8.75,-3.5,2.0,0.02,0.18,-0.45,3.38,1.69,4.0,168.93,199.0,0.0,0.0,0.0,0.0
1776450437727148104,40813,0.08,0.2,0.0,1.3,-0.04,-0.16,9.06,-3.75,2.44,-0.21,-0.03,-0.33,0.69,2.56,2.94,168.76,199.0,0.0,0.0,0.0,0.0
1776450437829539227,40913,0.084,0.0,0.064,0.6,0.0,-0.1,9.38,-3.81,2.44,0.06,0.02,-0.4,0.88,0.56,2.38,168.76,194.0,0.0,0.0,0.0,0.0
1776450437927844608,41013,0.0,1.2,0.068,0.9,0.0,-0.21,9.44,-3.94,2.5,0.3,-0.0,-0.38,-0.94,-0.0,0.12,168.76,194.0,0.0,0.0,0.0,0.0
1776450438026119692,41113,0.088,0.2,0.0,1.5,-0.18,0.0,9.44,-4.0,2.63,-0.15,0.13,-0.38,4.69,2.5,0.31,168.76,199.0,0.0,0.0,0.0,0.0
1776450438128536722,41212,0.088,1.2,0.072,0.3,0.0,-0.1,9.5,-4.25,3.0,-0.21,-0.07,-0.35,0.56,1.56,1.31,168.76,210.0,0.0,0.0,0.0,0.0
1776450438226803066,41313,0.0,0.2,0.0,0.1,-0.06,-0.04,9.69,-4.31,3.0,0.09,-0.01,-0.39,-1.44,-0.31,1.81,172.36,210.0,0.0,0.0,0.0,0.0
1776450438329217374,41413,0.0,0.1,0.0,1.7,-0.06,-0.02,9.75,-4.31,2.81,0.31,0.04,-0.38,-1.12,-0.12,-0.75,168.24,183.0,0.0,0.0,0.0,0.0
1776450438427490458,41513,0.0,1.3,0.0,0.6,-0.04,-0.1,9.56,-4.31,2.75,0.09,0.13,-0.39,1.88,1.25,-1.81,168.07,210.0,0.0,0.0,0.0,0.0
1776450438529885544,41613,0.0,0.7,0.0,1.5,-0.02,-0.1,9.44,-4.5,2.81,0.0,-0.01,-0.34,-0.37,1.19,-1.06,164.13,210.0,0.0,0.0,0.0,0.0
1776450438628227406,41713,0.088,0.2,0.064,0.5,0.04,-0.02,9.38,-4.56,2.81,-0.06,-0.0,-0.36,0.56,0.88,-0.5,164.13,182.0,0.0,0.0,0.0,0.0
1776450438730624399,41814,0.0,1.4,0.068,0.5,0.06,-0.18,9.38,-4.63,2.81,-0.17,-0.03,-0.33,-0.25,0.5,-0.63,168.24,182.0,0.0,0.0,0.0,0.0
1776450438828938520,41914,0.0,0.2,0.0,0.4,0.1,-0.08,9.25,-4.63,2.69,0.06,-0.01,-0.36,-1.5,-0.75,-1.69,168.24,206.0,0.0,0.0,0.0,0.0
1776450438931330532,42015,0.0,1.0,0.06,0.3,0.14,0.0,9.06,-4.63,2.56,0.03,0.04,-0.39,-1.0,-0.31,-2.44,164.13,200.0,0.0,0.0,0.0,0.0
1776450439029620060,42115,0.0,1.3,0.064,0.5,-0.1,-0.08,8.81,-4.63,2.44,-0.01,-0.02,-0.38,-1.19,-0.0,-2.25,168.07,200.0,0.0,0.0,0.0,0.0
1776450439137985482,42215,0.0,1.6,0.0,1.2,0.08,-0.18,8.63,-4.63,2.31,-0.14,0.02,-0.37,-0.44,-0.06,-2.25,168.07,219.0,0.0,0.0,0.0,0.0
1776450439230313415,42314,0.0,1.1,0.0,1.5,-0.08,0.06,8.44,-4.63,2.31,-0.21,-0.0,-0.38,-0.56,-0.63,-1.06,164.13,189.0,0.0,0.0,0.0,0.0
1776450439332700761,42415,0.088,0.1,0.0,1.6,-0.08,-0.06,8.5,-4.63,2.38,-0.05,-0.02,-0.36,-2.0,-1.06,1.37,168.24,189.0,0.0,0.0,0.0,0.0
1776450439430984844,42515,0.088,0.1,0.0,1.6,-0.04,-0.1,8.69,-4.5,2.25,0.03,0.09,-0.36,-1.0,-1.12,2.88,168.24,226.0,0.0,0.0,0.0,0.0
1776450439529314836,42614,0.092,0.2,0.0,0.3,-0.02,0.0,9.0,-4.38,2.13,0.1,0.12,-0.38,-0.5,-1.0,3.19,168.24,226.0,0.0,0.0,0.0,0.0
1776450439631716847,42714,0.088,0.1,0.0,1.5,-0.06,-0.14,9.25,-4.38,2.19,-0.03,-0.04,-0.37,-1.81,-0.56,1.81,172.36,216.0,0.0,0.0,0.0,0.0
1776450439730012080,42815,0.088,0.2,0.0,1.5,0.0,0.0,9.38,-4.25,2.0,0.15,0.1,-0.39,-0.69,-0.75,0.69,168.24,206.0,0.0,0.0,0.0,0.0
1776450439828315238,42914,0.0,0.4,0.0,0.3,-0.1,-0.1,9.38,-4.25,2.0,0.0,0.05,-0.38,0.06,-0.37,-0.81,164.64,206.0,0.0,0.0,0.0,0.0
1776450439930743286,43014,0.0,0.7,0.072,0.4,0.08,-0.04,9.31,-4.19,2.0,0.0,-0.0,-0.37,-0.19,-0.75,-1.12,164.64,189.0,0.0,0.0,0.0,0.0
1776450440029008370,43114,0.0,0.9,0.068,0.3,0.08,-0.14,9.19,-4.13,1.94,0.07,-0.0,-0.33,-1.12,-1.0,-0.94,164.64,217.0,0.0,0.0,0.0,0.0
1776450440131407308,43214,0.088,0.3,0.0,1.6,-0.14,-0.14,9.06,-4.0,1.69,0.53,0.05,-0.42,-2.94,-2.0,-1.44,164.64,217.0,0.0,0.0,0.0,0.0
1776450440229698799,43314,0.0,1.4,0.0,1.3,-0.1,-0.02,8.88,-3.88,1.56,-0.03,0.04,-0.25,2.69,0.75,-2.0,164.47,197.0,0.0,0.0,0.0,0.0
1776450440332095903,43415,0.084,0.3,0.0,1.1,-0.1,0.06,8.69,-3.94,1.63,-0.11,0.11,-0.39,2.06,0.63,-1.69,164.64,194.0,0.0,0.0,0.0,0.0
1776450440430406265,43514,0.08,0.3,0.0,1.2,0.0,-0.02,8.5,-4.0,1.81,-0.25,-0.04,-0.34,-0.0,0.75,-1.69,165.33,194.0,0.0,0.0,0.0,0.0
1776450440532787795,43614,0.088,0.0,0.0,1.0,0.02,0.02,8.38,-4.0,1.81,0.08,-0.03,-0.37,-1.81,-1.06,-1.81,165.33,201.0,0.0,0.0,0.0,0.0
1776450440631092934,43714,0.088,0.3,0.0,0.2,0.0,-0.12,8.19,-3.94,1.81,-0.15,0.09,-0.33,0.75,-0.0,-1.94,165.33,193.0,0.0,0.0,0.0,0.0
1776450440729408814,43813,0.0,0.6,0.068,0.4,0.04,-0.08,8.0,-3.94,2.0,-0.3,0.02,-0.38,0.94,0.37,-1.06,165.15,193.0,0.0,0.0,0.0,0.0
1776450440831779011,43913,0.088,0.3,0.0,1.6,-0.06,-0.1,8.0,-4.0,2.13,-0.09,-0.0,-0.36,-1.0,-0.5,-0.31,165.15,185.0,0.0,0.0,0.0,0.0
1776450440930117262,44014,0.092,0.0,0.0,0.2,-0.02,-0.14,8.0,-3.88,2.0,0.28,0.07,-0.33,-0.75,-1.0,-0.69,165.15,185.0,0.0,0.0,0.0,0.0
1776450441038425220,44113,0.0,1.2,0.06,0.2,0.08,-0.04,7.88,-3.81,1.69,0.39,0.08,-0.36,-1.12,-0.5,-0.88,165.15,202.0,0.0,0.0,0.0,0.0
1776450441130801301,44214,0.0,1.0,0.0,1.5,0.14,0.0,7.88,-3.81,1.56,0.01,0.08,-0.35,1.56,0.88,-0.06,165.15,192.0,0.0,0.0,0.0,0.0
1776450441239181186,44314,0.096,0.5,0.068,0.3,0.02,-0.12,7.94,-3.88,1.63,-0.06,-0.0,-0.36,0.5,0.19,1.0,165.15,192.0,0.0,0.0,0.0,0.0
1776450441331508989,44414,0.0,1.4,0.0,1.3,0.16,0.0,8.0,-3.81,1.44,0.34,0.04,-0.38,-1.69,-1.06,1.25,165.33,200.0,0.0,0.0,0.0,0.0
1776450441433875686,44514,0.0,0.5,0.064,0.5,-0.02,-0.23,8.13,-3.81,1.5,0.02,-0.01,-0.32,0.94,0.69,0.88,165.15,183.0,0.0,0.0,0.0,0.0
1776450441532198417,44614,0.0,0.7,0.0,0.3,-0.12,-0.1,8.25,-3.81,1.5,-0.11,0.03,-0.4,0.88,-0.06,1.37,168.76,183.0,0.0,0.0,0.0,0.0
1776450441630511816,44713,0.0,1.4,0.064,0.1,0.04,-0.04,8.38,-3.81,1.56,-0.05,-0.01,-0.38,-0.44,-0.56,2.06,164.64,198.0,0.0,0.0,0.0,0.0
1776450441728753307,44813,0.0,1.2,0.06,0.7,-0.12,-0.04,8.56,-3.69,1.56,-0.1,0.02,-0.38,1.0,-0.81,1.88,168.76,198.0,0.0,0.0,0.0,0.0
1776450441831186504,44913,0.0,0.2,0.056,0.3,-0.06,-0.12,8.69,-3.63,1.69,-0.14,-0.01,-0.36,-0.31,-1.12,0.37,168.76,184.0,0.0,0.0,0.0,0.0
1776450441933580756,45014,0.084,0.2,0.0,0.3,-0.06,-0.08,8.69,-3.5,1.75,-0.03,-0.0,-0.37,-0.5,-1.19,-0.94,168.76,190.0,0.0,0.0,0.0,0.0
1776450442031876340,45115,0.0,1.2,0.068,0.5,-0.16,-0.04,8.5,-3.38,1.63,0.21,0.02,-0.34,-2.06,-1.81,-1.69,161.04,190.0,0.0,0.0,0.0,0.0
1776450442134282758,45215,0.0,1.2,0.0,0.9,-0.04,-0.08,8.31,-3.25,1.25,0.4,0.04,-0.41,-0.44,-1.0,-2.06,165.33,206.0,0.0,0.0,0.0,0.0
1776450442232576509,45316,0.092,0.5,0.0,0.5,-0.04,-0.08,8.06,-3.13,1.12,0.17,0.04,-0.38,0.75,-0.63,-2.56,165.33,181.0,0.0,0.0,0.0,0.0
1776450442334978946,45416,0.092,1.5,0.064,0.4,0.0,-0.08,7.88,-3.13,1.31,-0.26,0.03,-0.33,2.5,0.37,-1.94,165.15,181.0,0.0,0.0,0.0,0.0
1776450442433244974,45517,0.0,0.0,0.0,0.9,-0.04,0.02,7.69,-3.13,1.37,0.0,0.04,-0.38,-0.81,-0.75,-1.25,165.15,189.0,0.0,0.0,0.0,0.0
1776450442535635930,45617,0.088,0.2,0.0,0.5,0.02,-0.06,7.5,-3.13,1.25,0.17,0.09,-0.4,0.06,0.06,-2.06,165.15,190.0,0.0,0.0,0.0,0.0
1776450442633973402,45717,0.0,0.5,0.0,1.4,0.0,-0.06,7.31,-3.19,1.44,-0.25,0.06,-0.34,3.88,2.13,-1.56,165.15,190.0,0.0,0.0,0.0,0.0
1776450442732252615,45816,0.08,0.1,0.064,0.4,0.12,-0.06,7.25,-3.38,1.81,-0.35,-0.05,-0.38,1.56,1.19,-0.06,165.15,201.0,0.0,0.0,0.0,0.0
1776450442834671441,45916,0.0,1.5,0.0,1.1,-0.14,-0.16,7.31,-3.5,2.19,-0.16,-0.03,-0.37,-1.44,-0.63,0.63,165.15,191.0,0.0,0.0,0.0,0.0
1776450442932952210,46017,0.088,0.1,0.0,1.4,0.06,-0.2,7.31,-3.44,2.06,0.1,0.04,-0.35,-1.19,-0.12,0.44,165.15,191.0,0.0,0.0,0.0,0.0
1776450443035369629,46116,0.088,0.7,0.0,1.4,0.02,-0.02,7.38,-3.44,1.88,0.45,0.02,-0.38,-2.75,-0.69,0.63,165.15,191.0,0.0,0.0,0.0,0.0
1776450443137769733,46217,0.092,0.1,0.0,1.5,0.2,-0.08,7.44,-3.31,1.37,0.31,0.14,-0.45,0.88,0.69,1.06,165.33,191.0,0.0,0.0,0.0,0.0
1776450443236083798,46318,0.0,1.2,0.072,0.5,-0.08,-0.04,7.5,-3.44,1.63,-0.34,-0.05,-0.3,4.0,2.19,0.81,165.33,192.0,0.0,0.0,0.0,0.0
1776450443334395307,46417,0.0,0.3,0.0,1.2,0.14,0.06,7.63,-3.56,1.94,-0.35,-0.05,-0.34,1.44,0.25,1.25,164.64,194.0,0.0,0.0,0.0,0.0
1776450443436769966,46517,0.0,0.8,0.068,0.1,0.0,-0.06,7.69,-3.56,1.94,0.16,-0.04,-0.41,-1.56,-1.19,0.37,164.64,194.0,0.0,0.0,0.0,0.0
1776450443535030531,46617,0.0,0.6,0.0,1.4,0.06,0.0,7.69,-3.44,1.69,0.32,0.11,-0.49,0.5,-0.81,-0.63,164.64,184.0,0.0,0.0,0.0,0.0
1776450443633357948,46716,0.0,0.4,0.0,1.2,-0.08,-0.18,7.5,-3.38,2.06,-0.37,-0.02,-0.29,4.38,0.44,-3.38,164.64,183.0,0.0,0.0,0.0,0.0
1776450443735779478,46816,0.084,0.3,0.0,0.5,-0.04,0.0,7.13,-3.44,2.69,-0.56,-0.06,-0.31,2.06,0.06,-4.13,164.64,183.0,0.0,0.0,0.0,0.0
1776450443834061450,46917,0.0,1.0,0.0,1.4,0.08,-0.08,6.81,-3.38,2.63,0.15,0.1,-0.44,-1.25,-1.31,-2.81,168.76,205.0,0.0,0.0,0.0,0.0
1776450443936457535,47016,0.092,0.3,0.0,0.3,-0.02,-0.06,6.44,-3.38,2.63,0.16,-0.04,-0.3,-2.38,-0.69,-4.13,164.64,202.0,0.0,0.0,0.0,0.0
1776450444044824438,47117,0.0,1.2,0.056,0.5,-0.06,-0.1,6.06,-3.31,2.38,0.37,0.05,-0.36,-0.06,-0.25,-4.06,168.24,202.0,0.0,0.0,0.0,0.0
1776450444137170223,47218,0.0,0.3,0.0,0.6,-0.06,0.02,5.63,-3.25,2.0,0.3,0.09,-0.41,1.44,-0.19,-4.56,168.07,211.0,0.0,0.0,0.0,0.0
1776450444235455084,47318,0.092,0.3,0.06,0.1,0.02,0.16,5.19,-3.31,2.13,-0.05,0.11,-0.41,2.63,1.37,-3.19,168.24,211.0,0.0,0.0,0.0,0.0
1776450444337870169,47418,0.0,0.9,0.0,1.3,0.02,-0.14,5.06,-3.44,2.31,-0.05,-0.03,-0.34,-1.81,0.81,0.81,168.76,190.0,0.0,0.0,0.0,0.0
1776450444436223511,47518,0.088,0.2,0.0,0.4,0.12,-0.02,5.38,-3.44,2.13,0.09,0.12,-0.35,-0.75,0.19,3.81,168.24,212.0,0.0,0.0,0.0,0.0
1776450444538505837,47618,0.0,1.2,0.064,0.0,-0.08,-0.08,5.75,-3.44,2.06,0.12,0.06,-0.36,-1.0,0.81,4.31,168.24,212.0,0.0,0.0,0.0,0.0
1776450444636855050,47718,0.0,0.4,0.0,1.3,-0.02,0.1,6.25,-3.5,2.06,-0.07,0.06,-0.46,1.37,1.37,4.63,168.24,208.0,0.0,0.0,0.0,0.0
1776450444735142930,47817,0.08,0.4,0.0,1.2,0.06,-0.12,6.69,-3.63,2.31,-0.25,-0.09,-0.35,-1.75,0.06,3.94,168.24,191.0,0.0,0.0,0.0,0.0
1776450444837560534,47918,0.092,0.2,0.0,0.3,0.0,0.04,7.06,-3.56,2.25,-0.12,0.03,-0.38,-0.37,0.12,3.0,168.24,191.0,0.0,0.0,0.0,0.0
1776450444935848043,48018,0.0,0.9,0.0,0.3,-0.06,-0.1,7.25,-3.56,2.25,-0.06,-0.0,-0.41,-0.88,-0.31,1.75,168.76,210.0,0.0,0.0,0.0,0.0
1776450445044214390,48117,0.0,1.3,0.0,1.1,0.02,-0.12,7.38,-3.56,2.19,-0.02,0.01,-0.38,-0.81,-0.0,1.25,168.24,205.0,0.0,0.0,0.0,0.0
1776450445136578322,48217,0.092,0.0,0.0,1.0,0.06,0.0,7.44,-3.56,2.13,-0.23,0.01,-0.4,0.56,0.25,0.5,164.64,205.0,0.0,0.0,0.0,0.0
1776450445244916003,48317,0.0,0.6,0.0,1.2,-0.08,-0.06,7.5,-3.63,2.44,-0.42,-0.02,-0.37,-0.19,0.12,0.12,168.76,195.0,0.0,0.0,0.0,0.0
1776450445337282861,48417,0.084,0.2,0.0,1.6,-0.21,0.14,7.5,-3.63,2.75,-0.2,-0.04,-0.36,-1.81,-0.75,-0.19,164.64,198.0,0.0,0.0,0.0,0.0
1776450445439616520,48518,0.0,0.1,0.0,1.3,-0.1,-0.14,7.5,-3.56,2.63,0.15,0.1,-0.39,0.44,-0.63,-0.25,164.64,198.0,0.0,0.0,0.0,0.0
1776450445537913770,48618,0.084,0.1,0.0,0.3,0.12,-0.2,7.5,-3.56,2.56,0.24,0.02,-0.36,-1.19,-0.69,-0.12,164.64,185.0,0.0,0.0,0.0,0.0
1776450445640344781,48718,0.0,1.1,0.0,0.3,-0.14,0.12,7.5,-3.5,2.5,0.07,0.02,-0.32,-1.0,-0.19,0.0,164.64,185.0,0.0,0.0,0.0,0.0
1776450445738644679,48819,0.0,1.1,0.064,0.3,0.02,0.06,7.5,-3.44,2.25,0.29,0.08,-0.37,-0.56,-0.44,0.63,164.64,199.0,0.0,0.0,0.0,0.0
1776450445841037764,48920,0.0,1.1,0.064,0.7,-0.08,-0.1,7.5,-3.44,2.06,0.1,0.1,-0.38,0.44,0.12,0.5,168.76,193.0,0.0,0.0,0.0,0.0
1776450445939348717,49019,0.0,1.2,0.072,0.0,0.08,-0.06,7.5,-3.44,2.13,-0.04,-0.0,-0.38,-0.75,0.19,0.94,168.93,193.0,0.0,0.0,0.0,0.0
1776450446041738266,49119,0.0,-0.2,0.0,0.2,0.08,-0.04,7.63,-3.44,2.13,-0.11,-0.01,-0.34,-0.37,-0.0,1.06,168.76,189.0,0.0,0.0,0.0,0.0
1776450446140034478,49220,0.0,0.7,0.056,0.3,-0.04,-0.1,7.75,-3.44,2.0,0.21,0.05,-0.31,-0.94,-0.37,1.88,164.64,202.0,0.0,0.0,0.0,0.0
1776450446248404418,49320,0.0,0.7,0.0,1.2,0.08,0.1,8.0,-3.38,1.69,0.57,0.15,-0.38,-1.44,-0.56,3.5,165.15,202.0,0.0,0.0,0.0,0.0
1776450446340737850,49420,0.084,0.2,0.0,1.2,0.18,0.02,8.38,-3.31,1.5,0.03,0.06,-0.36,0.81,1.06,4.19,165.15,189.0,0.0,0.0,0.0,0.0
1776450446443072935,49521,0.0,0.9,0.0,1.4,-0.08,-0.02,8.81,-3.44,1.69,-0.26,-0.05,-0.29,0.44,0.88,4.69,165.15,189.0,0.0,0.0,0.0,0.0
1776450446541439573,49620,0.0,0.2,0.0,1.2,-0.04,-0.14,9.38,-3.44,1.69,0.04,0.06,-0.37,-0.5,-0.37,5.44,165.15,192.0,0.0,0.0,0.0,0.0
1776450446639714860,49720,0.088,0.2,0.0,1.0,-0.08,-0.21,9.81,-3.38,1.69,0.05,-0.02,-0.38,-0.94,0.06,4.06,165.15,202.0,0.0,0.0,0.0,0.0
1776450446892214849,49820,0.096,0.2,0.06,0.5,-0.12,-0.06,10.19,-3.38,1.63,0.09,0.06,-0.4,0.37,0.56,3.63,165.15,202.0,0.0,0.0,0.0,0.0
1776450446942822984,49921,0.088,0.1,0.0,1.6,-0.04,-0.18,10.5,-3.44,1.75,-0.16,-0.02,-0.42,1.69,0.56,2.81,165.15,198.0,0.0,0.0,0.0,0.0
1776450446955967805,50021,0.088,0.0,0.0,0.6,0.0,0.02,10.75,-3.44,1.94,-0.1,-0.03,-0.39,-0.88,-0.37,2.06,165.33,191.0,0.0,0.0,0.0,0.0
1776450447041133437,50120,0.0,1.2,0.072,0.4,0.1,0.0,10.88,-3.44,1.94,0.0,-0.01,-0.34,-1.06,-0.31,1.19,168.76,191.0,0.0,0.0,0.0,0.0
1776450447139393168,50220,0.004,0.2,0.0,1.1,0.0,-0.04,11.0,-3.38,1.75,0.29,0.1,-0.36,0.31,-0.19,1.0,165.33,201.0,0.0,0.0,0.0,0.0
1776450447241828827,50320,0.092,0.2,0.052,0.2,0.08,-0.12,11.0,-3.38,1.69,0.28,0.02,-0.39,-0.44,0.12,-0.69,169.44,196.0,0.0,0.0,0.0,0.0
1776450447340127558,50420,0.0,0.0,0.0,1.5,-0.02,0.1,10.94,-3.38,1.56,0.22,0.01,-0.33,0.12,-0.25,-0.81,168.76,196.0,0.0,0.0,0.0,0.0
1776450447442514976,50520,0.0,1.4,0.072,0.3,-0.04,-0.06,10.88,-3.38,1.5,0.11,0.02,-0.37,1.94,-0.0,-0.69,168.76,194.0,0.0,0.0,0.0,0.0
1776450447540806670,50621,0.0,0.0,0.0,1.6,0.02,-0.12,10.88,-3.38,1.5,0.17,0.02,-0.43,0.06,-0.69,0.25,165.67,204.0,0.0,0.0,0.0,0.0
1776450447643256403,50721,0.092,0.4,0.064,0.1,-0.12,0.0,10.94,-3.31,1.56,0.19,0.03,-0.38,-0.44,-0.75,1.06,168.76,204.0,0.0,0.0,0.0,0.0
1776450447745636285,50822,0.0,0.4,0.064,0.2,-0.02,0.0,11.06,-3.19,1.56,0.08,0.02,-0.3,1.25,-0.94,2.31,164.64,192.0,0.0,0.0,0.0,0.0
1776450447843910367,50923,0.0,0.8,0.0,1.7,-0.02,0.02,11.38,-3.06,1.5,0.1,0.1,-0.42,1.88,-0.88,3.19,168.76,192.0,0.0,0.0,0.0,0.0
1776450447942195728,51022,0.092,0.2,0.0,1.4,-0.04,-0.25,11.69,-3.06,1.69,-0.04,0.06,-0.4,0.94,-0.44,3.31,168.93,208.0,0.0,0.0,0.0,0.0
1776450448044602757,51122,0.092,1.3,0.0,1.1,0.02,-0.12,12.0,-3.0,1.88,-0.11,0.03,-0.39,-0.37,0.12,3.44,165.33,204.0,0.0,0.0,0.0,0.0
1776450448142933970,51223,0.088,0.4,0.0,1.4,0.02,-0.1,12.38,-3.0,1.94,-0.04,0.05,-0.42,0.25,0.63,4.75,165.33,204.0,0.0,0.0,0.0,0.0
1776450448245306221,51322,0.088,0.2,0.0,1.6,-0.06,-0.12,12.94,-3.06,2.13,-0.21,0.01,-0.34,0.31,1.5,5.56,168.76,198.0,0.0,0.0,0.0,0.0
1776450448343606545,51422,0.0,1.4,0.0,1.2,-0.08,-0.1,13.56,-3.06,2.0,0.22,0.12,-0.47,-1.12,-0.0,6.88,169.44,191.0,0.0,0.0,0.0,0.0
1776450448441885054,51522,0.092,0.0,0.0,1.2,0.16,-0.06,14.19,-3.19,2.19,-0.12,-0.0,-0.37,1.81,2.44,6.0,164.64,191.0,0.0,0.0,0.0,0.0
1776450448544266231,51621,0.092,0.4,0.0,1.1,0.04,-0.1,14.81,-3.25,2.25,-0.02,0.05,-0.49,2.63,1.63,6.75,164.64,187.0,0.0,0.0,0.0,0.0
1776450448642620943,51721,0.08,0.0,0.0,0.5,0.02,-0.14,15.31,-3.44,2.5,-0.07,-0.08,-0.42,-0.0,1.0,4.19,167.73,195.0,0.0,0.0,0.0,0.0
1776450448740897674,51821,0.0,0.9,0.0,1.5,0.06,-0.02,15.63,-3.44,2.69,-0.16,-0.09,-0.36,1.06,-0.37,1.69,168.07,195.0,0.0,0.0,0.0,0.0
1776450448843298204,51920,0.088,-0.1,0.0,1.0,0.02,-0.04,15.69,-3.38,2.81,-0.17,0.02,-0.41,0.94,-1.12,-0.81,168.07,196.0,0.0,0.0,0.0,0.0
1776450448941603286,52020,0.0,1.0,0.06,0.2,0.16,-0.16,15.5,-3.38,2.94,-0.21,-0.03,-0.37,-0.25,-0.69,-3.31,168.07,196.0,0.0,0.0,0.0,0.0
1776450449039874536,52120,0.0,0.9,0.0,1.5,-0.1,-0.18,15.13,-3.25,2.81,0.13,-0.0,-0.34,-1.75,-1.06,-3.63,168.24,179.0,0.0,0.0,0.0,0.0
1776450449142312991,52219,0.088,0.4,0.0,1.4,0.0,0.0,14.75,-3.25,2.69,0.11,0.04,-0.38,-0.31,-0.12,-3.94,168.24,189.0,0.0,0.0,0.0,0.0
1776450449244701909,52320,0.088,0.1,0.0,0.5,0.02,-0.06,14.44,-3.31,2.75,-0.24,0.02,-0.32,0.37,1.0,-2.69,168.24,189.0,0.0,0.0,0.0,0.0
1776450449342993288,52420,0.0,1.2,0.0,1.2,-0.12,-0.14,14.25,-3.38,2.69,-0.03,-0.0,-0.32,-2.13,0.12,-1.5,168.24,206.0,0.0,0.0,0.0,0.0
1776450449441267130,52520,0.096,1.3,0.06,0.3,0.0,-0.02,14.06,-3.38,2.44,0.25,-0.0,-0.39,-1.31,-0.37,-1.37,168.24,213.0,0.0,0.0,0.0,0.0
1776450449543661714,52620,0.0,0.2,0.0,1.6,0.0,-0.18,13.88,-3.38,2.25,0.13,0.07,-0.31,-0.5,0.63,-2.25,168.07,213.0,0.0,0.0,0.0,0.0
1776450449642000390,52720,0.092,0.1,0.0,1.4,0.2,-0.06,13.75,-3.38,2.19,-0.12,0.04,-0.35,-0.56,0.12,-0.5,168.24,186.0,0.0,0.0,0.0,0.0
1776450449744385789,52819,0.092,0.1,0.0,1.6,0.06,-0.1,13.81,-3.38,2.19,-0.16,-0.01,-0.33,-0.94,0.25,0.69,168.76,205.0,0.0,0.0,0.0,0.0
1776450449842693094,52920,0.088,0.3,0.0,1.4,-0.14,-0.08,13.88,-3.38,2.06,-0.12,-0.02,-0.38,-1.5,-0.19,0.94,164.64,205.0,0.0,0.0,0.0,0.0
1776450449940982603,53020,0.084,0.4,0.0,1.8,0.02,0.02,14.0,-3.31,1.88,0.09,0.02,-0.33,-2.19,-0.81,1.19,164.64,209.0,0.0,0.0,0.0,0.0
1776450450043389076,53120,0.0,0.2,0.0,1.0,-0.16,0.04,14.13,-3.25,1.69,0.09,0.06,-0.4,-0.88,-0.81,1.44,164.47,209.0,0.0,0.0,0.0,0.0
1776450450141691900,53220,0.084,0.8,0.0,0.2,0.12,-0.1,14.25,-3.25,1.63,0.07,0.03,-0.39,-2.0,-0.31,1.63,164.64,224.0,0.0,0.0,0.0,0.0
1776450450244082484,53319,0.0,1.3,0.068,0.5,0.08,-0.02,14.44,-3.25,1.63,-0.21,-0.0,-0.31,-0.94,0.75,1.56,164.64,204.0,0.0,0.0,0.0,0.0
1776450450342394585,53420,0.088,1.0,0.06,0.2,0.0,-0.12,14.63,-3.25,1.5,0.14,0.04,-0.39,-1.5,-0.44,1.69,164.64,204.0,0.0,0.0,0.0,0.0
1776450450444748392,53520,0.0,1.3,0.06,0.3,0.0,0.0,14.75,-3.25,1.31,0.22,-0.0,-0.34,-1.37,-0.06,1.19,164.47,179.0,0.0,0.0,0.0,0.0
1776450450543081234,53620,0.0,1.1,0.0,1.6,0.0,-0.06,14.81,-3.25,1.25,-0.05,0.04,-0.35,1.63,0.37,0.88,168.76,206.0,0.0,0.0,0.0,0.0
1776450450645491818,53720,0.0,1.4,0.0,0.7,0.02,-0.04,14.88,-3.25,1.37,-0.22,-0.0,-0.33,0.56,-0.06,0.31,168.76,206.0,0.0,0.0,0.0,0.0
1776450450743777660,53821,0.084,1.2,0.064,0.6,0.04,-0.12,14.81,-3.25,1.37,-0.06,-0.0,-0.36,-0.0,-0.63,-0.81,172.36,214.0,0.0,0.0,0.0,0.0
1776450450842076039,53920,0.088,0.4,0.0,1.1,0.1,0.0,14.69,-3.25,1.25,0.3,-0.0,-0.36,-2.5,-0.94,-2.5,168.07,206.0,0.0,0.0,0.0,0.0
1776450450944477253,54021,0.0,0.9,0.0,1.4,-0.1,-0.12,14.38,-3.19,1.0,0.25,0.06,-0.44,0.69,-0.0,-3.88,164.47,206.0,0.0,0.0,0.0,0.0
1776450451052839544,54121,0.092,0.2,0.0,1.4,0.04,-0.06,14.0,-3.25,1.06,0.02,-0.02,-0.33,-0.37,0.63,-3.44,168.76,187.0,0.0,0.0,0.0,0.0
1776450451145171624,54221,0.0,1.3,0.0,1.3,-0.12,-0.1,13.75,-3.25,1.0,-0.05,0.06,-0.4,3.0,0.69,-1.75,168.76,187.0,0.0,0.0,0.0,0.0
1776450451247567931,54322,0.096,0.3,0.06,0.3,0.12,0.02,13.63,-3.38,1.19,-0.19,-0.03,-0.35,0.63,1.37,-1.0,164.47,202.0,0.0,0.0,0.0,0.0
1776450451345858754,54422,0.0,0.2,0.0,1.4,0.02,0.04,13.56,-3.44,1.31,0.0,-0.03,-0.42,-1.06,-0.0,-0.25,164.47,193.0,0.0,0.0,0.0,0.0
1776450451448239542,54522,0.092,1.3,0.076,0.5,-0.1,-0.04,13.56,-3.5,1.37,-0.05,-0.01,-0.34,-0.37,0.37,-1.56,168.76,193.0,0.0,0.0,0.0,0.0
1776450451546535569,54622,0.0,1.2,0.0,1.1,-0.06,-0.18,13.38,-3.5,1.31,-0.06,0.04,-0.35,1.88,0.75,-2.0,168.76,187.0,0.0,0.0,0.0,0.0
1776450451644862151,54722,0.088,0.3,0.0,1.5,0.06,-0.14,13.19,-3.5,1.37,0.04,0.03,-0.39,1.94,0.56,-0.75,168.76,216.0,0.0,0.0,0.0,0.0
1776450451908212329,54821,0.096,0.4,0.0,1.6,0.04,-0.16,13.19,-3.56,1.5,0.13,0.01,-0.42,-1.12,-0.12,-0.25,164.64,216.0,0.0,0.0,0.0,0.0
1776450451943869845,54921,0.096,0.0,0.0,1.6,0.04,-0.1,13.19,-3.56,1.5,0.11,0.01,-0.34,-1.25,-0.25,-0.44,164.64,194.0,0.0,0.0,0.0,0.0
1776450451956458259,55021,0.092,0.1,0.072,0.5,0.0,-0.2,13.13,-3.56,1.56,-0.08,-0.0,-0.36,3.94,0.75,0.37,168.76,220.0,0.0,0.0,0.0,0.0
1776450452046273096,55120,0.0,1.4,0.068,0.5,-0.08,0.0,13.13,-3.56,1.56,0.24,-0.03,-0.39,-2.25,-0.75,0.5,169.79,220.0,0.0,0.0,0.0,0.0
1776450452144537031,55221,0.0,1.3,0.0,1.3,0.02,-0.06,13.06,-3.5,1.56,0.02,-0.01,-0.39,2.38,-0.12,-1.81,168.76,210.0,0.0,0.0,0.0,0.0
1776450452242820298,55321,0.0,0.7,0.0,1.4,-0.1,-0.02,12.81,-3.56,1.88,-0.24,-0.01,-0.34,2.38,-0.37,-3.69,168.93,210.0,0.0,0.0,0.0,0.0
1776450452345256179,55420,0.096,0.3,0.0,1.4,-0.08,-0.12,12.38,-3.56,2.19,-0.29,-0.03,-0.35,1.75,-0.75,-5.0,164.64,189.0,0.0,0.0,0.0,0.0
1776450452443527243,55520,0.092,0.2,0.0,1.8,0.16,0.04,11.75,-3.44,2.13,0.16,-0.04,-0.36,-1.75,-1.88,-7.31,164.64,207.0,0.0,0.0,0.0,0.0
1776450452545911475,55620,0.088,0.1,0.0,1.5,0.08,0.02,11.0,-3.31,1.94,0.27,0.07,-0.38,1.81,-1.0,-8.06,164.64,207.0,0.0,0.0,0.0,0.0
1776450452644265632,55719,0.088,0.2,0.0,1.6,0.12,-0.14,10.25,-3.25,1.88,0.17,0.11,-0.41,0.25,-0.31,-7.19,164.64,188.0,0.0,0.0,0.0,0.0
1776450452742498344,55819,0.1,0.0,0.0,1.4,0.02,-0.02,9.94,-3.31,2.13,-0.65,-0.0,-0.34,2.75,0.75,5.5,167.56,194.0,0.0,0.0,0.0,0.0
1776450452844960946,55919,0.088,0.5,0.064,0.1,0.0,-0.23,11.31,-3.25,2.31,-0.32,-0.03,-0.36,-2.06,0.06,15.38,162.75,194.0,0.0,0.0,0.0,0.0
1776450452943259751,56018,0.088,0.3,0.0,1.2,0.04,-0.1,12.44,-3.25,2.31,-0.21,-0.04,-0.36,-0.5,-0.63,8.63,162.24,187.0,0.0,0.0,0.0,0.0
1776450453045656909,56119,0.0,0.9,0.068,0.6,0.08,-0.14,13.06,-3.25,2.44,-0.34,0.11,-0.43,0.44,-0.5,6.19,162.24,202.0,0.0,0.0,0.0,0.0
1776450453143963158,56220,0.0,0.2,0.0,1.5,-0.06,-0.02,13.5,-3.19,2.88,-0.84,-0.03,-0.15,1.5,0.5,0.31,162.24,202.0,0.0,0.0,0.0,0.0
1776450453246350687,56320,0.0,1.4,0.068,0.7,0.06,-0.04,13.5,-3.19,2.69,0.6,0.16,-0.42,0.88,-0.25,0.5,167.04,188.0,0.0,0.0,0.0,0.0
1776450453344706955,56420,0.0,0.1,0.064,0.4,0.06,-0.12,13.5,-3.19,2.88,-0.12,-0.08,-0.3,-0.19,0.75,0.19,167.73,188.0,0.0,0.0,0.0,0.0
1776450453442870815,56520,0.0,1.2,0.0,1.4,0.08,-0.18,13.5,-3.25,2.81,0.15,0.1,-0.37,1.12,-0.12,0.25,167.56,215.0,0.0,0.0,0.0,0.0
1776450453545315343,56620,0.096,0.5,0.068,0.4,0.06,0.0,13.5,-3.19,2.88,0.14,-0.02,-0.33,-0.12,0.12,0.06,164.13,211.0,0.0,0.0,0.0,0.0
1776450453647782520,56720,0.0,0.9,0.0,0.3,0.02,-0.08,13.5,-3.19,2.81,0.05,-0.0,-0.35,0.25,0.19,0.19,165.15,211.0,0.0,0.0,0.0,0.0
1776450453746053565,56821,0.0,1.3,0.068,0.6,0.16,-0.04,13.5,-3.19,2.81,0.09,0.03,-0.34,-0.06,-0.06,0.12,163.95,205.0,0.0,0.0,0.0,0.0
1776450453848443409,56921,0.0,1.2,0.068,0.4,0.21,-0.08,13.5,-3.19,2.81,0.08,-0.0,-0.34,0.06,-0.06,0.06,163.95,220.0,0.0,0.0,0.0,0.0
1776450453946780639,57021,0.088,0.2,0.068,0.1,-0.04,-0.18,13.5,-3.19,2.81,0.07,0.01,-0.35,0.12,-0.06,0.0,168.24,220.0,0.0,0.0,0.0,0.0
1776450454055095893,57121,0.0,1.0,0.0,1.6,0.14,-0.08,13.5,-3.19,2.81,0.1,0.03,-0.35,0.06,0.06,0.06,169.27,212.0,0.0,0.0,0.0,0.0
1776450454147448194,57222,0.088,1.1,0.0,1.0,0.1,-0.08,13.5,-3.19,2.75,0.07,0.01,-0.37,0.06,0.06,0.12,163.95,212.0,0.0,0.0,0.0,0.0
1776450454245735166,57322,0.096,0.4,0.0,1.2,0.0,-0.08,13.5,-3.19,2.75,0.08,0.02,-0.36,0.12,-0.0,-0.06,167.56,212.0,0.0,0.0,0.0,0.0
1776450454348168268,57421,0.092,0.3,0.0,1.2,0.02,0.0,13.5,-3.19,2.75,0.09,0.02,-0.38,0.19,-0.12,0.0,163.44,196.0,0.0,0.0,0.0,0.0
1776450454446388776,57522,0.088,0.1,0.0,0.4,-0.12,-0.2,13.5,-3.19,2.75,0.07,0.03,-0.36,-0.0,0.06,-0.06,167.56,190.0,0.0,0.0,0.0,0.0
1776450454548871509,57622,0.0,0.7,0.064,0.5,-0.02,-0.04,13.5,-3.19,2.75,0.05,0.01,-0.36,-0.0,0.06,-0.06,167.56,190.0,0.0,0.0,0.0,0.0
1776450454647142017,57721,0.0,0.7,0.076,0.2,0.1,-0.14,13.5,-3.19,2.75,0.07,0.02,-0.35,-0.0,-0.0,0.06,163.44,190.0,0.0,0.0,0.0,0.0
1776450454755484937,57821,0.0,1.0,0.064,0.3,0.04,-0.1,13.5,-3.19,2.75,0.08,0.01,-0.35,-0.06,0.06,0.06,163.44,190.0,0.0,0.0,0.0,0.0
1776450454847831035,57921,0.0,0.7,0.0,0.5,-0.02,0.02,13.5,-3.19,2.75,0.05,0.02,-0.35,-0.0,0.12,-0.06,167.38,201.0,0.0,0.0,0.0,0.0
1776450454946133450,58020,0.0,1.3,0.0,1.2,-0.04,-0.02,13.5,-3.19,2.75,0.09,0.01,-0.36,-0.12,-0.12,-0.12,167.56,192.0,0.0,0.0,0.0,0.0
1776450455048556553,58120,0.08,0.2,0.0,1.2,0.1,-0.14,13.5,-3.19,2.75,0.05,0.02,-0.34,-0.06,-0.06,-0.12,171.84,192.0,0.0,0.0,0.0,0.0
1776450455146833505,58221,0.092,0.3,0.0,0.9,0.12,-0.12,13.5,-3.19,2.75,0.06,0.02,-0.35,0.06,0.06,0.0,167.56,191.0,0.0,0.0,0.0,0.0
1776450455245113328,58320,0.092,0.0,0.064,0.2,0.08,-0.08,13.5,-3.19,2.75,0.05,0.02,-0.36,0.12,-0.06,-0.06,171.67,190.0,0.0,0.0,0.0,0.0
1776450455347544912,58421,0.084,0.1,0.0,1.6,-0.08,-0.16,13.5,-3.19,2.75,0.05,0.01,-0.34,-0.06,0.06,0.0,167.56,190.0,0.0,0.0,0.0,0.0
1776450455445746346,58521,0.084,0.1,0.0,1.5,0.06,0.0,13.5,-3.19,2.75,0.07,0.02,-0.37,-0.12,0.06,0.06,167.56,194.0,0.0,0.0,0.0,0.0
1776450455548203374,58621,0.088,0.2,0.0,0.5,-0.06,0.02,13.5,-3.19,2.75,0.08,-0.0,-0.37,-0.0,0.12,0.06,163.27,194.0,0.0,0.0,0.0,0.0
1776450455646459160,58721,0.0,0.2,0.0,0.3,0.06,-0.21,13.5,-3.19,2.75,0.08,0.04,-0.37,0.06,0.12,-0.06,163.44,216.0,0.0,0.0,0.0,0.0
1776450455748919707,58821,0.0,0.9,0.068,1.7,0.06,-0.02,13.5,-3.19,2.75,0.08,0.01,-0.37,-0.06,0.06,0.06,167.56,202.0,0.0,0.0,0.0,0.0
1776450455847223641,58920,0.092,0.3,0.0,1.5,-0.02,-0.29,13.5,-3.19,2.75,0.06,0.02,-0.37,-0.0,-0.0,0.0,168.24,202.0,0.0,0.0,0.0,0.0
1776450455949612781,59020,0.0,1.2,0.0,1.1,0.12,-0.06,13.5,-3.19,2.75,0.08,0.1,-0.34,0.06,-0.19,0.0,168.24,195.0,0.0,0.0,0.0,0.0
1776450456047907344,59121,0.084,0.4,0.0,1.2,-0.06,-0.04,13.5,-3.19,2.75,0.05,-0.08,-0.33,0.06,0.31,0.12,168.24,188.0,0.0,0.0,0.0,0.0
1776450456146226482,59220,0.0,0.9,0.0,1.1,0.0,0.04,13.5,-3.19,2.75,0.15,0.08,-0.33,-0.0,0.25,0.19,168.76,188.0,0.0,0.0,0.0,0.0
1776450456248619899,59321,0.08,0.0,0.0,1.1,0.06,-0.16,13.5,-3.19,2.75,0.02,0.01,-0.37,-0.63,0.25,0.06,168.24,196.0,0.0,0.0,0.0,0.0
1776450456346928574,59421,0.088,0.1,0.0,0.9,-0.1,-0.18,13.5,-3.19,2.75,0.15,0.03,-0.43,0.06,-0.19,1.44,164.47,190.0,0.0,0.0,0.0,0.0
1776450456449308435,59521,0.088,0.4,0.0,0.6,0.1,-0.06,13.69,-3.19,2.81,-0.02,-0.02,-0.42,0.5,-0.69,1.06,168.07,190.0,0.0,0.0,0.0,0.0
1776450456547575758,59621,0.0,0.7,0.0,1.6,0.1,-0.08,13.81,-3.19,2.81,0.03,0.1,-0.32,-1.12,-0.12,0.5,168.24,192.0,0.0,0.0,0.0,0.0
1776450456645924673,59720,0.0,1.3,0.0,1.0,0.08,-0.1,13.88,-3.19,2.75,-0.08,-0.05,-0.34,0.88,-0.37,2.56,168.24,190.0,0.0,0.0,0.0,0.0
1776450456832213629,59820,0.092,0.3,0.0,1.4,0.06,-0.06,14.38,-3.19,2.81,0.04,0.11,-0.48,0.56,1.19,7.56,168.24,190.0,0.0,0.0,0.0,0.0
1776450456856674566,59921,0.0,1.0,0.056,0.2,0.02,-0.1,15.5,-3.25,3.06,0.03,-0.15,-0.32,1.0,0.19,13.31,169.79,192.0,0.0,0.0,0.0,0.0
1776450456949007257,60021,0.0,0.3,0.0,1.4,-0.02,-0.18,16.37,-3.25,3.06,0.18,-0.08,-0.29,-0.31,-0.81,3.19,169.44,192.0,0.0,0.0,0.0,0.0
1776450457047281672,60121,0.084,0.1,0.0,0.7,0.16,-0.1,16.44,-3.19,3.0,-0.12,0.04,-0.36,1.69,0.5,0.0,172.87,195.0,0.0,0.0,0.0,0.0
1776450457149711107,60221,0.0,0.7,0.0,1.5,-0.02,0.0,16.5,-3.19,3.0,0.32,-0.01,-0.33,-2.0,-0.06,0.19,169.44,193.0,0.0,0.0,0.0,0.0
1776450457248014504,60321,0.088,0.0,0.0,1.4,-0.08,-0.1,16.5,-3.19,3.0,-0.34,0.16,-0.3,0.44,0.19,0.88,168.76,193.0,0.0,0.0,0.0,0.0
1776450457350371218,60421,0.084,0.0,0.0,1.4,0.23,-0.16,17.31,-3.25,3.06,-0.38,0.19,-0.39,-1.56,2.06,17.56,167.56,190.0,0.0,0.0,0.0,0.0
1776450457448697929,60521,0.088,0.4,0.0,0.1,-0.12,-0.06,20.25,-3.19,3.25,-0.01,-0.05,-0.35,-3.0,2.56,35.88,167.56,194.0,0.0,0.0,0.0,0.0
1776450457546991270,60620,0.0,1.4,0.0,1.2,0.0,0.04,23.19,-3.13,3.13,0.67,-0.07,-0.27,-2.63,0.81,22.19,169.1,194.0,0.0,0.0,0.0,0.0
1776450457649415613,60721,0.088,0.3,0.0,1.1,0.08,-0.02,24.44,-3.38,2.94,0.03,-0.26,-0.35,-0.94,4.06,6.25,164.64,192.0,0.0,0.0,0.0,0.0
1776450457747716269,60821,0.0,0.3,0.08,0.2,0.0,-0.04,24.81,-3.81,2.81,0.14,-0.15,-0.48,-2.38,1.63,2.94,160.52,195.0,0.0,0.0,0.0,0.0
1776450458292220073,60920,0.0,1.2,0.068,0.2,-0.08,-0.2,25.37,-3.81,2.75,-0.05,0.22,-0.33,-0.5,2.13,7.69,166.36,195.0,0.0,0.0,0.0,0.0
1776450458349789951,61020,0.0,0.2,0.064,0.5,0.0,-0.16,26.56,-4.0,2.69,-0.04,0.12,-0.32,-1.25,1.63,15.38,166.36,193.0,0.0,0.0,0.0,0.0
1776450458358165085,61121,0.0,0.6,0.0,1.5,0.0,-0.1,28.31,-4.06,2.63,0.2,0.02,-0.34,-0.88,4.69,16.0,169.27,193.0,0.0,0.0,0.0,0.0
1776450458362099290,61220,0.088,0.3,0.0,1.6,-0.06,-0.18,29.87,-4.44,2.75,-0.1,-0.28,-0.34,-1.0,3.0,17.31,169.44,193.0,0.0,0.0,0.0,0.0
1776450458366410737,61321,0.088,0.3,0.0,1.7,0.1,0.02,32.06,-4.44,2.63,0.25,0.14,-0.41,-3.44,0.94,25.94,169.96,194.0,0.0,0.0,0.0,0.0
1776450458370236368,61422,0.0,1.4,0.0,0.2,0.0,-0.02,34.81,-4.5,2.69,0.0,-0.09,-0.44,-1.31,2.69,29.75,169.27,194.0,0.0,0.0,0.0,0.0
1776450458452202090,61521,0.0,0.7,0.0,1.4,0.02,0.0,37.63,-4.69,2.88,-0.22,-0.23,-0.39,-0.31,1.75,27.62,169.27,193.0,0.0,0.0,0.0,0.0
1776450458550495043,61622,0.0,1.2,0.056,0.6,0.0,0.06,40.38,-4.69,3.06,-0.2,0.06,-0.3,-1.81,-0.31,28.06,169.27,194.0,0.0,0.0,0.0,0.0
1776450458652899515,61723,0.0,0.9,0.0,1.4,0.02,-0.04,42.81,-4.69,3.06,0.06,-0.17,-0.48,-1.69,1.5,24.0,168.76,194.0,0.0,0.0,0.0,0.0
1776450458751211134,61822,0.084,0.1,0.0,1.2,-0.02,0.0,44.94,-4.81,3.31,-0.31,-0.28,-0.4,-1.0,2.38,17.37,168.76,193.0,0.0,0.0,0.0,0.0
1776450458853602940,61922,0.084,0.2,0.0,1.3,0.04,0.0,46.06,-5.06,3.38,-0.13,-0.0,-0.43,-4.06,1.44,11.88,169.44,192.0,0.0,0.0,0.0,0.0
1776450458951887040,62022,0.092,0.4,0.052,0.6,0.16,0.02,47.25,-5.19,3.13,0.04,0.11,-0.4,-2.19,2.5,12.88,169.96,192.0,0.0,0.0,0.0,0.0
1776450459054293994,62123,0.0,0.5,0.0,1.7,-0.14,0.0,48.56,-5.38,3.06,0.09,-0.19,-0.43,-0.63,1.12,15.75,169.27,195.0,0.0,0.0,0.0,0.0
1776450459152588243,62223,0.092,0.4,0.0,1.5,0.04,-0.04,50.38,-5.31,3.13,0.0,0.1,-0.43,-2.06,-0.63,22.25,169.27,195.0,0.0,0.0,0.0,0.0
1776450459254976660,62324,0.088,-0.1,0.0,1.6,-0.04,-0.02,52.69,-5.13,3.31,-0.14,-0.0,-0.48,0.06,0.69,23.44,172.87,194.0,0.0,0.0,0.0,0.0
1776450459353304852,62425,0.088,0.0,0.0,1.4,-0.02,-0.14,55.0,-5.0,3.5,-0.3,0.03,-0.35,-1.69,-1.06,23.87,171.84,196.0,0.0,0.0,0.0,0.0
1776450459455653232,62525,0.088,0.2,0.0,1.4,0.04,-0.08,57.19,-4.88,3.63,0.09,0.05,-0.39,-2.0,-0.31,24.19,172.36,196.0,0.0,0.0,0.0,0.0
1776450459553967444,62625,0.096,0.2,0.0,1.6,-0.06,-0.25,59.56,-4.75,3.63,-0.29,0.07,-0.39,-2.88,3.06,21.75,172.36,194.0,0.0,0.0,0.0,0.0
1776450459992222661,62725,0.0,1.4,0.068,0.4,-0.06,-0.14,61.38,-4.94,3.63,0.11,-0.39,-0.5,-0.44,0.37,16.0,172.87,193.0,0.0,0.0,0.0,0.0
1776450460057789321,62825,0.0,0.3,0.0,1.1,0.1,-0.06,63.31,-4.69,3.69,-0.16,0.35,-0.3,-3.19,-0.44,25.37,172.36,193.0,0.0,0.0,0.0,0.0
1776450460071211697,62926,0.088,0.4,0.0,1.1,0.1,0.14,65.5,-4.75,3.69,0.02,-0.15,-0.53,-2.94,3.56,21.06,173.04,195.0,0.0,0.0,0.0,0.0
1776450460084128629,63026,0.088,0.3,0.0,1.2,0.0,-0.04,68.0,-4.63,3.69,-0.24,0.09,-0.37,0.06,-0.12,25.12,173.04,193.0,0.0,0.0,0.0,0.0
1776450460096961468,63127,0.088,0.3,0.0,1.0,0.12,-0.21,70.31,-4.44,3.88,0.0,-0.29,-0.38,-0.0,-1.44,21.44,172.36,193.0,0.0,0.0,0.0,0.0
1776450460156073328,63226,0.096,0.3,0.0,1.1,0.18,-0.16,71.31,-4.5,4.13,-0.21,-0.95,-0.66,1.88,-1.63,-0.81,166.36,195.0,0.0,0.0,0.0,0.0
1776450460258462078,63327,0.096,0.3,0.0,1.2,0.02,-0.1,71.25,-4.56,4.31,-0.05,-0.07,-0.55,-0.75,-5.25,-0.12,171.16,195.0,0.0,0.0,0.0,0.0
1776450460356784382,63427,0.0,0.5,0.092,0.2,-0.06,0.0,71.25,-4.31,4.31,-0.04,0.06,-0.36,1.0,1.44,-0.25,167.38,191.0,0.0,0.0,0.0,0.0
1776450460459118595,63527,0.0,0.9,0.076,0.5,0.0,-0.16,71.25,-4.38,4.38,-0.02,0.07,-0.4,-0.56,-1.25,-0.19,166.36,194.0,0.0,0.0,0.0,0.0
1776450460557448066,63628,0.0,1.3,0.0,1.2,-0.16,-0.14,71.25,-4.31,4.38,-0.09,0.02,-0.37,0.19,0.37,-0.31,165.67,194.0,0.0,0.0,0.0,0.0
1776450460655757611,63728,0.096,0.3,0.0,1.3,-0.08,-0.08,71.25,-4.25,4.38,-0.01,0.11,-0.35,-0.19,-0.75,-0.19,166.36,193.0,0.0,0.0,0.0,0.0
1776450460764215567,63827,0.08,0.9,0.076,0.4,-0.04,-0.14,71.25,-4.25,4.38,-0.05,-0.02,-0.45,0.19,-0.19,-0.19,166.36,194.0,0.0,0.0,0.0,0.0
1776450460860560907,63928,0.0,0.7,0.048,0.3,0.06,-0.12,71.25,-4.19,4.44,0.0,0.11,-0.39,-0.06,-0.31,-0.31,166.36,194.0,0.0,0.0,0.0,0.0
1776450460958857229,64028,0.0,0.5,0.0,1.6,-0.02,-0.02,71.25,-4.19,4.44,-0.07,0.08,-0.37,-0.37,-0.37,-0.37,166.36,192.0,0.0,0.0,0.0,0.0
1776450461061252035,64129,0.092,0.2,0.0,1.6,0.0,-0.1,71.25,-4.19,4.44,-0.06,0.07,-0.36,0.12,-0.19,-0.25,166.87,194.0,0.0,0.0,0.0,0.0
1776450461159559468,64229,0.1,0.2,0.0,1.5,-0.1,-0.02,71.25,-4.19,4.44,0.0,0.06,-0.41,-0.19,-0.37,0.0,168.07,194.0,0.0,0.0,0.0,0.0
1776450461261925607,64330,0.0,0.4,0.0,1.4,0.06,-0.1,71.25,-4.19,4.5,-0.13,0.01,-0.38,-0.37,-0.44,-0.25,166.36,192.0,0.0,0.0,0.0,0.0
1776450461360215485,64430,0.092,0.2,0.0,0.3,0.0,-0.06,71.31,-4.13,4.44,0.1,0.17,-0.27,1.12,1.63,1.44,166.7,195.0,0.0,0.0,0.0,0.0
1776450461462645365,64531,0.0,0.7,0.0,1.5,0.02,-0.06,71.56,-4.19,4.5,-0.01,0.08,-0.41,-2.56,-1.0,6.5,166.36,195.0,0.0,0.0,0.0,0.0
1776450461560960224,64631,0.084,0.2,0.0,0.2,-0.08,-0.04,72.75,-4.13,4.31,0.47,0.36,-0.28,-1.69,2.94,21.0,166.36,194.0,0.0,0.0,0.0,0.0
1776450461663354271,64731,0.0,1.2,0.0,1.1,-0.1,-0.21,75.44,-4.13,4.31,0.33,-0.17,-0.31,-0.88,-0.12,33.0,165.33,194.0,0.0,0.0,0.0,0.0
1776450461761663426,64831,0.092,0.1,0.0,1.2,-0.04,0.0,78.81,-3.88,4.31,0.17,0.07,-0.4,-4.19,-0.31,37.25,168.58,194.0,0.0,0.0,0.0,0.0
1776450461864034213,64931,0.088,0.2,0.0,1.3,0.12,-0.1,82.56,-3.63,4.19,0.05,-0.0,-0.31,-3.56,1.44,39.75,168.24,194.0,0.0,0.0,0.0,0.0
1776450461962343869,65032,0.088,0.2,0.0,1.1,0.04,-0.18,86.37,-3.5,4.19,-0.22,0.04,-0.24,-2.75,0.12,37.44,168.07,194.0,0.0,0.0,0.0,0.0
1776450462064747767,65132,0.0,0.0,0.0,1.4,0.02,-0.06,89.87,-3.38,4.13,-0.09,0.01,-0.4,-2.5,0.69,35.56,168.24,192.0,0.0,0.0,0.0,0.0
1776450462196225604,65232,0.0,1.3,0.0,1.2,0.06,0.02,93.19,-3.25,4.19,-0.37,0.13,-0.49,-2.63,1.69,32.38,167.56,193.0,0.0,0.0,0.0,0.0
1776450462265449469,65332,0.1,0.2,0.0,1.2,0.02,-0.12,95.19,-3.13,4.56,-1.67,0.63,-0.4,2.06,-1.63,4.0,168.07,193.0,0.0,0.0,0.0,0.0
1776450462363725458,65433,0.0,0.1,0.0,1.5,-0.04,-0.12,95.19,-3.25,4.13,0.74,0.15,-0.45,-1.63,2.63,0.56,172.36,191.0,0.0,0.0,0.0,0.0
1776450462466109245,65533,0.092,0.1,0.0,1.5,0.06,0.1,95.37,-3.5,4.38,-0.44,-0.11,-0.55,-0.81,2.69,4.56,168.24,193.0,0.0,0.0,0.0,0.0
1776450462564413011,65633,0.0,1.2,0.072,0.1,0.02,-0.1,95.81,-3.56,4.25,0.05,0.4,-0.3,-0.75,1.44,7.63,168.24,193.0,0.0,0.0,0.0,0.0
1776450462666840354,65734,0.0,1.2,0.072,0.3,-0.06,-0.12,97.25,-3.69,4.19,-0.17,0.13,-0.38,-4.44,3.0,17.56,167.56,195.0,0.0,0.0,0.0,0.0
1776450462765132787,65833,0.0,0.3,0.0,1.3,-0.02,0.04,98.87,-3.88,3.94,-0.13,-0.17,-0.31,-2.0,4.38,11.13,166.87,195.0,0.0,0.0,0.0,0.0
1776450462873509392,65933,0.092,0.3,0.0,1.2,0.04,-0.16,99.69,-4.13,3.81,-0.06,-0.29,-0.54,-1.56,-0.88,8.38,167.04,193.0,0.0,0.0,0.0,0.0
1776450462965831822,66033,0.088,0.1,0.0,1.2,-0.02,-0.06,99.75,-4.19,3.94,-0.03,-0.15,-0.61,-0.31,-5.75,-0.25,167.04,191.0,0.0,0.0,0.0,0.0
1776450463068248554,66134,0.084,0.4,0.0,0.4,-0.1,0.0,99.75,-3.63,3.88,-0.05,0.72,-0.35,-1.5,-3.56,-0.5,168.24,191.0,0.0,0.0,0.0,0.0
1776450463166520469,66235,0.0,0.7,0.06,0.2,-0.18,-0.14,99.75,-3.38,3.81,-0.03,0.01,-0.45,1.56,1.19,-0.25,168.24,192.0,0.0,0.0,0.0,0.0
1776450463264820383,66334,0.0,1.4,0.072,0.1,-0.02,-0.14,99.75,-3.44,3.88,0.0,0.03,-0.33,-0.69,-1.37,-0.31,168.76,193.0,0.0,0.0,0.0,0.0
1776450463367226948,66435,0.0,1.3,0.072,0.2,0.1,-0.1,99.75,-3.31,3.88,-0.17,-0.02,-0.37,0.31,0.37,-0.19,164.47,193.0,0.0,0.0,0.0,0.0
1776450463465491826,66535,0.0,0.6,0.0,1.2,0.04,0.02,99.75,-3.31,3.88,-0.09,0.02,-0.39,-0.19,-0.69,-0.31,168.76,193.0,0.0,0.0,0.0,0.0
1776450463567938131,66635,0.088,0.2,0.0,1.2,0.06,-0.1,99.75,-3.25,3.94,-0.05,0.04,-0.44,0.06,-0.0,-0.5,164.64,189.0,0.0,0.0,0.0,0.0
1776450463666174953,66735,0.0,0.6,0.064,0.5,0.08,0.04,99.69,-3.25,3.94,-0.04,0.08,-0.34,0.06,-0.63,-0.63,164.47,189.0,0.0,0.0,0.0,0.0
1776450463768616259,66836,0.0,0.4,0.0,1.6,0.04,0.0,99.62,-3.25,3.94,-0.02,0.04,-0.35,-0.25,-0.0,-0.75,168.76,198.0,0.0,0.0,0.0,0.0
1776450463866923821,66936,0.092,0.3,0.0,1.4,0.16,-0.12,99.5,-3.31,3.94,-0.19,-0.0,-0.42,-1.81,1.5,-2.38,165.15,194.0,0.0,0.0,0.0,0.0
1776450463969314812,67036,0.096,0.4,0.0,1.5,-0.1,-0.1,99.44,-3.31,3.75,0.13,0.05,-0.37,0.88,-0.81,-0.37,166.18,194.0,0.0,0.0,0.0,0.0
1776450464067614819,67137,0.096,0.1,0.0,1.3,0.1,-0.08,99.37,-3.31,3.81,-0.07,0.02,-0.31,-1.12,0.37,-0.56,165.15,183.0,0.0,0.0,0.0,0.0
1776450464170016662,67236,0.096,0.1,0.0,1.5,0.06,-0.04,99.37,-3.31,3.69,0.47,-0.07,-0.7,0.5,-0.94,0.37,161.55,183.0,0.0,0.0,0.0,0.0
1776450464268355280,67336,0.0,1.2,0.092,0.3,-0.02,-0.08,99.62,-2.56,4.5,-0.84,0.23,-1.15,4.5,-9.0,-0.19,168.24,184.0,0.0,0.0,0.0,0.0
1776450464370666011,67436,0.0,1.2,0.084,0.3,0.02,-0.08,99.62,-2.44,4.25,0.53,-0.09,-0.39,-1.75,1.63,-0.19,165.15,189.0,0.0,0.0,0.0,0.0
1776450464468969889,67536,0.104,0.1,0.088,0.1,0.04,-0.16,99.62,-2.44,4.44,-0.56,-0.14,-0.44,0.25,-0.37,-0.19,164.64,189.0,0.0,0.0,0.0,0.0
1776450464571406250,67637,0.0,0.5,0.064,0.0,-0.08,-0.06,99.62,-2.44,4.25,0.15,0.13,-0.31,1.19,-0.63,-0.12,168.93,193.0,0.0,0.0,0.0,0.0
1776450464669724609,67738,0.0,0.7,0.088,0.5,0.04,-0.08,99.62,-2.44,4.31,0.13,-0.11,-0.39,-1.37,-0.19,-0.25,165.33,191.0,0.0,0.0,0.0,0.0
1776450464767983431,67837,0.0,0.9,0.076,0.0,0.06,-0.04,99.62,-2.38,4.38,-0.22,0.03,-0.35,0.31,-0.0,-0.31,165.15,191.0,0.0,0.0,0.0,0.0
1776450464870406921,67937,0.0,0.7,0.088,0.4,0.02,-0.12,99.62,-2.44,4.31,0.02,0.02,-0.36,0.5,-0.56,-0.12,165.33,189.0,0.0,0.0,0.0,0.0
1776450464968691595,68037,0.0,0.9,0.0,1.5,-0.12,-0.14,99.62,-2.38,4.38,0.07,-0.02,-0.37,-0.19,-0.12,-0.19,165.15,189.0,0.0,0.0,0.0,0.0
1776450465071103400,68137,0.0,1.4,0.092,0.6,-0.04,-0.02,99.62,-2.38,4.38,-0.01,-0.0,-0.4,-0.31,-0.0,-0.19,165.15,192.0,0.0,0.0,0.0,0.0
1776450465169422945,68237,0.0,0.5,0.0,1.5,-0.04,0.06,99.62,-2.38,4.38,-0.06,0.03,-0.37,-0.06,-0.25,-0.25,165.15,192.0,0.0,0.0,0.0,0.0
1776450465271802250,68337,0.0,0.4,0.0,1.6,-0.02,-0.02,99.62,-2.38,4.38,-0.03,-0.0,-0.37,0.19,-0.31,-0.19,165.15,192.0,0.0,0.0,0.0,0.0
1776450465370102461,68436,0.0,1.1,0.0,1.0,-0.06,-0.08,99.62,-2.38,4.38,0.0,-0.0,-0.34,-0.0,-0.31,-0.31,165.15,190.0,0.0,0.0,0.0,0.0
1776450465468425783,68536,0.096,0.2,0.0,1.2,0.0,-0.23,99.62,-2.44,4.38,0.0,-0.01,-0.35,-0.06,-0.25,-0.12,165.15,191.0,0.0,0.0,0.0,0.0
1776450465576795072,68635,0.0,1.0,0.0,1.7,-0.1,-0.1,99.62,-2.44,4.38,-0.02,-0.0,-0.37,-0.06,-0.37,-0.19,165.15,191.0,0.0,0.0,0.0,0.0
1776450465669139799,68736,0.0,1.2,0.0,1.3,0.08,-0.1,99.62,-2.44,4.38,-0.01,-0.0,-0.36,-0.06,0.06,-0.12,165.15,190.0,0.0,0.0,0.0,0.0
1776450465771471252,68836,0.0,0.7,0.0,1.5,0.12,0.0,99.62,-2.44,4.38,0.0,-0.0,-0.37,-0.19,-0.06,-0.12,166.18,193.0,0.0,0.0,0.0,0.0
1776450465869796555,68936,0.104,0.1,0.088,0.5,0.02,-0.08,99.62,-2.44,4.38,0.0,-0.01,-0.36,0.06,-0.06,-0.06,165.33,193.0,0.0,0.0,0.0,0.0
1776450465972214157,69036,0.096,0.1,0.0,1.5,0.0,-0.02,99.62,-2.44,4.38,0.0,-0.0,-0.38,-0.06,0.06,-0.06,166.18,193.0,0.0,0.0,0.0,0.0
1776450466070542738,69137,0.0,1.3,0.092,0.4,0.02,0.02,99.62,-2.44,4.38,-0.04,0.01,-0.35,-0.12,0.06,-0.06,165.84,191.0,0.0,0.0,0.0,0.0
1776450466168796356,69236,0.1,0.6,0.092,0.1,-0.04,-0.02,99.62,-2.44,4.38,0.0,-0.01,-0.35,0.12,-0.06,0.06,165.15,191.0,0.0,0.0,0.0,0.0
1776450466271213810,69336,0.0,0.7,0.0,1.1,-0.08,0.02,99.62,-2.44,4.38,-0.02,-0.0,-0.34,0.06,-0.06,0.06,166.87,195.0,0.0,0.0,0.0,0.0
1776450466373554281,69437,0.1,0.1,0.0,1.2,0.04,-0.06,99.62,-2.44,4.38,0.0,-0.0,-0.39,-0.0,0.12,0.12,165.15,195.0,0.0,0.0,0.0,0.0
1776450466471845381,69537,0.104,0.2,0.0,1.3,0.02,-0.1,99.62,-2.44,4.38,0.0,-0.0,-0.38,0.12,-0.06,-0.06,165.15,189.0,0.0,0.0,0.0,0.0
1776450466570139721,69637,0.104,0.7,0.0,1.8,-0.1,-0.08,99.62,-2.44,4.38,-0.04,-0.0,-0.36,0.19,-0.12,-0.06,166.36,191.0,0.0,0.0,0.0,0.0
1776450466672632027,69738,0.1,0.2,0.0,0.3,0.04,0.08,99.62,-2.44,4.38,0.0,-0.01,-0.38,-0.0,-0.12,0.06,165.15,191.0,0.0,0.0,0.0,0.0
1776450466770903756,69837,0.0,0.1,0.076,0.3,0.04,0.0,99.62,-2.44,4.38,-0.02,-0.0,-0.36,-0.06,0.25,0.06,165.15,194.0,0.0,0.0,0.0,0.0
1776450466873293080,69937,0.0,1.0,0.0,1.5,0.0,0.08,99.62,-2.44,4.38,-0.02,-0.0,-0.36,0.06,-0.06,0.0,165.33,191.0,0.0,0.0,0.0,0.0
1776450467672236345,70038,0.104,0.2,0.0,1.4,0.08,-0.04,99.62,-2.44,4.38,0.0,0.01,-0.37,-0.12,-0.0,0.06,165.15,191.0,0.0,0.0,0.0,0.0
1776450467680327441,70137,0.104,-0.1,0.0,0.5,0.04,-0.06,99.62,-2.44,4.38,-0.04,-0.0,-0.35,-0.0,0.12,0.19,165.33,191.0,0.0,0.0,0.0,0.0
1776450467684251220,70238,0.0,1.1,0.0,1.2,0.02,-0.1,99.62,-2.44,4.38,-0.01,-0.02,-0.37,-0.06,0.06,0.19,164.13,190.0,0.0,0.0,0.0,0.0
1776450467697161541,70338,0.096,0.1,0.0,0.3,0.0,-0.04,99.62,-2.44,4.38,0.0,-0.0,-0.41,0.12,-0.0,-0.06,165.15,190.0,0.0,0.0,0.0,0.0
1776450467774373501,70437,0.0,0.7,0.076,0.3,-0.04,-0.06,99.62,-2.44,4.38,0.0,0.02,-0.36,-0.0,-0.06,-0.06,161.72,188.0,0.0,0.0,0.0,0.0
1776450467787297952,70537,0.0,0.0,0.08,0.4,0.0,-0.14,99.62,-2.44,4.38,-0.01,-0.0,-0.35,-0.19,-0.0,-0.06,165.84,188.0,0.0,0.0,0.0,0.0
1776450467800325920,70638,0.0,0.1,0.0,1.0,-0.02,-0.12,99.62,-2.44,4.38,-0.02,0.02,-0.35,-0.06,0.12,0.0,165.84,192.0,0.0,0.0,0.0,0.0
1776450467813244982,70737,0.0,0.6,0.084,0.5,-0.04,-0.06,99.62,-2.44,4.38,-0.02,0.01,-0.34,0.06,-0.06,0.0,165.84,195.0,0.0,0.0,0.0,0.0
1776450467872684231,70838,0.0,0.4,0.0,1.7,0.18,-0.14,99.62,-2.44,4.38,-0.02,0.01,-0.37,-0.0,0.12,0.12,166.87,195.0,0.0,0.0,0.0,0.0
1776450467884941995,70939,0.096,0.3,0.088,0.3,-0.14,-0.14,99.62,-2.44,4.38,0.0,-0.0,-0.34,0.12,0.06,-0.06,165.84,190.0,0.0,0.0,0.0,0.0
1776450467981001649,71038,0.0,1.2,0.084,0.7,-0.06,-0.18,99.62,-2.44,4.38,-0.01,0.01,-0.35,0.06,-0.06,0.06,165.84,192.0,0.0,0.0,0.0,0.0
1776450468073374191,71138,0.0,1.2,0.08,0.3,0.02,-0.04,99.62,-2.44,4.38,-0.02,-0.0,-0.36,-0.0,-0.06,-0.06,165.84,192.0,0.0,0.0,0.0,0.0
1776450468171635531,71238,0.0,1.1,0.084,0.5,-0.06,-0.08,99.62,-2.44,4.38,-0.01,-0.01,-0.33,-0.12,0.19,0.0,165.84,191.0,0.0,0.0,0.0,0.0
1776450468274069447,71337,0.0,1.3,0.076,0.3,0.0,-0.02,99.62,-2.44,4.38,-0.01,-0.0,-0.35,0.06,0.06,-0.06,165.84,190.0,0.0,0.0,0.0,0.0
1776450468372363102,71437,0.0,0.4,0.0,1.2,-0.14,0.12,99.62,-2.44,4.38,-0.01,0.02,-0.34,-0.06,-0.25,0.0,165.84,190.0,0.0,0.0,0.0,0.0
1776450468474765925,71537,0.0,0.4,0.0,0.1,0.21,0.02,99.62,-2.44,4.38,0.0,0.01,-0.37,-0.0,-0.12,0.0,165.84,191.0,0.0,0.0,0.0,0.0
1776450468573020173,71638,0.0,0.0,0.0,1.6,-0.08,-0.1,99.62,-2.44,4.38,0.0,0.02,-0.34,-0.12,0.12,0.0,165.67,191.0,0.0,0.0,0.0,0.0
1776450468671336291,71738,0.096,0.3,0.0,1.3,-0.06,-0.04,99.62,-2.44,4.38,-0.01,-0.0,-0.37,-0.06,-0.12,0.0,165.84,193.0,0.0,0.0,0.0,0.0
1776450468773757652,71837,0.0,0.1,0.0,1.7,0.16,-0.06,99.62,-2.44,4.38,0.0,-0.0,-0.36,-0.12,-0.0,0.12,165.84,190.0,0.0,0.0,0.0,0.0
1776450468872018381,71938,0.0,1.4,0.0,1.1,0.04,-0.04,99.62,-2.44,4.38,0.0,-0.0,-0.35,-0.0,-0.0,0.0,165.67,190.0,0.0,0.0,0.0,0.0
1776450468974454815,72038,0.0,0.2,0.0,0.2,-0.08,-0.31,99.62,-2.44,4.38,0.0,-0.0,-0.35,0.06,-0.06,0.0,165.84,191.0,0.0,0.0,0.0,0.0
1776450469072762137,72138,0.0,1.0,0.0,1.3,-0.04,-0.06,99.62,-2.44,4.38,0.0,-0.02,-0.35,0.12,-0.0,0.0,169.96,192.0,0.0,0.0,0.0,0.0
1776450469175151349,72238,0.088,0.2,0.0,1.4,-0.06,0.02,99.62,-2.44,4.38,-0.01,-0.01,-0.35,-0.06,0.19,0.06,169.44,192.0,0.0,0.0,0.0,0.0
1776450469273455689,72338,0.092,0.1,0.0,1.6,0.02,-0.1,99.62,-2.44,4.38,0.0,0.01,-0.37,-0.06,0.12,-0.06,165.33,192.0,0.0,0.0,0.0,0.0
1776450469375866124,72438,0.092,0.3,0.0,1.7,0.12,-0.02,99.62,-2.44,4.38,0.0,-0.0,-0.35,0.06,-0.06,0.0,165.15,190.0,0.0,0.0,0.0,0.0
1776450469474126779,72538,0.092,0.3,0.0,1.6,0.0,0.0,99.62,-2.44,4.38,-0.01,-0.0,-0.35,-0.0,0.12,0.06,165.15,190.0,0.0,0.0,0.0,0.0
1776450469582504679,72638,0.088,0.1,0.0,0.1,0.0,-0.14,99.62,-2.44,4.38,-0.01,0.01,-0.36,-0.06,-0.0,0.0,165.84,189.0,0.0,0.0,0.0,0.0
1776450469674860665,72738,0.0,1.5,0.084,0.4,0.04,-0.02,99.62,-2.44,4.38,-0.02,0.01,-0.34,0.06,-0.12,0.0,165.67,189.0,0.0,0.0,0.0,0.0
1776450469773162764,72838,0.0,1.1,0.0,1.2,0.02,-0.02,99.62,-2.44,4.38,0.0,0.01,-0.36,0.06,-0.0,0.0,165.84,191.0,0.0,0.0,0.0,0.0
1776450469875562513,72938,0.0,0.7,0.084,0.5,-0.16,-0.02,99.62,-2.44,4.38,-0.02,0.01,-0.38,-0.0,-0.19,0.12,165.15,191.0,0.0,0.0,0.0,0.0
1776450469973879113,73037,0.0,0.9,0.068,0.3,-0.02,-0.04,99.62,-2.44,4.38,-0.03,-0.0,-0.36,-0.06,0.06,0.12,165.15,191.0,0.0,0.0,0.0,0.0
1776450470072125768,73137,0.0,1.0,0.0,1.4,0.06,0.04,99.62,-2.44,4.38,-0.01,0.01,-0.34,-0.12,0.06,0.06,165.15,193.0,0.0,0.0,0.0,0.0
1776450470174548313,73237,0.0,1.5,0.084,0.3,0.08,0.1,99.62,-2.44,4.38,-0.01,-0.0,-0.35,0.06,-0.06,0.0,165.15,190.0,0.0,0.0,0.0,0.0
1776450470272842857,73337,0.0,1.3,0.076,0.6,-0.08,-0.1,99.62,-2.44,4.38,-0.01,0.01,-0.35,0.06,0.06,0.0,165.15,190.0,0.0,0.0,0.0,0.0
1776450470375213217,73437,0.0,0.7,0.0,1.3,0.04,-0.04,99.62,-2.44,4.38,-0.02,-0.0,-0.35,-0.06,-0.06,-0.06,165.15,189.0,0.0,0.0,0.0,0.0
1776450470473507206,73537,0.0,0.7,0.08,1.4,-0.14,0.02,99.62,-2.44,4.38,0.0,0.02,-0.35,-0.0,0.06,0.06,161.55,189.0,0.0,0.0,0.0,0.0
1776450470571812249,73636,0.0,0.7,0.0,0.4,0.08,-0.16,99.62,-2.44,4.38,0.0,0.02,-0.36,0.12,-0.12,0.12,165.15,189.0,0.0,0.0,0.0,0.0
1776450470674242554,73736,0.0,1.0,0.08,0.3,-0.02,-0.12,99.62,-2.44,4.38,-0.01,-0.0,-0.37,-0.0,-0.12,0.0,166.18,188.0,0.0,0.0,0.0,0.0
1776450470772540042,73837,0.0,0.4,0.0,1.7,-0.08,-0.12,99.62,-2.44,4.38,0.0,-0.0,-0.38,0.06,-0.12,-0.12,169.27,188.0,0.0,0.0,0.0,0.0
1776450470874937069,73936,0.084,0.0,0.084,0.3,0.06,-0.04,99.62,-2.44,4.38,-0.02,-0.0,-0.37,0.12,0.06,0.06,165.15,191.0,0.0,0.0,0.0,0.0
1776450470973257946,74037,0.088,0.2,0.0,0.9,-0.04,0.04,99.62,-2.44,4.38,-0.01,-0.0,-0.34,0.12,0.12,0.12,165.15,188.0,0.0,0.0,0.0,0.0
1776450471075648029,74137,0.08,0.1,0.0,1.2,-0.2,-0.02,99.62,-2.44,4.38,0.0,-0.0,-0.35,0.06,0.12,0.0,165.15,188.0,0.0,0.0,0.0,0.0
1776450471173931943,74236,0.088,0.2,0.0,1.0,-0.2,-0.08,99.62,-2.44,4.38,-0.01,0.01,-0.36,0.06,-0.0,-0.06,165.84,194.0,0.0,0.0,0.0,0.0
1776450471272205246,74336,0.084,0.1,0.0,1.1,0.02,-0.06,99.62,-2.44,4.38,0.0,0.02,-0.37,-0.12,-0.0,-0.06,161.55,191.0,0.0,0.0,0.0,0.0
1776450471404190656,74436,0.0,0.7,0.08,0.2,0.0,0.04,99.62,-2.44,4.38,-0.03,-0.0,-0.37,0.06,0.19,0.06,161.55,191.0,0.0,0.0,0.0,0.0
1776450471472936539,74535,0.0,-0.1,0.0,1.5,0.04,0.0,99.62,-2.44,4.38,0.0,-0.0,-0.34,0.12,0.12,0.0,165.84,192.0,0.0,0.0,0.0,0.0
1776450471581280587,74635,0.0,1.2,0.0,1.1,-0.08,-0.14,99.62,-2.44,4.38,-0.02,0.01,-0.36,-0.0,-0.06,0.12,161.55,190.0,0.0,0.0,0.0,0.0
1776450471673677480,74735,0.0,0.8,0.076,1.1,-0.16,-0.1,99.62,-2.44,4.38,0.0,0.01,-0.36,0.06,0.12,-0.06,161.72,190.0,0.0,0.0,0.0,0.0
1776450471771926264,74834,0.096,0.4,0.0,1.3,0.02,-0.1,99.62,-2.44,4.38,0.0,0.01,-0.35,0.06,0.12,0.0,161.55,190.0,0.0,0.0,0.0,0.0
1776450471880296275,74934,0.0,0.0,0.0,1.2,-0.08,-0.06,99.62,-2.44,4.38,-0.03,0.02,-0.37,-0.0,0.19,0.0,165.84,190.0,0.0,0.0,0.0,0.0
1776450471972657650,75034,0.092,0.3,0.0,1.4,0.02,-0.02,99.62,-2.44,4.38,-0.02,0.01,-0.36,-0.06,0.19,0.0,165.84,200.0,0.0,0.0,0.0,0.0
1776450472070934804,75134,0.0,1.5,0.0,1.2,0.04,-0.08,99.62,-2.44,4.38,-0.03,-0.0,-0.37,-0.0,-0.0,0.0,165.84,196.0,0.0,0.0,0.0,0.0
1776450472173332553,75234,0.092,0.7,0.0,1.5,0.04,-0.02,99.62,-2.44,4.38,0.0,0.01,-0.36,-0.06,-0.06,0.0,165.84,196.0,0.0,0.0,0.0,0.0
1776450472271626801,75334,0.096,1.3,0.0,1.2,-0.1,-0.12,99.62,-2.44,4.38,-0.01,-0.0,-0.36,-0.06,-0.0,0.0,165.15,194.0,0.0,0.0,0.0,0.0
1776450472373995068,75435,0.092,0.0,0.0,1.3,-0.06,-0.25,99.62,-2.44,4.38,-0.02,0.01,-0.37,-0.12,0.06,-0.06,165.33,191.0,0.0,0.0,0.0,0.0
1776450472476444132,75536,0.0,1.1,0.0,1.6,0.0,0.0,99.62,-2.44,4.38,-0.01,-0.0,-0.38,-0.06,-0.0,0.0,165.84,191.0,0.0,0.0,0.0,0.0
1776450472574726935,75636,0.0,1.0,0.092,0.3,0.02,-0.2,99.62,-2.44,4.38,0.0,-0.0,-0.37,-0.0,-0.06,0.0,161.72,188.0,0.0,0.0,0.0,0.0
1776450472677124981,75737,0.0,1.7,0.084,0.2,0.06,-0.02,99.62,-2.44,4.38,-0.03,-0.0,-0.34,0.12,-0.25,0.06,165.15,194.0,0.0,0.0,0.0,0.0
1776450472775417487,75837,0.0,1.4,0.0,1.2,-0.06,-0.16,99.62,-2.44,4.38,-0.02,-0.0,-0.37,0.12,-0.0,0.06,165.15,194.0,0.0,0.0,0.0,0.0
1776450472877817533,75938,0.096,0.9,0.0,1.6,-0.1,0.0,99.62,-2.44,4.38,-0.02,0.02,-0.36,0.12,-0.06,-0.06,165.33,190.0,0.0,0.0,0.0,0.0
1776450472976128243,76038,0.0,0.6,0.0,1.1,0.14,0.0,99.62,-2.44,4.38,0.0,-0.01,-0.37,-0.0,-0.0,-0.12,165.15,185.0,0.0,0.0,0.0,0.0
1776450473078593622,76139,0.092,0.2,0.0,0.2,0.02,-0.02,99.62,-2.44,4.38,0.0,-0.0,-0.36,-0.06,-0.06,0.0,165.15,185.0,0.0,0.0,0.0,0.0
1776450473176816461,76238,0.096,0.3,0.092,0.4,0.18,-0.04,99.62,-2.44,4.38,-0.02,0.02,-0.37,-0.0,-0.06,0.0,165.15,195.0,0.0,0.0,0.0,0.0
1776450473572220248,76339,0.0,1.3,0.076,0.2,-0.02,0.12,99.62,-2.44,4.38,-0.01,0.01,-0.37,-0.0,0.06,-0.06,165.15,195.0,0.0,0.0,0.0,0.0
1776450473578786102,76439,0.0,1.4,0.0,1.3,0.02,-0.23,99.62,-2.44,4.38,-0.03,0.02,-0.37,0.12,-0.06,-0.06,165.33,189.0,0.0,0.0,0.0,0.0
1776450473582268696,76538,0.0,0.9,0.088,0.4,0.08,-0.08,99.62,-2.44,4.38,-0.02,-0.0,-0.37,0.06,0.06,0.0,165.15,193.0,0.0,0.0,0.0,0.0
1776450473595791814,76638,0.0,0.7,0.0,1.6,-0.04,-0.18,99.62,-2.44,4.38,0.0,0.01,-0.37,0.12,-0.06,-0.06,169.44,193.0,0.0,0.0,0.0,0.0
1776450473676506738,76738,0.0,1.2,0.088,0.3,-0.1,0.06,99.62,-2.44,4.38,0.02,-0.0,-0.38,-0.19,-0.06,0.0,165.15,196.0,0.0,0.0,0.0,0.0
1776450473774762819,76837,0.0,1.1,0.088,0.1,0.02,-0.02,99.62,-2.44,4.38,-0.01,-0.0,-0.4,-0.19,0.25,-0.06,165.15,197.0,0.0,0.0,0.0,0.0
1776450473877202179,76937,0.0,1.3,0.0,1.2,0.04,-0.1,99.62,-2.44,4.38,-0.01,-0.0,-0.37,-0.06,0.06,0.0,165.15,197.0,0.0,0.0,0.0,0.0
1776450473985533727,77038,0.0,0.7,0.0,1.3,0.12,-0.04,99.62,-2.44,4.38,-0.01,0.01,-0.36,-0.19,-0.0,0.0,161.72,198.0,0.0,0.0,0.0,0.0
1776450474077909879,77138,0.0,0.6,0.08,0.5,0.08,-0.1,99.62,-2.44,4.38,0.0,-0.01,-0.4,-0.0,0.06,0.06,161.55,198.0,0.0,0.0,0.0,0.0
1776450474176210515,77238,0.0,0.9,0.0,1.4,0.04,0.02,99.62,-2.44,4.38,-0.01,-0.0,-0.35,-0.0,-0.06,-0.12,165.67,190.0,0.0,0.0,0.0,0.0
1776450474278602430,77338,0.1,0.4,0.0,1.7,0.02,-0.04,99.62,-2.44,4.38,-0.02,-0.0,-0.38,-0.0,0.06,0.0,161.55,201.0,0.0,0.0,0.0,0.0
1776450474376908418,77438,0.0,1.1,0.076,0.7,0.0,0.06,99.62,-2.44,4.38,-0.03,-0.0,-0.38,0.06,0.06,-0.12,161.55,201.0,0.0,0.0,0.0,0.0
1776450474479261241,77538,0.0,1.0,0.0,1.6,0.0,-0.18,99.62,-2.44,4.38,-0.01,-0.0,-0.36,0.06,-0.06,-0.06,161.55,196.0,0.0,0.0,0.0,0.0
1776450474577563507,77638,0.108,0.2,0.084,0.5,0.04,0.1,99.62,-2.44,4.38,0.0,0.01,-0.36,-0.0,0.06,0.0,165.84,192.0,0.0,0.0,0.0,0.0
1776450474679998256,77739,0.0,1.5,0.0,1.2,-0.1,-0.14,99.62,-2.44,4.38,0.0,0.01,-0.35,-0.06,0.25,0.06,161.72,192.0,0.0,0.0,0.0,0.0
1776450474778277985,77839,0.0,1.1,0.0,1.5,-0.1,0.0,99.62,-2.44,4.38,0.0,0.01,-0.35,0.12,0.06,0.12,165.84,192.0,0.0,0.0,0.0,0.0
1776450474880709234,77940,0.0,1.2,0.096,0.2,-0.18,0.02,99.62,-2.44,4.38,0.0,0.01,-0.36,-0.06,0.06,0.0,161.55,183.0,0.0,0.0,0.0,0.0
1776450474978979999,78040,0.0,1.4,0.084,0.1,-0.06,-0.02,99.62,-2.44,4.38,-0.01,0.01,-0.37,-0.06,0.06,0.12,161.55,183.0,0.0,0.0,0.0,0.0
1776450475081387304,78141,0.0,1.4,0.0,1.2,-0.06,-0.18,99.62,-2.44,4.38,-0.02,0.03,-0.34,0.06,-0.06,-0.06,165.84,192.0,0.0,0.0,0.0,0.0
1776450475179669940,78240,0.108,0.1,0.0,1.3,-0.02,-0.02,99.62,-2.44,4.38,-0.01,-0.04,-0.37,-0.12,-0.06,-0.06,161.55,188.0,0.0,0.0,0.0,0.0
1776450475282091170,78341,0.108,0.2,0.0,0.4,-0.08,-0.16,99.62,-2.44,4.38,-0.03,0.09,-0.29,-0.0,-0.19,0.19,165.84,188.0,0.0,0.0,0.0,0.0
1776450475380382973,78442,0.0,1.0,0.0,1.8,0.08,-0.02,99.62,-2.44,4.38,-0.04,-0.0,-0.33,-0.19,-0.06,0.0,165.84,187.0,0.0,0.0,0.0,0.0
1776450475482733888,78541,0.092,0.0,0.0,1.5,0.12,-0.04,99.62,-2.44,4.38,-0.02,-0.01,-0.35,0.06,0.06,0.0,165.67,187.0,0.0,0.0,0.0,0.0
1776450475581089432,78641,0.104,0.3,0.0,1.5,0.04,-0.06,99.62,-2.44,4.38,0.0,0.01,-0.39,-0.06,-0.0,-0.06,165.84,193.0,0.0,0.0,0.0,0.0
1776450475679349271,78741,0.0,1.1,0.0,1.2,-0.06,-0.06,99.62,-2.44,4.38,0.01,-0.0,-0.36,-0.0,0.06,0.19,161.72,189.0,0.0,0.0,0.0,0.0
1776450475781786965,78840,0.096,0.3,0.092,0.4,-0.06,-0.14,99.62,-2.44,4.38,0.01,0.02,-0.37,0.06,-0.0,0.06,165.84,189.0,0.0,0.0,0.0,0.0
1776450475880085101,78940,0.0,0.6,0.096,0.3,-0.06,-0.08,99.62,-2.44,4.38,-0.02,0.01,-0.38,0.12,-0.06,0.06,165.84,194.0,0.0,0.0,0.0,0.0
1776450475982494887,79040,0.0,0.8,0.096,0.3,0.0,-0.08,99.62,-2.44,4.38,-0.04,-0.0,-0.36,-0.12,-0.06,0.0,165.84,198.0,0.0,0.0,0.0,0.0
1776450476080781856,79140,0.0,1.4,0.096,0.4,0.16,-0.12,99.62,-2.44,4.38,0.0,-0.0,-0.37,0.06,-0.06,0.0,165.84,198.0,0.0,0.0,0.0,0.0
1776450476179043658,79240,0.0,0.1,0.0,1.1,-0.02,-0.08,99.62,-2.44,4.38,0.0,0.01,-0.38,0.06,-0.06,0.12,165.84,188.0,0.0,0.0,0.0,0.0
1776450476281493889,79340,0.0,0.2,0.0,1.6,0.06,-0.02,99.62,-2.44,4.38,0.01,-0.0,-0.37,0.12,-0.19,0.0,165.84,195.0,0.0,0.0,0.0,0.0
1776450476379752506,79439,0.1,0.2,0.0,1.5,0.08,-0.04,99.62,-2.44,4.38,0.0,0.01,-0.36,0.19,-0.12,0.0,165.84,195.0,0.0,0.0,0.0,0.0
1776450476482130422,79540,0.0,1.1,0.096,0.3,-0.06,-0.04,99.62,-2.44,4.38,0.0,-0.0,-0.38,-0.0,-0.12,0.0,165.15,194.0,0.0,0.0,0.0,0.0
1776450476580472335,79641,0.0,1.2,0.088,0.1,0.1,-0.02,99.62,-2.44,4.38,0.0,0.01,-0.39,-0.0,-0.12,0.0,165.15,194.0,0.0,0.0,0.0,0.0
1776450476682878584,79740,0.0,1.2,0.092,1.2,0.04,-0.08,99.62,-2.44,4.38,0.0,-0.0,-0.37,-0.06,-0.0,0.06,165.15,191.0,0.0,0.0,0.0,0.0
1776450476781171924,79841,0.0,0.9,0.088,0.5,0.0,-0.04,99.62,-2.44,4.38,-0.01,0.01,-0.4,-0.06,0.06,0.0,165.15,184.0,0.0,0.0,0.0,0.0
1776450476883574154,79941,0.0,1.3,0.0,1.1,0.04,-0.02,99.62,-2.44,4.38,0.0,-0.0,-0.38,-0.0,0.12,-0.06,165.15,184.0,0.0,0.0,0.0,0.0
1776450476981892753,80040,0.0,0.7,0.092,0.2,-0.06,-0.18,99.62,-2.44,4.38,0.0,0.02,-0.39,0.06,-0.06,-0.12,165.33,186.0,0.0,0.0,0.0,0.0
1776450477084293001,80141,0.1,0.1,0.0,1.3,-0.08,-0.16,99.62,-2.44,4.38,-0.01,-0.0,-0.36,-0.06,-0.0,0.12,165.15,198.0,0.0,0.0,0.0,0.0
1776450477182580230,80241,0.0,0.0,0.0,1.5,0.0,0.04,99.62,-2.44,4.38,-0.01,0.02,-0.38,0.19,-0.0,0.12,165.33,198.0,0.0,0.0,0.0,0.0
1776450477280873347,80340,0.0,1.2,0.0,1.4,-0.02,-0.04,99.62,-2.44,4.38,-0.02,-0.0,-0.37,0.12,0.06,0.06,165.15,191.0,0.0,0.0,0.0,0.0
1776450477383215948,80440,0.096,0.4,0.0,1.1,0.04,-0.06,99.62,-2.44,4.38,-0.01,0.01,-0.39,0.06,-0.0,0.0,165.15,189.0,0.0,0.0,0.0,0.0
1776450477481530343,80540,0.0,1.0,0.096,0.5,-0.02,-0.06,99.62,-2.44,4.38,-0.01,0.02,-0.39,-0.0,0.06,-0.06,165.15,189.0,0.0,0.0,0.0,0.0
1776450477579812516,80640,0.0,0.6,0.1,0.5,0.0,-0.04,99.62,-2.44,4.38,-0.01,-0.0,-0.38,-0.06,-0.12,-0.06,165.15,192.0,0.0,0.0,0.0,0.0
1776450477682317005,80740,0.0,0.0,0.0,0.1,0.04,-0.06,99.62,-2.44,4.38,-0.02,0.01,-0.38,-0.12,-0.06,0.0,165.15,192.0,0.0,0.0,0.0,0.0
1776450477780565104,80840,0.0,1.3,0.0,0.7,0.02,-0.02,99.62,-2.44,4.38,-0.01,0.02,-0.37,0.19,0.06,0.12,165.15,193.0,0.0,0.0,0.0,0.0
1776450477883001205,80940,0.0,0.7,0.084,0.3,0.02,0.06,99.62,-2.44,4.38,-0.01,-0.0,-0.37,-0.19,0.12,-0.06,165.15,187.0,0.0,0.0,0.0,0.0
1776450477981281470,81040,0.0,0.9,0.016,0.2,0.1,-0.06,99.62,-2.44,4.38,0.0,-0.0,-0.36,0.12,-0.06,0.06,165.15,187.0,0.0,0.0,0.0,0.0
1776450478083663422,81140,0.0,1.3,0.104,0.4,0.02,0.02,99.62,-2.44,4.38,-0.01,0.01,-0.37,0.06,-0.06,-0.06,165.15,192.0,0.0,0.0,0.0,0.0
1776450478181954669,81240,0.0,1.2,0.08,0.3,-0.14,-0.08,99.62,-2.44,4.38,-0.03,0.02,-0.37,-0.12,-0.0,0.0,165.33,185.0,0.0,0.0,0.0,0.0
1776450478284379307,81340,0.0,1.0,0.084,0.5,0.0,-0.02,99.62,-2.44,4.38,0.0,-0.0,-0.39,-0.0,0.12,0.06,165.33,185.0,0.0,0.0,0.0,0.0
1776450478382685146,81440,0.0,0.6,0.0,1.3,0.02,-0.12,99.62,-2.44,4.38,-0.01,-0.0,-0.35,-0.06,0.06,0.19,165.15,190.0,0.0,0.0,0.0,0.0
1776450478485030025,81540,0.0,0.2,0.0,1.2,0.16,0.02,99.62,-2.44,4.38,-0.01,-0.0,-0.37,-0.0,0.12,0.06,161.04,191.0,0.0,0.0,0.0,0.0
1776450478583334364,81641,0.0,0.9,0.084,0.3,0.04,-0.08,99.62,-2.44,4.38,-0.03,0.03,-0.37,-0.06,0.19,0.06,165.33,191.0,0.0,0.0,0.0,0.0
1776450478681656092,81740,0.0,0.3,0.092,0.4,0.18,0.1,99.62,-2.44,4.38,-0.03,0.02,-0.36,0.12,-0.12,0.0,166.18,186.0,0.0,0.0,0.0,0.0
1776450478784051637,81841,0.0,1.1,0.1,0.1,-0.02,-0.06,99.62,-2.44,4.38,0.0,-0.0,-0.37,0.06,-0.06,0.06,165.15,186.0,0.0,0.0,0.0,0.0
1776450478882297606,81942,0.0,1.3,0.0,0.9,0.04,-0.12,99.62,-2.44,4.38,0.0,-0.0,-0.35,0.06,-0.19,-0.06,165.33,196.0,0.0,0.0,0.0,0.0
1776450478984745633,82041,0.1,0.2,0.0,1.1,-0.02,-0.2,99.62,-2.44,4.38,0.0,0.01,-0.36,-0.06,0.12,0.06,165.15,195.0,0.0,0.0,0.0,0.0
1776450479087131604,82142,0.0,0.2,0.0,1.6,0.08,-0.02,99.62,-2.44,4.38,0.0,-0.0,-0.35,0.06,-0.12,0.0,168.76,195.0,0.0,0.0,0.0,0.0
1776450479185459721,82243,0.0,1.3,0.0,1.1,-0.04,-0.12,99.62,-2.44,4.38,-0.01,0.01,-0.34,0.06,-0.0,0.06,168.76,189.0,0.0,0.0,0.0,0.0
1776450479283751116,82342,0.0,0.9,0.084,0.4,0.06,-0.04,99.62,-2.44,4.38,-0.01,-0.0,-0.35,-0.06,0.12,0.06,165.15,188.0,0.0,0.0,0.0,0.0
1776450479386142642,82442,0.0,0.3,0.0,1.6,-0.12,-0.04,99.62,-2.44,4.38,-0.01,0.02,-0.4,-0.06,-0.0,0.0,168.93,188.0,0.0,0.0,0.0,0.0
1776450479484467722,82542,0.0,1.1,0.0,1.1,-0.02,-0.04,99.62,-2.44,4.38,-0.02,-0.0,-0.36,-0.0,-0.12,0.0,165.15,194.0,0.0,0.0,0.0,0.0
1776450479586803415,82642,0.096,0.0,0.0,0.2,-0.02,-0.2,99.62,-2.44,4.38,0.0,0.01,-0.35,0.06,-0.12,0.0,165.33,183.0,0.0,0.0,0.0,0.0
1776450479685140477,82743,0.0,1.4,0.1,0.2,-0.1,0.0,99.62,-2.44,4.38,-0.01,-0.0,-0.36,0.12,-0.06,0.06,165.15,183.0,0.0,0.0,0.0,0.0
1776450479787547633,82843,0.0,1.1,0.0,1.0,-0.02,-0.02,99.62,-2.44,4.38,-0.04,-0.0,-0.35,0.06,0.12,0.0,168.76,193.0,0.0,0.0,0.0,0.0
1776450479885834954,82942,0.0,1.1,0.084,0.2,0.12,-0.08,99.62,-2.44,4.38,0.0,0.01,-0.36,-0.06,-0.06,-0.06,169.96,198.0,0.0,0.0,0.0,0.0
1776450479988252480,83043,0.0,0.8,0.092,0.6,-0.04,-0.1,99.62,-2.44,4.38,0.0,0.01,-0.39,-0.0,-0.0,-0.06,168.76,198.0,0.0,0.0,0.0,0.0
1776450480086586042,83143,0.0,0.6,0.088,0.1,-0.18,0.02,99.62,-2.44,4.38,0.0,-0.0,-0.35,-0.0,-0.0,-0.12,165.15,192.0,0.0,0.0,0.0,0.0
1776450480184855140,83243,0.0,0.1,0.0,1.5,-0.08,-0.08,99.62,-2.44,4.38,0.0,0.02,-0.35,-0.0,0.06,0.06,165.15,192.0,0.0,0.0,0.0,0.0
1776450480287227426,83343,0.0,0.9,0.0,1.1,0.1,-0.04,99.62,-2.44,4.38,-0.03,0.02,-0.36,0.06,-0.12,0.06,165.15,192.0,0.0,0.0,0.0,0.0
1776450480385545950,83443,0.0,1.0,0.0,1.3,0.04,-0.08,99.62,-2.44,4.38,0.0,0.02,-0.36,-0.0,-0.0,-0.06,168.76,196.0,0.0,0.0,0.0,0.0
1776450480487907773,83543,0.0,0.4,0.0,1.2,0.04,-0.1,99.62,-2.44,4.38,0.0,0.02,-0.35,0.06,-0.12,0.0,168.76,196.0,0.0,0.0,0.0,0.0
1776450480586219872,83643,0.0,1.1,0.092,0.1,0.0,-0.06,99.62,-2.44,4.38,-0.01,0.02,-0.35,-0.0,-0.0,0.12,165.33,193.0,0.0,0.0,0.0,0.0
1776450480684560396,83742,0.0,0.8,0.096,0.5,-0.12,-0.02,99.62,-2.44,4.38,-0.03,-0.0,-0.37,-0.06,-0.06,0.06,165.15,197.0,0.0,0.0,0.0,0.0
1776450480786931293,83842,0.0,1.0,0.088,0.3,0.02,-0.12,99.62,-2.44,4.38,-0.01,0.01,-0.36,0.06,-0.12,-0.12,165.33,197.0,0.0,0.0,0.0,0.0
1776450480885229873,83942,0.096,0.3,0.0,1.9,-0.06,-0.04,99.62,-2.44,4.38,-0.02,-0.0,-0.34,0.06,-0.06,0.0,168.76,194.0,0.0,0.0,0.0,0.0
1776450480987624881,84042,0.1,0.1,0.0,1.6,-0.06,0.02,99.62,-2.44,4.38,-0.02,0.02,-0.36,-0.12,-0.12,0.0,165.15,194.0,0.0,0.0,0.0,0.0
1776450481085916312,84142,0.0,1.5,0.0,1.2,0.0,-0.04,99.62,-2.44,4.38,0.0,0.01,-0.35,0.06,-0.0,0.0,165.15,186.0,0.0,0.0,0.0,0.0
1776450481184211485,84242,0.0,0.1,0.0,1.6,-0.04,0.0,99.62,-2.44,4.38,-0.02,-0.0,-0.36,-0.06,0.12,0.06,165.15,190.0,0.0,0.0,0.0,0.0
1776450481286624696,84341,0.0,1.3,0.084,0.5,-0.12,-0.29,99.62,-2.44,4.38,-0.02,0.02,-0.37,-0.06,0.12,0.0,165.33,190.0,0.0,0.0,0.0,0.0
1776450481384918962,84441,0.0,1.0,0.0,1.3,-0.12,-0.08,99.62,-2.44,4.38,0.0,0.02,-0.34,-0.06,-0.06,0.06,165.15,188.0,0.0,0.0,0.0,0.0
1776450481483178282,84541,0.1,0.2,0.084,0.2,0.02,0.02,99.62,-2.44,4.38,0.0,-0.0,-0.36,-0.0,-0.06,0.06,165.33,200.0,0.0,0.0,0.0,0.0
1776450481585618327,84640,0.0,0.6,0.096,0.4,-0.14,-0.1,99.62,-2.44,4.38,-0.01,0.02,-0.36,-0.0,0.19,-0.06,165.15,200.0,0.0,0.0,0.0,0.0
1776450481683880352,84741,0.0,0.6,0.084,0.3,0.04,-0.2,99.62,-2.44,4.38,0.0,-0.0,-0.37,0.06,0.06,0.06,165.15,195.0,0.0,0.0,0.0,0.0
1776450481786325378,84841,0.0,0.7,0.096,0.3,0.0,-0.2,99.62,-2.44,4.38,0.0,0.01,-0.32,-0.0,0.06,0.06,165.15,186.0,0.0,0.0,0.0,0.0
1776450481884611587,84941,0.0,0.7,0.088,0.5,0.14,-0.04,99.62,-2.44,4.38,-0.03,0.02,-0.36,-0.0,-0.06,0.0,165.33,186.0,0.0,0.0,0.0,0.0
1776450481987030503,85041,0.0,0.6,0.08,0.7,-0.14,-0.06,99.62,-2.44,4.38,-0.03,-0.0,-0.35,0.06,-0.25,0.06,165.33,195.0,0.0,0.0,0.0,0.0
1776450482085315694,85141,0.0,0.4,0.0,0.1,0.04,-0.16,99.62,-2.44,4.38,-0.03,0.02,-0.35,0.06,0.12,0.06,165.5,190.0,0.0,0.0,0.0,0.0
1776450482183570162,85241,0.0,1.3,0.084,0.3,0.0,-0.2,99.62,-2.44,4.38,0.0,0.01,-0.35,0.06,-0.0,-0.06,165.15,190.0,0.0,0.0,0.0,0.0
1776450482286017615,85341,0.0,1.3,0.0,0.5,-0.06,-0.08,99.62,-2.44,4.38,0.0,0.01,-0.34,-0.06,-0.0,0.0,161.04,190.0,0.0,0.0,0.0,0.0
1776450482384308380,85441,0.0,0.6,0.096,0.2,-0.02,-0.25,99.62,-2.44,4.38,0.0,0.01,-0.35,-0.0,0.19,0.0,165.15,190.0,0.0,0.0,0.0,0.0
1776450482486699961,85540,0.0,0.9,0.0,0.3,0.14,-0.12,99.62,-2.44,4.38,-0.03,0.02,-0.37,-0.06,-0.06,0.06,165.15,196.0,0.0,0.0,0.0,0.0
1776450482585006615,85641,0.0,1.0,0.084,0.7,0.12,-0.06,99.62,-2.44,4.38,0.0,-0.0,-0.35,0.06,-0.06,-0.06,165.33,193.0,0.0,0.0,0.0,0.0
1776450482687382327,85741,0.0,0.7,0.0,1.6,0.08,-0.21,99.62,-2.44,4.38,-0.01,-0.0,-0.36,-0.0,0.06,0.0,165.33,193.0,0.0,0.0,0.0,0.0
1776450482785721259,85841,0.0,1.1,0.0,1.3,-0.08,-0.14,99.62,-2.44,4.38,0.0,0.01,-0.34,0.06,-0.0,0.0,165.15,194.0,0.0,0.0,0.0,0.0
1776450482888105174,85941,0.096,0.4,0.092,0.4,0.02,-0.14,99.62,-2.44,4.38,-0.02,-0.0,-0.35,-0.0,-0.12,0.0,165.33,189.0,0.0,0.0,0.0,0.0
1776450482986410291,86041,0.0,1.3,0.092,0.5,0.0,0.02,99.62,-2.44,4.38,0.0,0.01,-0.36,-0.0,-0.06,-0.06,165.15,189.0,0.0,0.0,0.0,0.0
1776450483084711630,86140,0.0,1.3,0.0,1.3,0.06,-0.08,99.62,-2.44,4.38,0.0,0.01,-0.35,-0.06,-0.06,-0.06,166.18,191.0,0.0,0.0,0.0,0.0
1776450483187097137,86241,0.0,1.1,0.084,0.5,-0.02,-0.14,99.62,-2.44,4.38,-0.02,0.01,-0.34,-0.19,-0.12,0.06,165.15,191.0,0.0,0.0,0.0,0.0
1776450483285418458,86341,0.0,0.7,0.1,0.2,0.08,-0.1,99.62,-2.44,4.38,0.0,-0.0,-0.36,-0.06,-0.25,-0.12,165.33,190.0,0.0,0.0,0.0,0.0
1776450483383689816,86440,0.0,0.6,0.084,0.2,0.0,-0.12,99.62,-2.44,4.38,-0.01,0.02,-0.34,-0.06,0.06,0.06,161.04,187.0,0.0,0.0,0.0,0.0
1776450483486054286,86540,0.0,0.8,0.084,1.6,0.0,-0.08,99.62,-2.44,4.38,-0.01,0.01,-0.36,-0.06,-0.0,0.06,165.15,187.0,0.0,0.0,0.0,0.0
1776450483588464960,86641,0.0,0.4,0.0,0.2,0.14,-0.08,99.62,-2.44,4.38,0.0,-0.0,-0.36,0.06,-0.06,-0.06,165.15,195.0,0.0,0.0,0.0,0.0
1776450483686819059,86740,0.0,1.0,0.092,0.3,-0.1,-0.16,99.62,-2.44,4.38,0.0,-0.0,-0.35,-0.0,0.06,0.0,165.15,188.0,0.0,0.0,0.0,0.0
1776450483789184381,86841,0.0,1.3,0.08,0.1,0.06,-0.16,99.62,-2.44,4.38,-0.02,0.01,-0.35,0.19,-0.06,0.06,165.33,188.0,0.0,0.0,0.0,0.0
1776450483887500905,86941,0.0,1.6,0.084,0.3,-0.12,-0.21,99.62,-2.44,4.38,-0.01,0.02,-0.35,0.06,-0.12,0.0,165.33,188.0,0.0,0.0,0.0,0.0
1776450483985758578,87041,0.0,1.4,0.0,0.3,-0.1,-0.06,99.62,-2.44,4.38,-0.02,-0.0,-0.35,0.12,0.06,0.06,165.15,193.0,0.0,0.0,0.0,0.0
1776450484088219234,87141,0.0,1.2,0.08,0.5,-0.14,-0.12,99.62,-2.44,4.38,-0.02,-0.0,-0.33,0.06,-0.06,0.0,165.33,193.0,0.0,0.0,0.0,0.0
1776450484186484665,87241,0.0,0.9,0.0,1.5,0.02,0.02,99.62,-2.44,4.38,0.01,-0.0,-0.36,-0.06,-0.12,0.06,165.33,187.0,0.0,0.0,0.0,0.0
1776450484288882691,87342,0.096,0.4,0.092,0.2,0.14,-0.12,99.62,-2.44,4.38,-0.03,-0.0,-0.37,-0.19,0.12,0.0,165.15,186.0,0.0,0.0,0.0,0.0
1776450484387229123,87442,0.0,1.3,0.084,0.4,-0.04,-0.18,99.62,-2.44,4.38,0.0,0.01,-0.37,-0.06,0.06,0.0,165.15,186.0,0.0,0.0,0.0,0.0
1776450484489549686,87542,0.0,0.2,0.096,0.1,-0.18,-0.08,99.62,-2.44,4.38,0.0,-0.0,-0.37,-0.19,-0.0,0.0,165.15,195.0,0.0,0.0,0.0,0.0
1776450484587857599,87642,0.0,0.6,0.0,1.7,-0.02,-0.02,99.62,-2.44,4.38,0.0,0.02,-0.37,-0.19,-0.0,0.0,165.33,195.0,0.0,0.0,0.0,0.0
1776450484686160679,87742,0.0,1.4,0.088,0.3,-0.06,-0.08,99.62,-2.44,4.38,-0.02,0.01,-0.39,0.06,-0.0,0.06,165.33,192.0,0.0,0.0,0.0,0.0
1776450484788579705,87841,0.0,0.5,0.0,1.1,0.02,-0.14,99.62,-2.44,4.38,-0.02,0.01,-0.37,0.06,0.06,0.0,165.15,197.0,0.0,0.0,0.0,0.0
1776450484886893303,87941,0.0,1.0,0.0,1.5,-0.04,0.0,99.62,-2.44,4.38,0.0,-0.0,-0.35,0.06,-0.0,0.0,165.33,197.0,0.0,0.0,0.0,0.0
1776450484989298015,88041,0.096,0.1,0.0,1.5,-0.08,-0.12,99.62,-2.44,4.38,0.0,0.01,-0.34,-0.06,-0.0,0.0,165.33,192.0,0.0,0.0,0.0,0.0
1776450485087571520,88140,0.1,0.1,0.0,1.3,0.0,-0.08,99.62,-2.44,4.38,-0.03,0.02,-0.37,-0.0,-0.0,-0.06,165.33,187.0,0.0,0.0,0.0,0.0
1776450485185857211,88240,0.0,1.4,0.088,0.6,-0.1,0.0,99.62,-2.44,4.38,-0.01,0.01,-0.36,0.06,0.06,-0.12,166.36,187.0,0.0,0.0,0.0,0.0
1776450485288251200,88341,0.0,1.5,0.0,0.8,-0.08,0.04,99.62,-2.44,4.38,-0.01,-0.0,-0.35,-0.0,-0.12,-0.06,165.15,194.0,0.0,0.0,0.0,0.0
1776450485386571409,88440,0.0,0.7,0.0,1.8,-0.04,-0.08,99.62,-2.44,4.38,0.0,0.02,-0.37,-0.12,0.06,0.12,166.36,187.0,0.0,0.0,0.0,0.0
1776450485488946658,88541,0.0,1.2,0.084,0.4,-0.06,-0.14,99.62,-2.44,4.38,-0.01,-0.0,-0.35,0.06,-0.0,0.0,165.15,187.0,0.0,0.0,0.0,0.0
1776450485587269682,88641,0.0,1.5,0.0,1.1,-0.16,-0.02,99.62,-2.44,4.38,-0.03,0.01,-0.34,-0.0,-0.06,0.06,165.15,191.0,0.0,0.0,0.0,0.0
1776450485685582780,88740,0.0,0.7,0.088,0.5,0.0,-0.1,99.62,-2.44,4.38,0.0,0.02,-0.36,-0.0,-0.12,-0.06,165.33,191.0,0.0,0.0,0.0,0.0
1776450485787972361,88840,0.0,0.7,0.0,1.4,0.08,-0.16,99.62,-2.44,4.38,-0.02,0.01,-0.38,-0.12,0.25,0.0,164.64,187.0,0.0,0.0,0.0,0.0
1776450487412239418,88941,0.0,1.5,0.096,0.3,0.02,-0.06,99.62,-2.44,4.38,-0.02,-0.0,-0.38,-0.0,0.12,-0.06,165.15,194.0,0.0,0.0,0.0,0.0
1776450487415002567,89040,0.0,1.5,0.08,0.4,0.04,-0.04,99.62,-2.44,4.38,-0.02,-0.0,-0.35,-0.0,0.19,0.0,165.15,194.0,0.0,0.0,0.0,0.0
1776450487417863809,89140,0.0,1.3,0.0,1.3,0.04,-0.08,99.62,-2.44,4.38,-0.01,-0.0,-0.37,-0.0,-0.0,0.06,165.15,191.0,0.0,0.0,0.0,0.0
1776450487419666162,89240,0.0,0.7,0.0,1.6,0.1,-0.12,99.62,-2.44,4.38,-0.02,-0.0,-0.36,-0.0,-0.06,0.0,166.18,186.0,0.0,0.0,0.0,0.0
1776450487491830119,89340,0.096,0.4,0.0,0.5,-0.02,-0.16,99.62,-2.44,4.38,0.0,0.01,-0.37,-0.06,-0.0,0.0,165.15,186.0,0.0,0.0,0.0,0.0
1776450487495926917,89440,0.0,0.4,0.084,0.5,-0.06,-0.08,99.62,-2.44,4.38,-0.04,0.02,-0.36,-0.12,0.12,0.0,165.15,191.0,0.0,0.0,0.0,0.0
1776450487508687626,89540,0.104,0.4,0.076,0.6,-0.1,-0.06,99.62,-2.44,4.38,0.0,-0.0,-0.38,-0.0,0.12,0.06,165.33,194.0,0.0,0.0,0.0,0.0
1776450487520463131,89640,0.0,0.8,0.0,1.6,-0.04,-0.12,99.62,-2.44,4.38,-0.01,0.02,-0.36,-0.12,0.25,0.06,165.15,194.0,0.0,0.0,0.0,0.0
1776450487590160217,89740,0.0,1.2,0.088,0.3,-0.08,-0.04,99.62,-2.44,4.38,-0.01,0.02,-0.37,0.06,-0.25,0.0,165.15,187.0,0.0,0.0,0.0,0.0
1776450487602448185,89840,0.0,1.4,0.088,0.6,0.14,-0.08,99.62,-2.44,4.38,-0.01,-0.0,-0.36,-0.12,-0.0,0.06,165.15,187.0,0.0,0.0,0.0,0.0
1776450487614219894,89940,0.0,1.0,0.076,0.4,0.02,0.02,99.62,-2.44,4.38,0.0,-0.0,-0.34,0.06,-0.0,0.0,165.15,194.0,0.0,0.0,0.0,0.0
1776450487688450723,90040,0.0,0.8,0.092,0.5,-0.02,-0.08,99.62,-2.44,4.38,0.0,-0.0,-0.36,0.12,-0.06,0.06,165.15,193.0,0.0,0.0,0.0,0.0
1776450487700052654,90141,0.0,0.6,0.0,1.4,0.04,0.02,99.62,-2.44,4.38,0.0,0.02,-0.36,-0.0,0.12,0.0,165.15,193.0,0.0,0.0,0.0,0.0
1776450487712419733,90242,0.1,0.2,0.0,1.6,0.0,-0.1,99.62,-2.44,4.38,-0.01,-0.0,-0.36,0.06,-0.0,0.0,165.15,184.0,0.0,0.0,0.0,0.0
1776450487724555479,90342,0.0,0.4,0.0,1.4,-0.04,-0.06,99.62,-2.44,4.38,0.0,0.01,-0.38,0.06,-0.06,-0.06,168.76,184.0,0.0,0.0,0.0,0.0
1776450487790840693,90441,0.104,-0.1,0.088,0.6,0.06,-0.02,99.62,-2.44,4.38,-0.01,-0.0,-0.36,-0.06,-0.06,0.06,165.15,184.0,0.0,0.0,0.0,0.0
1776450487803194439,90541,0.0,0.7,0.076,0.2,0.08,0.0,99.62,-2.44,4.38,-0.01,0.02,-0.37,-0.0,-0.0,0.0,164.64,196.0,0.0,0.0,0.0,0.0
1776450487815593519,90642,0.0,0.3,0.0,1.5,-0.08,-0.14,99.62,-2.44,4.38,0.0,0.01,-0.37,0.12,-0.0,0.06,164.64,191.0,0.0,0.0,0.0,0.0
1776450487889113236,90741,0.0,0.2,0.0,1.3,0.0,-0.14,99.62,-2.44,4.38,-0.01,-0.0,-0.36,0.12,-0.06,0.06,164.64,191.0,0.0,0.0,0.0,0.0
1776450487902169926,90841,0.0,0.6,0.08,0.5,0.06,0.02,99.62,-2.44,4.38,-0.02,-0.0,-0.37,-0.06,-0.0,-0.06,165.33,185.0,0.0,0.0,0.0,0.0
1776450487914724858,90941,0.0,0.5,0.0,1.2,-0.02,-0.1,99.62,-2.44,4.38,-0.02,0.01,-0.37,-0.0,0.19,0.12,165.15,185.0,0.0,0.0,0.0,0.0
1776450487991518947,91042,0.0,0.1,0.088,0.5,-0.04,-0.02,99.62,-2.44,4.38,-0.01,-0.0,-0.36,-0.12,0.25,-0.06,168.93,194.0,0.0,0.0,0.0,0.0
1776450488093928861,91143,0.0,0.7,0.0,0.1,0.02,-0.1,99.62,-2.44,4.38,-0.01,0.01,-0.37,-0.0,0.12,0.0,165.15,192.0,0.0,0.0,0.0,0.0
1776450488192249052,91244,0.0,1.4,0.084,0.3,-0.1,0.02,99.62,-2.44,4.38,0.0,0.01,-0.35,-0.0,0.06,0.0,165.15,192.0,0.0,0.0,0.0,0.0
1776450488290540039,91343,0.0,0.6,0.0,1.6,-0.2,-0.1,99.62,-2.44,4.38,-0.02,0.01,-0.37,0.06,-0.06,0.06,165.33,195.0,0.0,0.0,0.0,0.0
1776450488392940398,91443,0.0,0.1,0.0,1.0,0.02,-0.2,99.62,-2.44,4.38,-0.01,0.02,-0.38,0.06,-0.0,0.0,165.15,196.0,0.0,0.0,0.0,0.0
1776450488491216366,91543,0.0,1.0,0.0,1.5,0.06,-0.21,99.62,-2.44,4.38,0.0,0.01,-0.37,-0.06,-0.0,0.12,164.64,196.0,0.0,0.0,0.0,0.0
1776450488593621207,91643,0.0,1.0,0.0,0.5,-0.02,-0.06,99.62,-2.44,4.38,-0.02,0.02,-0.39,-0.0,-0.06,-0.06,165.15,192.0,0.0,0.0,0.0,0.0
1776450488691946287,91743,0.0,0.6,0.0,1.7,-0.02,-0.21,99.62,-2.44,4.38,0.01,0.03,-0.38,0.12,0.19,0.06,165.33,179.0,0.0,0.0,0.0,0.0
1776450488790205700,91843,0.096,0.0,0.0,0.5,0.0,-0.18,99.62,-2.44,4.38,-0.01,0.02,-0.38,-0.06,-0.0,0.06,164.64,179.0,0.0,0.0,0.0,0.0
1776450488892646022,91942,0.0,1.4,0.084,0.5,0.0,-0.12,99.62,-2.44,4.38,-0.02,0.02,-0.36,0.06,-0.19,0.0,165.15,192.0,0.0,0.0,0.0,0.0
1776450488995024899,92043,0.0,1.4,0.0,1.3,0.02,-0.02,99.62,-2.44,4.38,-0.01,0.01,-0.37,0.06,-0.19,0.06,165.15,193.0,0.0,0.0,0.0,0.0
1776450489093331497,92144,0.0,0.6,0.084,0.1,0.0,-0.12,99.62,-2.44,4.38,-0.01,0.01,-0.36,0.12,-0.19,-0.06,165.15,193.0,0.0,0.0,0.0,0.0
1776450489191623966,92243,0.0,0.8,0.088,0.2,-0.02,-0.02,99.62,-2.44,4.38,0.0,0.02,-0.38,-0.0,0.06,0.0,165.15,195.0,0.0,0.0,0.0,0.0
1776450489294037547,92344,0.0,0.8,0.0,1.5,0.02,-0.06,99.62,-2.44,4.38,-0.02,0.02,-0.37,-0.06,-0.0,-0.06,164.64,195.0,0.0,0.0,0.0,0.0
