timestamp_ns,time_ms,voltage_left,current_left_ma,voltage_right,current_right_ma,motor_current_left,motor_current_right,euler_x,euler_y,euler_z,acc_lin_x,acc_lin_y,acc_lin_z,gyro_x,gyro_y,gyro_z,sonar_mm,tof_mm,rpm_left,rpm_right,rotations_left,rotations_right
1775762916314796699,1914,0.0,1.3,0.036,0.1,-0.02,-0.04,1.31,-2.44,-6.38,-0.13,-0.06,-0.4,-0.81,-0.75,-0.75,1290.02,1610.0,0.0,0.0,0.0,0.0
1775762916417113805,2014,0.0,1.0,0.028,0.2,-0.08,0.0,1.25,-2.44,-6.5,-0.06,0.04,-0.41,-1.37,-0.19,-0.63,1252.12,736.0,0.0,0.0,0.0,0.0
1775762916515399351,2113,0.0,1.6,0.02,0.1,-0.04,-0.1,1.25,-2.38,-6.56,0.0,0.03,-0.32,0.12,0.25,-0.19,1310.6,736.0,0.0,0.0,0.0,0.0
1775762916613689155,2213,0.0,1.3,0.028,0.2,0.1,-0.14,1.25,-2.38,-6.56,-0.06,-0.04,-0.38,-0.19,-0.06,0.44,1258.98,1371.0,0.0,0.0,0.0,0.0
1775762916716039988,2313,0.0,1.1,0.016,0.4,0.1,-0.1,1.19,-2.38,-6.63,0.01,-0.02,-0.37,-0.63,0.19,-1.06,1268.41,2219.0,0.0,0.0,0.0,0.0
1775762916945141666,2412,0.0,1.2,0.008,0.2,0.06,0.0,1.06,-2.38,-6.56,-0.07,0.02,-0.36,0.94,0.37,-1.44,1264.98,2219.0,0.0,0.0,0.0,0.0
1775762916957781863,2511,0.0,1.4,0.0,0.5,-0.02,0.02,0.88,-2.44,-6.5,-0.06,-0.09,-0.4,0.63,0.88,-2.0,11953.21,1805.0,0.0,0.0,0.0,0.0
1775762917014967791,2611,0.0,1.3,0.008,0.5,-0.06,-0.08,0.69,-2.44,-6.5,-0.07,-0.02,-0.36,0.88,-0.44,-2.81,1299.8,940.0,0.0,0.0,0.0,0.0
1775762917113137092,2711,0.0,1.1,0.012,0.6,-0.04,-0.02,0.37,-2.38,-6.5,-0.02,0.05,-0.3,0.5,-0.69,-2.5,1345.07,940.0,0.0,0.0,0.0,0.0
1775762917211437434,2810,0.0,1.5,0.044,0.3,0.1,0.02,0.25,-2.38,-6.44,-0.1,0.02,-0.41,0.25,1.37,-1.25,1314.03,1901.0,0.0,0.0,0.0,0.0
1775762917313754682,2911,0.0,1.2,0.044,0.3,0.08,-0.1,0.19,-2.44,-6.44,-0.07,-0.0,-0.38,-0.63,-0.31,0.19,1305.97,1765.0,0.0,0.0,0.0,0.0
1775762917411999398,3011,0.0,1.3,0.028,0.1,-0.08,-0.06,0.19,-2.44,-6.5,-0.12,0.02,-0.41,-0.88,0.5,-0.63,1303.4,1765.0,0.0,0.0,0.0,0.0
1775762917514411960,3111,0.0,1.5,0.024,0.2,0.04,-0.06,0.19,-2.44,-6.56,-0.09,0.02,-0.38,-0.25,-0.44,0.56,1344.73,2079.0,0.0,0.0,0.0,0.0
1775762917612679482,3211,0.0,1.4,0.016,0.3,0.02,-0.1,0.19,-2.44,-6.56,-0.03,-0.01,-0.37,-1.06,0.06,0.63,1272.36,2079.0,0.0,0.0,0.0,0.0
1775762917715027477,3311,0.0,1.5,0.016,0.5,0.04,-0.06,0.25,-2.5,-6.63,-0.13,-0.02,-0.39,-0.0,0.69,0.37,1301.68,1023.0,0.0,0.0,0.0,0.0
1775762917813290426,3411,0.0,1.3,0.02,0.2,-0.1,-0.14,0.25,-2.5,-6.63,-0.03,-0.03,-0.35,-0.12,-0.12,0.25,1293.97,2287.0,0.0,0.0,0.0,0.0
1775762917915677942,3512,0.0,1.3,0.016,0.4,-0.08,-0.18,0.25,-2.5,-6.63,-0.1,-0.04,-0.39,-0.37,0.12,-0.12,1279.73,2287.0,0.0,0.0,0.0,0.0
1775762918057160665,3612,0.0,1.6,0.004,0.3,0.16,-0.16,0.25,-2.5,-6.63,0.01,0.02,-0.35,-0.56,0.63,-0.56,11954.41,2078.0,0.0,0.0,0.0,0.0
1775762918116274779,3713,0.0,1.4,0.0,0.3,0.02,-0.1,0.25,-2.5,-6.69,-0.05,-0.02,-0.44,-1.31,0.69,0.37,1276.65,1958.0,0.0,0.0,0.0,0.0
1775762918214488830,3814,0.0,1.4,0.052,0.3,-0.1,-0.08,0.25,-2.63,-6.81,0.01,-0.04,-0.37,0.56,1.12,0.12,1262.41,1958.0,0.0,0.0,0.0,0.0
1775762918316845706,3913,0.0,1.1,0.044,0.4,-0.08,-0.04,0.25,-2.69,-6.75,0.01,-0.04,-0.38,0.37,-0.56,0.63,1279.05,1889.0,0.0,0.0,0.0,0.0
1775762918425152599,4014,0.0,0.9,0.036,0.3,-0.08,0.0,0.25,-2.69,-6.69,0.02,-0.0,-0.4,1.0,-0.12,0.5,1304.09,1375.0,0.0,0.0,0.0,0.0
1775762918519420174,4115,0.0,0.7,0.016,0.2,-0.04,0.04,0.25,-2.69,-6.56,-0.13,0.03,-0.44,0.25,-0.0,0.06,11953.72,2966.0,0.0,0.0,0.0,0.0
1775762918615749619,4215,0.0,0.7,0.016,0.2,-0.2,-0.08,0.25,-2.69,-6.56,-0.02,-0.04,-0.32,0.69,-0.19,0.37,1324.49,2966.0,0.0,0.0,0.0,0.0
1775762918718128265,4315,0.0,0.3,0.0,1.3,0.1,0.04,0.25,-2.63,-6.56,-0.06,0.02,-0.35,-0.19,-0.69,0.12,1269.27,2966.0,0.0,0.0,0.0,0.0
1775762918816385799,4415,0.0,1.3,0.012,0.5,-0.06,0.06,0.25,-2.63,-6.56,0.0,-0.04,-0.4,1.06,-0.12,0.19,1272.02,2055.0,0.0,0.0,0.0,0.0
1775762918918725330,4515,0.0,1.3,0.02,0.5,-0.08,-0.04,0.31,-2.56,-6.38,-0.16,0.06,-0.38,1.56,-1.31,0.69,1274.42,1885.0,0.0,0.0,0.0,0.0
1775762919017003524,4615,0.0,1.4,0.0,0.4,0.02,-0.1,0.31,-2.56,-6.31,-0.14,-0.05,-0.39,0.31,0.88,-0.75,1285.74,1885.0,0.0,0.0,0.0,0.0
1775762919127289548,4715,0.0,1.2,0.004,0.3,0.02,-0.18,0.19,-2.56,-6.31,-0.07,0.01,-0.39,0.5,-0.94,-0.44,11954.41,2396.0,0.0,0.0,0.0,0.0
1775762919217601526,4815,0.0,1.3,0.048,0.3,0.0,-0.08,0.19,-2.5,-6.31,-0.03,0.1,-0.32,0.81,0.44,-0.19,11955.09,1421.0,0.0,0.0,0.0,0.0
1775762919315802593,4915,0.0,1.3,0.048,0.4,-0.1,0.06,0.19,-2.63,-6.19,-0.11,-0.0,-0.39,0.81,0.63,0.44,1345.07,1421.0,0.0,0.0,0.0,0.0
1775762919418198472,5015,0.0,1.2,0.036,0.3,0.0,-0.02,0.25,-2.56,-6.19,-0.11,0.01,-0.34,-0.25,-0.94,0.63,1414.7,2081.0,0.0,0.0,0.0,0.0
1775762919518443846,5115,0.0,1.2,0.02,0.5,-0.02,-0.04,0.37,-2.56,-6.19,-0.07,0.06,-0.3,0.12,-0.37,0.94,11954.75,2012.0,0.0,0.0,0.0,0.0
1775762919626786064,5215,0.0,1.3,0.02,0.2,-0.08,-0.04,0.5,-2.56,-6.25,-0.05,0.06,-0.38,-0.88,-0.44,1.63,11953.21,1732.0,0.0,0.0,0.0,0.0
1775762919719135127,5315,0.0,0.0,0.004,0.2,0.0,0.02,0.63,-2.56,-6.19,0.02,-0.07,-0.39,0.88,0.12,1.63,11955.95,1732.0,0.0,0.0,0.0,0.0
1775762919819486257,5415,0.0,1.0,0.012,0.5,-0.02,0.0,0.75,-2.5,-6.06,-0.12,-0.09,-0.46,0.44,-2.06,1.06,1311.97,1732.0,0.0,0.0,0.0,0.0
1775762920077139437,5515,0.0,0.9,0.012,0.2,-0.06,0.02,0.81,-2.31,-6.06,0.04,-0.21,-0.43,-0.37,-2.0,0.37,1293.97,1148.0,0.0,0.0,0.0,0.0
1775762920118374496,5615,0.0,0.9,0.02,0.3,-0.02,-0.06,0.94,-2.13,-6.19,0.13,-0.15,-0.45,-1.0,-4.5,4.25,11957.84,2337.0,0.0,0.0,0.0,0.0
1775762920131391973,5715,0.0,0.6,0.0,0.3,-0.08,-0.1,1.63,-1.94,-6.44,0.26,-0.31,-0.35,-0.06,-4.06,7.44,1285.56,2337.0,0.0,0.0,0.0,0.0
1775762920216607624,5815,0.0,1.0,0.052,0.2,0.04,-0.12,2.44,-1.88,-6.38,0.02,0.14,-0.28,2.31,-1.12,11.69,1275.45,698.0,0.0,0.0,0.0,0.0
1775762920318958561,5914,0.0,1.0,0.052,0.3,-0.06,0.04,4.0,-1.94,-6.0,-0.21,0.22,-0.59,1.63,-0.5,18.87,11957.32,943.0,0.0,0.0,0.0,0.0
1775762920417223308,6014,0.0,1.1,0.036,0.2,0.12,-0.02,5.63,-1.81,-5.88,0.24,0.29,-0.45,1.19,-3.13,13.31,1264.98,943.0,0.0,0.0,0.0,0.0
1775762920515529891,6114,0.0,0.9,0.036,0.3,0.08,0.02,6.69,-1.44,-5.44,0.66,0.29,-0.43,6.38,-7.13,8.5,1261.9,804.0,0.0,0.0,0.0,0.0
1775762920617881531,6214,0.0,1.0,0.02,0.6,-0.14,-0.12,7.31,-0.75,-5.25,0.25,0.37,-0.57,7.13,-2.06,3.75,1230.86,2219.0,0.0,0.0,0.0,0.0
1775762920718059799,6313,0.0,1.2,0.032,0.6,0.18,-0.21,7.31,-0.56,-5.19,0.43,0.25,-0.43,1.75,4.31,-2.44,11956.29,1304.0,0.0,0.0,0.0,0.0
1775762920814404952,6413,0.0,1.0,0.02,0.2,-0.16,0.02,6.94,-0.88,-5.88,0.52,0.19,-0.37,-0.81,7.56,-4.56,1213.53,1304.0,0.0,0.0,0.0,0.0
1775762920916777010,6513,0.0,0.7,0.02,0.2,0.08,-0.02,6.19,-1.19,-7.06,0.52,0.28,-0.67,-7.06,8.19,-8.88,1326.55,1304.0,0.0,0.0,0.0,0.0
1775762921015032854,6612,0.0,0.9,0.02,0.5,0.0,-0.14,5.13,-1.63,-7.88,0.73,0.26,-0.23,0.12,5.94,-11.13,1240.97,1006.0,0.0,0.0,0.0,0.0
1775762921117405106,6713,0.0,0.9,0.008,0.3,-0.08,-0.06,4.06,-1.44,-7.75,-0.15,0.14,0.54,4.0,-2.13,-11.88,1244.58,2165.0,0.0,0.0,0.0,0.0
1775762921215672598,6813,0.0,0.7,0.048,0.2,-0.1,0.04,2.81,-1.5,-6.94,-0.86,-0.25,0.0,9.06,3.13,-14.88,1223.48,2165.0,0.0,0.0,0.0,0.0
1775762921317979447,6913,0.0,0.4,0.052,0.2,0.04,-0.04,0.63,-0.69,-6.88,-1.59,-0.78,-0.63,-5.94,-11.13,-25.44,1242.69,1630.0,0.0,0.0,0.0,0.0
1775762921416283575,7013,0.0,0.9,0.036,0.5,-0.04,-0.08,-0.81,0.31,-7.13,-0.83,-0.43,-0.13,-9.56,-11.94,-4.94,1314.72,1348.0,0.0,0.0,0.0,0.0
1775762921514543717,7113,0.0,1.0,0.036,0.5,-0.04,-0.08,-0.5,0.5,-7.19,-0.42,0.11,-0.69,3.5,4.25,4.06,1290.37,1348.0,0.0,0.0,0.0,0.0
1775762921616915044,7214,0.0,0.7,0.02,0.6,0.12,-0.02,-0.31,-0.37,-6.88,-0.52,-0.55,-0.61,-1.19,9.31,3.88,1237.37,2239.0,0.0,0.0,0.0,0.0
1775762921715158156,7314,0.0,1.0,0.024,0.6,-0.16,0.06,0.44,-1.0,-6.81,0.05,-0.41,-0.51,1.94,-3.13,9.63,1233.77,2539.0,0.0,0.0,0.0,0.0
1775762921817546865,7414,0.0,0.9,0.012,0.2,0.02,-0.1,1.25,-0.75,-6.75,0.21,-0.19,-0.72,1.63,-7.56,9.31,1237.54,2539.0,0.0,0.0,0.0,0.0
1775762922045158759,7514,0.0,0.6,0.016,0.3,0.04,-0.02,2.63,-0.75,-6.81,0.02,-0.39,-0.68,1.25,0.63,19.12,1210.79,1602.0,0.0,0.0,0.0,0.0
1775762922058805859,7614,0.0,0.7,0.024,0.4,-0.02,-0.02,4.56,-1.19,-6.63,0.06,-0.44,0.43,5.13,-3.13,19.56,1195.53,1602.0,0.0,0.0,0.0,0.0
1775762922116437904,7713,0.0,0.7,0.012,0.1,-0.08,0.0,6.63,-1.0,-5.25,-0.93,-0.38,0.25,22.81,0.5,20.87,1258.98,1263.0,0.0,0.0,0.0,0.0
1775762922218808282,7813,0.0,1.1,0.06,0.2,0.02,0.0,7.81,-1.5,-3.69,-0.52,-0.26,-0.28,2.75,3.19,4.63,1270.3,1898.0,0.0,0.0,0.0,0.0
1775762922317020399,7914,0.0,1.2,0.052,0.4,0.06,0.0,8.63,-1.69,-4.06,-1.45,0.07,-0.06,-6.06,0.88,12.63,1289.51,1898.0,0.0,0.0,0.0,0.0
1775762922415294458,8013,0.0,1.0,0.036,0.2,-0.12,-0.08,9.69,-2.0,-4.81,-1.65,0.6,-0.75,-11.44,4.13,6.75,1228.45,2195.0,0.0,0.0,0.0,0.0
1775762922517679479,8114,0.0,1.1,0.032,0.2,-0.04,-0.12,10.13,-2.06,-5.38,-0.19,0.46,-0.21,-5.69,1.75,3.06,1256.58,1395.0,0.0,0.0,0.0,0.0
1775762922617884164,8214,0.0,1.0,0.024,0.0,0.0,-0.04,10.5,-2.13,-4.88,-0.51,0.51,-0.86,7.06,-0.94,5.69,11955.95,1929.0,0.0,0.0,0.0,0.0
1775762922718321232,8314,0.0,1.0,0.02,0.2,-0.04,-0.1,10.75,-1.81,-4.69,-0.63,0.45,-0.55,-6.13,1.06,-0.56,1242.17,1929.0,0.0,0.0,0.0,0.0
1775762922816649549,8415,0.0,0.7,0.02,0.5,-0.06,-0.04,10.63,-2.0,-4.75,0.23,0.04,-0.62,1.81,3.69,-0.12,1237.72,2122.0,0.0,0.0,0.0,0.0
1775762922918943361,8515,0.0,1.1,0.008,0.2,-0.02,-0.08,10.38,-2.44,-4.63,-0.22,0.28,-0.2,0.5,5.19,-6.88,1207.19,2122.0,0.0,0.0,0.0,0.0
1775762923017212774,8614,0.0,1.1,0.004,0.2,-0.16,0.0,9.31,-2.94,-5.13,0.36,0.18,-0.3,-9.63,9.5,-10.81,1214.91,498.0,0.0,0.0,0.0,0.0
1775762923115436575,8714,0.0,0.6,0.008,0.4,-0.04,-0.08,8.31,-3.63,-5.88,0.18,0.26,0.27,-0.81,5.06,-11.06,1236.34,498.0,0.0,0.0,0.0,0.0
1775762923217832559,8814,0.0,0.7,0.064,0.4,0.02,-0.1,7.19,-3.38,-5.19,-0.23,0.66,-0.35,10.13,-5.38,-10.56,1255.04,2491.0,0.0,0.0,0.0,0.0
1775762923316070966,8913,0.0,0.7,0.052,0.2,-0.02,0.0,6.56,-2.13,-4.75,0.41,0.48,-0.47,0.12,-7.94,-3.94,1222.28,2422.0,0.0,0.0,0.0,0.0
1775762923418467671,9014,0.0,0.9,0.036,0.0,0.02,-0.04,5.88,-1.12,-5.38,-0.16,-0.12,0.05,-2.38,-6.88,-10.69,1211.13,2422.0,0.0,0.0,0.0,0.0
1775762923549144639,9115,0.0,1.1,0.024,0.3,0.02,0.04,4.63,-0.56,-5.13,-1.41,-0.2,-0.14,2.5,-2.75,-14.13,1240.8,1929.0,0.0,0.0,0.0,0.0
1775762923619100322,9216,0.0,1.1,0.02,0.2,-0.1,0.02,3.5,-0.44,-5.81,-1.21,-0.85,-0.64,-14.0,3.06,-6.75,1204.96,1765.0,0.0,0.0,0.0,0.0
1775762923717342912,9316,0.0,0.9,0.016,0.2,0.16,-0.06,3.38,-1.37,-6.75,-0.16,-0.51,-0.51,-1.19,13.88,-0.25,1260.35,1765.0,0.0,0.0,0.0,0.0
1775762923819721291,9415,0.0,1.3,0.008,0.2,-0.04,-0.14,3.0,-2.25,-6.31,-0.44,-0.46,-1.19,3.63,4.75,-6.44,1276.99,1774.0,0.0,0.0,0.0,0.0
1775762923922125550,9516,0.0,1.0,0.016,0.1,-0.02,-0.14,2.5,-2.69,-5.88,0.18,-0.29,-0.79,5.88,-2.13,-4.44,1333.93,2192.0,0.0,0.0,0.0,0.0
1775762924020389671,9617,0.0,1.0,0.008,0.1,-0.06,-0.02,2.19,-2.25,-5.5,0.26,0.04,-0.39,4.94,-6.31,-0.63,1113.55,2192.0,0.0,0.0,0.0,0.0
1775762924141140534,9716,0.0,0.7,0.0,0.2,0.0,-0.14,2.56,-1.81,-5.56,0.28,-0.16,-0.28,-1.5,-3.88,8.81,11959.9,2185.0,0.0,0.0,0.0,0.0
1775762924220978155,9816,0.0,0.7,0.052,0.1,-0.04,-0.04,3.63,-1.81,-5.75,-0.06,-0.35,0.15,4.06,-1.56,13.25,1198.44,2139.0,0.0,0.0,0.0,0.0
1775762924319242065,9917,0.0,1.0,0.052,0.1,-0.12,-0.08,5.0,-2.19,-4.44,0.03,-0.52,-0.43,18.06,8.25,11.69,1231.71,2139.0,0.0,0.0,0.0,0.0
1775762924421616345,10016,0.0,1.1,0.048,0.3,0.0,-0.08,5.5,-3.31,-3.63,0.23,-0.45,-0.32,-0.44,1.31,0.06,1285.39,1063.0,0.0,0.0,0.0,0.0
1775762924519893195,10117,0.0,1.0,0.024,0.5,-0.04,-0.02,6.0,-3.31,-4.0,-0.37,-0.0,0.0,-4.38,-1.75,12.0,1285.05,1063.0,0.0,0.0,0.0,0.0
1775762924622254813,10218,0.0,0.9,0.024,0.1,0.02,-0.14,7.25,-3.25,-3.94,-0.75,0.24,0.05,-3.56,-0.25,12.13,1297.4,2277.0,0.0,0.0,0.0,0.0
1775762924720474608,10317,0.0,0.9,0.024,0.5,0.0,0.04,8.38,-3.44,-4.13,-1.62,0.55,-0.88,-4.31,2.63,10.56,1238.57,1013.0,0.0,0.0,0.0,0.0
1775762924822871806,10418,0.0,1.0,0.016,0.3,-0.08,0.0,9.19,-3.63,-4.38,-0.21,0.31,-0.43,-3.38,0.06,4.38,1281.1,1013.0,0.0,0.0,0.0,0.0
1775762924921128515,10518,0.0,0.9,0.012,0.4,-0.1,0.02,9.31,-3.44,-4.19,0.06,0.27,-0.61,3.75,-1.75,-1.31,1250.06,893.0,0.0,0.0,0.0,0.0
1775762925023527540,10618,0.0,1.0,0.008,0.4,0.04,-0.08,9.13,-3.19,-4.13,-0.34,0.46,-0.59,-4.88,1.25,-3.88,1276.82,1889.0,0.0,0.0,0.0,0.0
1775762925145137878,10718,0.0,0.9,0.004,0.5,0.1,0.02,8.44,-3.13,-4.63,0.34,0.42,-0.62,-4.19,1.19,-10.44,1237.03,1889.0,0.0,0.0,0.0,0.0
1775762925224173492,10819,0.0,1.1,0.052,0.2,0.02,-0.06,6.94,-3.06,-5.31,0.13,0.4,-0.46,-5.44,4.75,-17.19,1241.49,538.0,0.0,0.0,0.0,0.0
1775762925322416449,10919,0.0,0.9,0.04,0.2,-0.12,-0.04,5.44,-3.0,-6.44,0.51,0.39,-0.07,-10.69,0.75,-15.31,1232.4,1956.0,0.0,0.0,0.0,0.0
1775762925424756371,11019,0.0,0.8,0.036,0.2,-0.06,0.0,3.88,-2.31,-6.81,-0.24,0.46,0.07,5.25,-8.69,-16.44,11959.38,2433.0,0.0,0.0,0.0,0.0
1775762925529015437,11119,0.0,0.7,0.024,0.4,0.08,0.1,2.94,-1.44,-5.75,-0.45,0.32,-0.47,10.5,-4.69,-4.5,11959.9,2433.0,0.0,0.0,0.0,0.0
1775762925627287034,11219,0.0,1.0,0.02,0.6,-0.21,-0.08,2.5,-1.25,-5.44,-1.08,-0.84,-0.16,-1.44,0.19,-6.38,11959.9,2468.0,0.0,0.0,0.0,0.0
1775762925731675410,11319,0.0,0.9,0.012,0.6,0.02,-0.08,1.63,-1.88,-5.0,-0.89,-0.84,-0.37,-3.63,0.37,-9.25,11960.41,2468.0,0.0,0.0,0.0,0.0
1775762925821946885,11419,0.0,1.1,0.012,0.2,-0.02,0.08,1.0,-2.25,-4.81,-0.12,-0.37,-0.56,2.75,1.31,-3.5,1441.46,1137.0,0.0,0.0,0.0,0.0
1775762925930278035,11518,0.0,0.7,0.012,0.3,0.02,-0.08,0.88,-2.38,-4.81,-0.08,-0.12,-0.71,-3.0,1.63,-0.63,1285.56,1137.0,0.0,0.0,0.0,0.0
1775762926053142285,11618,0.0,0.7,0.008,0.5,-0.04,-0.16,0.81,-2.81,-5.13,0.23,-0.09,-0.63,0.44,3.88,0.06,1398.24,1810.0,0.0,0.0,0.0,0.0
1775762926120852716,11717,0.0,0.9,0.016,0.7,0.06,-0.06,0.88,-3.0,-5.31,0.46,-0.16,-0.53,2.44,-3.31,1.88,1325.87,1727.0,0.0,0.0,0.0,0.0
1775762926229171597,11817,0.0,1.1,0.068,0.5,0.14,-0.16,1.19,-2.44,-5.69,0.41,-0.14,-0.49,-1.0,-9.31,5.44,1306.14,1727.0,0.0,0.0,0.0,0.0
1775762926321485179,11917,0.0,0.9,0.048,0.3,0.06,-0.06,2.13,-1.81,-6.31,0.45,-0.02,-0.15,-5.69,-5.81,11.88,1296.03,2155.0,0.0,0.0,0.0,0.0
1775762926419756513,12017,0.0,1.0,0.048,0.2,-0.08,-0.1,3.38,-1.75,-6.75,-0.26,-0.05,0.02,0.19,-0.0,16.62,1256.24,2398.0,0.0,0.0,0.0,0.0
1775762926522127621,12116,0.0,1.1,0.036,-0.1,-0.16,0.0,5.25,-2.25,-6.38,-0.32,-0.16,-0.36,-0.37,5.25,18.0,1271.5,2398.0,0.0,0.0,0.0,0.0
1775762926620343434,12216,0.0,0.8,0.02,0.3,0.0,-0.02,6.69,-2.94,-6.94,-1.53,0.37,0.1,-10.63,5.44,12.88,1256.92,1506.0,0.0,0.0,0.0,0.0
1775762926718628541,12315,0.0,1.1,0.024,0.4,-0.08,-0.04,7.5,-3.63,-7.75,-1.45,0.74,-0.51,-6.88,4.88,4.13,1322.09,1506.0,0.0,0.0,0.0,0.0
1775762926816927680,12414,0.0,0.7,0.02,0.3,0.04,-0.02,7.63,-3.63,-7.81,-0.27,0.35,-0.39,6.5,-3.13,1.88,1267.39,1249.0,0.0,0.0,0.0,0.0
1775762926919299085,12514,0.0,1.1,0.004,0.3,0.06,-0.16,7.88,-3.38,-6.69,-0.78,0.46,-0.72,9.63,-0.69,0.88,1267.73,2429.0,0.0,0.0,0.0,0.0
1775762927017562717,12613,0.0,1.0,0.012,0.4,0.12,0.02,7.44,-2.94,-5.69,-0.06,0.28,-0.5,7.69,-4.0,-8.5,1303.74,2429.0,0.0,0.0,0.0,0.0
1775762927115838260,12712,0.0,1.0,0.024,0.2,-0.1,0.02,6.56,-2.25,-5.0,0.18,0.4,-0.68,9.31,-5.88,-10.63,1240.8,1151.0,0.0,0.0,0.0,0.0
1775762927218197228,12813,0.0,0.9,0.068,0.1,-0.06,-0.04,5.31,-1.88,-4.44,0.27,0.89,-0.38,4.31,4.13,-15.5,1316.78,1313.0,0.0,0.0,0.0,0.0
1775762927320235589,12912,0.0,0.9,0.052,0.4,0.0,-0.14,3.63,-1.37,-4.69,0.49,0.47,-0.14,3.38,10.0,-17.0,11961.44,1079.0,0.0,0.0,0.0,0.0
1775762927414686925,13012,0.0,0.9,0.0,1.2,-0.02,0.08,2.0,-1.75,-4.69,-0.65,0.13,0.08,1.69,2.75,-13.88,1230.17,1079.0,0.0,0.0,0.0,0.0
1775762927517114279,13112,0.032,0.3,0.0,1.4,-0.04,0.0,1.12,-1.5,-3.94,-0.53,-0.03,0.0,5.63,-2.69,-5.38,1253.49,1079.0,0.0,0.0,0.0,0.0
1775762927615362404,13212,0.0,1.3,0.028,0.2,-0.04,-0.02,0.12,-1.5,-2.69,-0.86,-0.31,-0.35,8.06,1.63,-16.62,1244.4,1448.0,0.0,0.0,0.0,0.0
1775762927717753436,13312,0.0,1.3,0.016,0.3,0.1,-0.06,-1.44,-1.75,-1.88,-0.82,-0.7,-0.63,-3.56,-2.19,-12.56,1247.66,1481.0,0.0,0.0,0.0,0.0
1775762927816010263,13412,0.0,1.3,0.016,0.5,-0.08,0.0,-2.19,-1.88,-2.13,0.0,-0.5,-0.14,-3.0,-0.69,-4.13,1233.08,1481.0,0.0,0.0,0.0,0.0
1775762927914292581,13511,0.0,1.3,0.016,0.2,-0.04,0.0,-2.5,-1.75,-2.25,0.01,-0.6,-0.52,-2.63,-4.31,-3.31,1234.97,783.0,0.0,0.0,0.0,0.0
1775762928145140641,13612,0.0,1.2,0.0,0.5,-0.04,-0.06,-2.94,-1.19,-3.0,0.12,-0.2,-0.47,-9.38,-6.38,-4.44,1245.43,2729.0,0.0,0.0,0.0,0.0
1775762928158867775,13713,0.0,1.3,0.004,0.4,-0.06,-0.02,-3.0,-1.0,-3.88,0.45,-0.0,-0.73,-6.88,-0.94,1.25,1245.09,2729.0,0.0,0.0,0.0,0.0
1775762928217297134,13812,0.0,1.2,0.052,0.1,0.08,-0.1,-2.69,-0.94,-4.94,0.49,-0.04,-0.78,-5.81,-1.37,4.94,1302.89,1632.0,0.0,0.0,0.0,0.0
1775762928319643638,13913,0.0,1.3,0.052,0.2,0.0,-0.16,-1.94,-0.88,-6.19,0.52,0.05,-0.56,-4.63,-2.19,9.75,1223.65,1904.0,0.0,0.0,0.0,0.0
1775762928417881805,14013,0.0,1.3,0.02,0.2,-0.02,0.06,-0.88,-0.88,-6.94,0.72,-0.05,-0.26,-0.12,-1.19,11.38,1217.65,1904.0,0.0,0.0,0.0,0.0
1775762928516159997,14112,0.0,1.3,0.024,0.3,0.06,-0.1,0.75,-1.06,-6.94,-0.23,-0.15,0.19,7.19,1.94,23.37,1233.94,1718.0,0.0,0.0,0.0,0.0
1775762928618572186,14212,0.0,1.5,0.012,0.3,0.02,-0.08,2.75,-1.81,-5.81,-0.88,0.19,-0.25,8.5,6.56,14.75,1222.11,1998.0,0.0,0.0,0.0,0.0
1775762928716841788,14312,0.0,1.2,0.004,0.5,-0.1,-0.14,4.06,-2.56,-5.94,-1.71,0.29,-0.01,-6.06,5.81,16.12,1279.39,1998.0,0.0,0.0,0.0,0.0
1775762928815103836,14412,0.0,1.2,0.012,0.3,0.1,-0.16,5.69,-2.63,-4.75,-0.48,0.5,-0.34,0.75,0.5,16.37,1224.68,2045.0,0.0,0.0,0.0,0.0
1775762928937140928,14512,0.0,1.5,0.012,0.6,-0.1,-0.14,6.94,-2.56,-4.25,-0.43,0.29,-0.51,6.0,-3.69,7.88,11962.98,2181.0,0.0,0.0,0.0,0.0
1775762929015740548,14612,0.0,1.5,0.008,0.6,-0.04,-0.12,7.31,-2.06,-3.88,-0.26,0.35,-0.6,-5.06,-2.69,1.37,1219.71,2181.0,0.0,0.0,0.0,0.0
1775762929113935890,14711,0.0,1.2,0.004,0.0,-0.02,-0.08,7.25,-1.94,-4.25,0.14,0.42,-0.76,-2.5,4.38,-4.0,1210.79,1909.0,0.0,0.0,0.0,0.0
1775762929216369563,14811,0.0,1.2,0.056,0.5,-0.12,-0.06,6.56,-2.5,-4.56,0.73,0.13,-0.59,1.19,8.44,-9.69,1248.18,1909.0,0.0,0.0,0.0,0.0
1775762929318753157,14912,0.0,1.3,0.044,0.3,-0.18,0.0,5.31,-3.0,-5.19,0.25,0.11,-0.43,-1.56,5.38,-16.0,1230.86,2094.0,0.0,0.0,0.0,0.0
1775762929416981823,15012,0.0,1.4,0.032,0.3,0.04,-0.04,3.44,-2.69,-5.38,-0.7,-0.2,0.13,4.5,-11.06,-21.5,1197.41,1692.0,0.0,0.0,0.0,0.0
1775762929519347996,15113,0.0,1.3,0.032,0.0,-0.04,-0.02,1.5,-0.88,-4.5,-0.52,0.25,-0.12,13.25,-17.69,-20.62,1183.18,1692.0,0.0,0.0,0.0,0.0
1775762929617652603,15214,0.0,1.2,0.02,0.4,-0.02,0.0,-0.75,0.44,-3.5,-1.3,-0.5,0.19,1.06,-7.94,-23.94,1238.74,2499.0,0.0,0.0,0.0,0.0
1775762929720026904,15313,0.0,1.4,0.02,0.0,0.1,-0.14,-2.75,0.75,-3.38,-1.2,-0.46,-0.34,-13.0,-2.5,-15.69,1238.57,2499.0,0.0,0.0,0.0,0.0
1775762929929150833,15414,0.0,1.4,0.008,0.3,0.04,-0.1,-4.0,0.75,-4.56,-0.13,-0.04,-0.39,-11.75,1.94,-10.44,11963.15,1371.0,0.0,0.0,0.0,0.0
1775762929941608640,15514,0.0,1.4,0.008,0.2,-0.04,-0.04,-4.69,0.31,-4.81,-0.14,-0.04,-0.62,3.63,7.63,-1.69,11962.81,1506.0,0.0,0.0,0.0,0.0
1775762930018940605,15614,0.0,1.3,0.0,0.2,-0.02,-0.06,-4.56,-0.37,-4.38,-0.1,-0.02,-0.69,2.69,5.25,3.19,1242.69,1506.0,0.0,0.0,0.0,0.0
1775762930121270662,15715,0.0,1.3,0.02,0.3,0.08,-0.06,-4.06,-0.81,-4.25,0.4,-0.08,-0.44,1.31,2.94,9.94,1246.46,2318.0,0.0,0.0,0.0,0.0
1775762930219578353,15814,0.0,1.5,0.052,0.5,-0.02,-0.02,-2.56,-1.12,-4.31,0.18,-0.22,-0.44,0.56,0.12,17.12,1227.77,2091.0,0.0,0.0,0.0,0.0
1775762930317916757,15913,0.0,1.5,0.048,0.3,0.02,-0.2,-0.94,-1.44,-4.56,0.28,-0.4,-0.66,-1.44,-3.75,16.94,11962.98,2050.0,0.0,0.0,0.0,0.0
1775762930420176204,16013,0.0,1.3,0.044,0.3,0.14,-0.06,0.81,-1.12,-4.63,0.94,-0.43,-0.54,2.94,-7.69,18.06,1303.74,2050.0,0.0,0.0,0.0,0.0
1775762930524470707,16113,0.0,1.6,0.024,0.5,-0.14,-0.02,2.69,-1.0,-4.88,-0.07,-0.14,-0.31,3.69,-2.38,21.19,11961.95,2793.0,0.0,0.0,0.0,0.0
1775762930620866955,16214,0.0,1.1,0.008,0.1,-0.1,-0.08,4.75,-1.63,-3.63,-0.1,0.27,-0.02,22.19,10.19,18.06,1186.78,2793.0,0.0,0.0,0.0,0.0
1775762930719126659,16314,0.0,1.2,0.004,0.2,0.02,0.0,5.69,-2.69,-1.69,-0.61,0.24,-0.34,10.81,7.88,8.13,1223.65,1255.0,0.0,0.0,0.0,0.0
1775762930817411800,16414,0.0,1.2,0.008,0.3,-0.02,-0.12,6.94,-3.13,-1.5,-1.25,0.08,0.18,-2.88,3.0,16.81,1265.16,1255.0,0.0,0.0,0.0,0.0
1775762930919768923,16514,0.0,1.4,0.008,0.3,0.02,-0.14,8.69,-3.25,-1.56,-1.7,0.83,-0.31,-0.5,-1.31,14.88,1206.16,2109.0,0.0,0.0,0.0,0.0
1775762931018008171,16615,0.0,1.3,0.016,0.3,0.02,0.08,9.38,-2.69,-1.56,-1.34,0.69,-0.53,-6.56,-4.25,-0.12,1182.32,1233.0,0.0,0.0,0.0,0.0
1775762931120409539,16715,0.0,1.4,0.004,0.3,0.0,-0.02,9.0,-2.31,-2.31,-0.34,0.45,-0.32,-7.75,-4.56,-3.56,1254.01,1233.0,0.0,0.0,0.0,0.0
1775762931222783490,16816,0.0,1.4,0.048,0.5,0.02,0.08,8.56,-1.63,-2.06,-0.43,0.51,-0.71,3.06,-6.69,-7.25,1215.76,1581.0,0.0,0.0,0.0,0.0
1775762931321080931,16917,0.0,1.2,0.048,0.4,-0.04,0.08,8.13,-0.0,-1.25,-0.31,0.3,-0.39,6.69,-9.31,-3.25,1198.79,1572.0,0.0,0.0,0.0,0.0
1775762931419244204,17016,0.0,1.2,0.028,0.4,0.02,-0.12,7.94,0.19,-0.25,0.08,0.04,-0.26,10.06,3.75,-1.94,1219.02,1572.0,0.0,0.0,0.0,0.0
1775762931553129998,17116,0.0,1.4,0.02,0.5,0.0,0.02,6.69,-0.37,0.0,-0.88,0.05,0.15,-1.37,9.75,-28.69,11963.5,962.0,0.0,0.0,0.0,0.0
1775762931619975116,17216,0.0,1.4,0.02,0.3,-0.12,0.0,3.69,-1.06,-0.31,-0.73,-0.51,0.01,-7.38,1.0,-29.19,1199.81,962.0,0.0,0.0,0.0,0.0
1775762931722325980,17316,0.0,1.4,0.024,-0.2,-0.04,-0.06,1.44,-0.94,-0.63,-0.52,-0.29,-0.5,-11.06,-10.94,-17.44,1256.92,1925.0,0.0,0.0,0.0,0.0
1775762931820606000,17417,0.0,1.1,0.008,0.3,0.08,0.02,-0.25,-0.12,-1.75,0.2,-0.19,-0.52,-14.69,-4.56,-16.5,1309.4,2196.0,0.0,0.0,0.0,0.0
1775762931928943293,17516,0.0,1.4,0.016,0.5,-0.21,0.14,-1.69,-0.0,-2.88,0.82,-0.27,0.06,-8.63,1.0,-11.13,1255.21,2196.0,0.0,0.0,0.0,0.0
1775762932021251843,17615,0.0,1.1,0.012,0.1,-0.04,-0.18,-1.88,-0.12,-3.94,-0.81,-0.0,-0.31,-10.13,1.25,9.5,1317.12,2720.0,0.0,0.0,0.0,0.0
1775762932119479380,17716,0.0,1.3,0.004,0.5,0.0,-0.06,-1.0,-0.56,-4.94,0.24,0.18,-0.74,-15.19,6.0,4.81,1457.92,3092.0,0.0,0.0,0.0,0.0
1775762932221896905,17816,0.0,1.3,0.048,0.6,0.02,0.04,-0.56,-1.12,-6.5,-0.1,0.12,-0.26,-12.5,4.94,8.25,1311.12,3092.0,0.0,0.0,0.0,0.0
1775762932320138179,17916,0.0,1.2,0.052,0.5,-0.06,0.0,0.44,-1.69,-7.44,-0.28,0.18,-0.63,-12.13,6.44,8.63,1294.31,2016.0,0.0,0.0,0.0,0.0
1775762932422521677,18017,0.0,1.1,0.0,0.8,-0.08,-0.1,0.88,-2.25,-8.44,-0.02,-0.06,-0.54,-8.69,3.94,3.0,1390.52,1885.0,0.0,0.0,0.0,0.0
1775762932520772800,18116,0.044,1.0,0.024,0.3,0.04,-0.06,1.25,-2.38,-9.25,0.09,0.13,-0.5,-7.44,-2.63,3.38,1332.38,1885.0,0.0,0.0,0.0,0.0
1775762932619054378,18215,0.0,1.0,0.016,0.5,0.0,-0.06,1.31,-2.0,-9.81,0.12,0.27,-0.3,-0.0,-1.63,-0.12,1355.71,1545.0,0.0,0.0,0.0,0.0
1775762932893138193,18315,0.0,1.0,0.02,0.3,-0.1,-0.08,1.31,-2.0,-9.94,-0.21,0.08,-0.46,-3.19,1.44,1.63,1341.82,836.0,0.0,0.0,0.0,0.0
1775762932922116004,18415,0.0,1.1,0.016,0.3,-0.16,-0.04,1.44,-1.94,-10.25,0.21,0.06,-0.44,-1.69,-2.75,-0.56,1331.53,836.0,0.0,0.0,0.0,0.0
1775762932934407748,18514,0.0,1.1,0.02,0.3,0.14,-0.12,1.37,-1.63,-10.19,-0.01,0.12,-0.5,2.69,-2.25,-1.12,1492.05,1247.0,0.0,0.0,0.0,0.0
1775762933020345782,18615,0.0,0.8,0.024,0.3,-0.14,0.0,1.31,-1.44,-10.06,0.07,0.01,-0.33,1.44,-3.0,-0.56,1338.73,1247.0,0.0,0.0,0.0,0.0
1775762933122741841,18716,0.0,0.9,0.008,0.3,-0.04,-0.06,1.31,-1.12,-9.94,-0.03,0.09,-0.39,0.94,-1.63,-0.44,1345.42,1133.0,0.0,0.0,0.0,0.0
1775762933221012071,18816,0.0,1.1,0.068,0.2,0.06,-0.04,1.31,-1.06,-9.94,-0.01,0.07,-0.46,0.06,0.06,-1.25,1348.33,1594.0,0.0,0.0,0.0,0.0
1775762933323395430,18916,0.0,1.0,0.048,0.3,0.12,0.08,1.12,-1.06,-9.81,0.02,-0.07,-0.12,2.88,0.12,-2.13,1345.25,1594.0,0.0,0.0,0.0,0.0
1775762933421623857,19015,0.0,1.0,0.044,0.2,-0.04,-0.02,0.88,-0.94,-9.56,-0.02,0.05,0.06,1.81,-1.81,-3.06,1330.33,1062.0,0.0,0.0,0.0,0.0
1775762933523992923,19116,0.0,0.9,0.012,0.0,-0.08,-0.06,0.63,-0.69,-9.5,0.04,0.04,0.1,0.19,-1.37,-1.88,1433.23,1655.0,0.0,0.0,0.0,0.0
1775762933622304309,19216,0.0,1.0,0.0,1.3,-0.14,-0.18,0.5,-0.69,-9.5,0.0,-0.0,0.05,-0.37,0.81,-1.25,1327.07,1655.0,0.0,0.0,0.0,0.0
1775762933722502351,19315,0.032,0.5,0.02,0.2,-0.04,0.0,0.31,-0.69,-9.5,0.14,-0.0,-0.06,0.63,-0.31,-2.06,11964.35,2007.0,0.0,0.0,0.0,0.0
1775762933828894033,19415,0.0,1.5,0.016,0.5,0.02,0.06,0.19,-0.63,-9.5,-0.08,-0.0,0.0,1.06,-0.44,-0.25,1343.53,2391.0,0.0,0.0,0.0,0.0
1775762933921222075,19515,0.0,1.0,0.016,0.5,0.06,-0.06,0.19,-0.63,-9.31,0.02,0.02,0.0,1.75,0.5,-0.69,1421.05,2391.0,0.0,0.0,0.0,0.0
1775762934019501951,19615,0.0,1.2,0.004,0.5,0.02,-0.08,0.12,-0.69,-9.13,0.08,-0.02,0.06,2.06,0.94,0.0,1338.9,2099.0,0.0,0.0,0.0,0.0
1775762934121869081,19715,0.0,1.1,0.02,0.2,-0.02,-0.06,0.12,-0.69,-8.94,-0.12,0.02,0.0,1.37,-0.37,-0.56,1339.24,2099.0,0.0,0.0,0.0,0.0
1775762934222054655,19815,0.0,1.3,0.06,0.1,-0.02,-0.1,0.06,-0.69,-8.94,-0.15,-0.06,-0.08,-0.94,-0.94,-0.44,11965.21,1204.0,0.0,0.0,0.0,0.0
1775762934322513623,19915,0.0,1.1,0.044,0.3,0.08,-0.02,0.06,-0.5,-9.13,0.13,0.04,-0.09,-3.0,-2.31,0.37,11964.7,2165.0,0.0,0.0,0.0,0.0
1775762934420795294,20015,0.0,1.2,0.036,0.0,0.06,-0.06,0.19,-0.44,-9.31,0.11,0.14,0.0,-0.81,-0.06,0.31,1354.68,2165.0,0.0,0.0,0.0,0.0
1775762934523111548,20116,0.0,1.3,0.024,0.3,-0.06,-0.2,0.12,-0.63,-9.38,0.1,0.01,0.11,-0.63,3.31,-0.25,1357.42,1641.0,0.0,0.0,0.0,0.0
1775762934621436967,20215,0.0,1.1,0.024,0.3,-0.06,-0.08,0.19,-0.88,-9.44,-0.34,0.04,-0.09,-2.75,1.5,0.63,1425.85,614.0,0.0,0.0,0.0,0.0
1775762934719675260,20315,0.0,1.3,0.024,0.2,0.0,-0.04,0.12,-0.88,-9.81,0.14,-0.0,-0.1,-3.19,-1.0,-1.88,1333.07,614.0,0.0,0.0,0.0,0.0
1775762934829996695,20415,0.0,1.4,0.016,0.2,-0.12,-0.12,-0.06,-0.69,-9.88,0.09,0.03,-0.01,2.81,-1.06,-1.63,11969.16,2548.0,0.0,0.0,0.0,0.0
1775762934920361513,20515,0.0,1.3,0.008,0.3,-0.02,0.0,-0.19,-0.56,-9.56,-0.02,0.06,0.05,2.19,-0.81,-1.5,1304.77,2265.0,0.0,0.0,0.0,0.0
1775762935149139552,20616,0.0,1.3,0.004,0.6,0.02,-0.08,-0.37,-0.5,-9.44,0.0,0.04,0.04,-0.06,-0.12,-0.94,1385.21,2265.0,0.0,0.0,0.0,0.0
1775762935162212282,20717,0.0,1.4,0.008,0.1,-0.08,0.0,-0.37,-0.5,-9.5,0.04,0.06,-0.02,0.19,0.94,0.31,1321.06,1995.0,0.0,0.0,0.0,0.0
1775762935223392215,20816,0.0,1.3,0.044,0.1,-0.1,0.0,-0.31,-0.63,-9.5,0.05,0.04,-0.04,0.56,0.88,1.06,1337.53,1995.0,0.0,0.0,0.0,0.0
1775762935321637116,20916,0.0,1.2,0.052,0.2,0.02,-0.04,-0.25,-0.69,-9.38,0.01,-0.0,-0.01,1.31,0.69,0.5,1386.75,2834.0,0.0,0.0,0.0,0.0
1775762935424012378,21016,0.0,1.4,0.032,0.2,-0.04,-0.18,-0.19,-0.69,-9.31,-0.01,0.07,0.02,-0.06,-0.75,0.88,1361.37,2706.0,0.0,0.0,0.0,0.0
1775762935522253705,21116,0.0,1.2,0.032,0.3,-0.06,-0.2,-0.19,-0.69,-9.31,0.09,0.07,-0.05,-0.94,-0.37,0.19,1389.66,2706.0,0.0,0.0,0.0,0.0
1775762935620567181,21216,0.0,1.3,0.032,0.2,-0.02,0.02,-0.19,-0.63,-9.38,0.03,0.07,-0.07,0.88,-1.37,0.37,1351.25,907.0,0.0,0.0,0.0,0.0
1775762935722946386,21315,0.0,1.4,0.02,0.3,-0.02,-0.04,-0.12,-0.5,-9.31,0.06,0.07,0.0,0.69,-0.25,0.31,1350.39,2297.0,0.0,0.0,0.0,0.0
1775762935821224482,21414,0.0,1.2,0.012,0.5,0.0,-0.14,-0.12,-0.56,-9.25,-0.04,-0.0,-0.02,0.37,1.06,-0.44,1338.04,2297.0,0.0,0.0,0.0,0.0
1775762935969159765,21515,0.0,1.3,0.008,0.2,-0.06,-0.1,-0.31,-0.56,-9.25,0.07,-0.02,-0.04,0.25,0.25,-2.0,1332.21,1421.0,0.0,0.0,0.0,0.0
1775762936021875306,21614,0.0,1.3,0.012,0.1,0.2,0.0,-0.5,-0.56,-9.25,-0.05,0.08,0.0,0.63,0.31,-1.31,1295.34,1421.0,0.0,0.0,0.0,0.0
1775762936122012689,21713,0.0,1.5,0.004,0.3,0.06,-0.08,-0.56,-0.63,-9.25,0.03,0.02,-0.03,0.12,0.5,-0.25,11967.27,993.0,0.0,0.0,0.0,0.0
1775762936218415201,21813,0.0,1.3,0.06,0.5,0.04,-0.02,-0.56,-0.63,-9.19,0.04,0.03,-0.03,0.88,-0.56,0.12,1381.95,2142.0,0.0,0.0,0.0,0.0
1775762936320795891,21913,0.0,1.3,0.048,0.5,0.04,-0.06,-0.56,-0.63,-9.19,0.03,0.11,0.06,0.44,0.44,-0.12,1313.52,2142.0,0.0,0.0,0.0,0.0
1775762936419038733,22012,0.0,1.1,0.04,0.7,-0.16,-0.02,-0.56,-0.69,-9.19,-0.03,-0.01,-0.06,-1.19,0.12,0.37,1305.11,2525.0,0.0,0.0,0.0,0.0
1775762936517303367,22112,0.0,1.3,0.028,0.3,0.04,-0.04,-0.44,-0.69,-9.31,0.03,0.05,0.0,-1.0,-0.94,2.0,1332.38,1452.0,0.0,0.0,0.0,0.0
1775762936619727973,22212,0.0,1.4,0.02,0.2,-0.02,-0.14,-0.31,-0.69,-9.31,0.0,0.11,-0.04,0.06,0.75,1.25,1335.64,1452.0,0.0,0.0,0.0,0.0
1775762936719900273,22312,0.0,1.5,0.02,0.3,0.12,-0.02,-0.19,-0.75,-9.31,0.04,0.03,0.0,0.19,0.25,2.06,11968.81,1243.0,0.0,0.0,0.0,0.0
1775762936820362022,22412,0.0,1.2,0.012,0.6,0.02,-0.08,0.06,-0.81,-9.25,0.15,0.01,0.05,0.69,-0.12,2.38,1352.28,1282.0,0.0,0.0,0.0,0.0
1775762936937139440,22512,0.0,1.2,0.012,0.1,-0.12,0.1,0.25,-0.75,-9.31,-0.17,0.08,0.08,-1.31,-1.06,1.0,1379.72,1282.0,0.0,0.0,0.0,0.0
1775762937026955191,22612,0.0,1.4,0.0,0.0,0.06,-0.12,0.37,-0.75,-9.5,0.0,0.14,-0.11,-2.69,-0.63,1.5,1356.22,1952.0,0.0,0.0,0.0,0.0
1775762937119289468,22712,0.0,1.2,0.008,0.2,-0.12,-0.08,0.5,-0.81,-9.56,-0.02,0.11,-0.12,1.56,-0.0,1.06,1389.49,1952.0,0.0,0.0,0.0,0.0
1775762937219477791,22812,0.0,1.6,0.056,0.2,-0.02,-0.06,0.56,-0.81,-9.38,-0.1,0.05,-0.04,1.94,-0.0,0.0,11969.16,2443.0,0.0,0.0,0.0,0.0
1775762937319931959,22913,0.0,1.2,0.04,0.1,-0.06,0.0,0.44,-0.75,-9.19,0.06,0.13,0.05,2.38,-0.5,-1.19,1307.34,1860.0,0.0,0.0,0.0,0.0
1775762937422279660,23014,0.0,1.2,0.044,0.5,0.08,-0.2,0.37,-0.81,-9.0,-0.04,0.06,0.04,1.19,1.19,-0.88,1386.06,1860.0,0.0,0.0,0.0,0.0
1775762937520546384,23114,0.0,1.2,0.02,0.5,-0.1,-0.1,0.25,-0.81,-8.94,0.01,0.1,0.05,0.12,0.44,-0.44,1457.41,1650.0,0.0,0.0,0.0,0.0
1775762937622946146,23215,0.0,1.1,0.024,0.3,0.02,0.06,0.25,-0.88,-8.94,-0.03,0.06,0.07,0.5,0.56,-0.88,1372.34,1999.0,0.0,0.0,0.0,0.0
1775762937721249805,23315,0.0,1.4,0.024,0.5,-0.06,-0.06,0.12,-0.88,-9.0,-0.01,0.02,-0.09,-1.75,0.12,-1.25,1373.71,1999.0,0.0,0.0,0.0,0.0
1775762937829589069,23414,0.0,1.2,0.016,0.2,0.02,0.0,-0.0,-0.81,-9.0,0.06,0.03,-0.1,1.37,-0.19,-1.37,1382.29,1569.0,0.0,0.0,0.0,0.0
1775762937921896018,23515,0.0,1.3,0.02,0.2,0.18,-0.1,-0.19,-0.75,-8.88,0.17,-0.09,-0.21,0.5,-0.88,-1.31,1407.33,1569.0,0.0,0.0,0.0,0.0
1775762938024256106,23616,0.0,1.1,0.012,0.3,-0.04,-0.04,-0.19,-0.56,-9.06,0.24,-0.12,-0.11,1.37,-5.13,0.44,1285.39,1018.0,0.0,0.0,0.0,0.0
1775762938122530585,23716,0.0,1.3,0.008,0.6,0.04,0.0,0.37,0.12,-9.0,0.02,-0.01,-0.09,0.69,-9.31,8.38,1353.65,1551.0,0.0,0.0,0.0,0.0
1775762938232839429,23816,0.0,1.4,0.06,0.2,0.02,-0.12,1.63,0.5,-8.94,0.29,-0.17,0.07,2.06,-4.5,16.5,11967.78,1392.0,0.0,0.0,0.0,0.0
1775762938323189296,23916,0.0,1.3,0.044,0.3,0.08,0.06,3.5,0.12,-8.81,-0.16,-0.07,0.11,1.5,4.0,21.31,1345.25,1392.0,0.0,0.0,0.0,0.0
1775762938421390570,24016,0.0,1.2,0.036,0.2,0.04,-0.14,5.56,-0.5,-8.75,-0.16,0.02,-0.01,0.69,1.69,20.87,1312.15,2271.0,0.0,0.0,0.0,0.0
1775762938523820551,24116,0.0,1.4,0.024,0.6,-0.16,-0.04,7.13,-0.5,-8.44,0.98,0.37,-0.08,4.44,-4.25,9.06,1301.0,2271.0,0.0,0.0,0.0,0.0
1775762938622110248,24216,0.0,1.2,0.024,0.3,-0.06,-0.08,7.19,0.25,-7.94,0.04,0.54,-0.3,5.56,-8.81,-4.0,1280.42,1456.0,0.0,0.0,0.0,0.0
1775762938724481743,24315,0.0,1.3,0.02,0.3,-0.1,-0.02,6.94,0.88,-7.94,0.31,0.7,-0.44,-3.63,0.69,-1.37,1303.57,622.0,0.0,0.0,0.0,0.0
1775762938822776032,24415,0.0,1.3,0.012,0.4,0.0,0.12,6.69,0.81,-8.63,0.75,0.61,-0.28,-4.69,4.44,-5.19,1278.02,622.0,0.0,0.0,0.0,0.0
1775762938925141991,24516,0.0,1.2,0.004,0.3,0.08,0.02,6.0,1.5,-9.94,0.69,0.51,-0.15,2.31,6.38,-2.88,1314.89,1686.0,0.0,0.0,0.0,0.0
1775762939023416748,24615,0.0,1.4,0.004,0.1,-0.04,0.02,5.75,1.12,-10.25,0.5,0.24,0.34,6.44,12.63,-3.06,1299.97,1535.0,0.0,0.0,0.0,0.0
1775762939121692281,24715,0.0,1.4,0.012,-0.1,-0.12,-0.18,4.81,0.37,-9.63,-0.32,-0.13,0.8,7.56,4.19,-15.5,1241.83,1535.0,0.0,0.0,0.0,0.0
1775762939224068037,24815,0.0,1.3,0.052,0.3,-0.1,-0.14,3.13,0.44,-8.69,-0.02,-0.1,0.72,9.38,0.31,-17.56,1241.83,1334.0,0.0,0.0,0.0,0.0
1775762939322328797,24915,0.0,1.2,0.044,0.5,0.02,-0.18,1.06,0.63,-8.31,-1.73,-0.68,0.27,-2.63,2.31,-24.81,1363.25,1334.0,0.0,0.0,0.0,0.0
1775762939424680743,25016,0.0,1.4,0.04,0.5,-0.12,-0.12,-1.12,0.88,-9.06,-1.21,-0.98,-0.31,-10.38,0.88,-15.81,1251.44,1698.0,0.0,0.0,0.0,0.0
1775762939522952778,25116,0.0,1.1,0.024,0.6,0.06,-0.08,-1.94,0.56,-9.38,-0.16,-0.44,-0.46,6.5,6.38,-1.19,1268.59,2169.0,0.0,0.0,0.0,0.0
1775762939625375283,25217,0.0,1.3,0.02,0.3,0.04,-0.14,-2.0,0.06,-9.0,-0.28,-0.57,-0.27,-1.56,3.56,-1.31,1272.19,2169.0,0.0,0.0,0.0,0.0
1775762939723634190,25318,0.0,1.1,0.02,0.3,0.02,-0.02,-1.94,-0.56,-8.94,-0.14,-0.57,-0.28,1.5,-0.44,4.44,1293.97,1597.0,0.0,0.0,0.0,0.0
1775762939949138684,25417,0.0,1.1,0.016,0.5,-0.12,-0.08,-1.31,-0.75,-8.75,0.36,-0.26,-0.4,0.94,-1.69,7.94,1273.73,1628.0,0.0,0.0,0.0,0.0
1775762939961704254,25517,0.0,1.3,0.012,0.4,0.02,0.02,-0.5,-1.31,-9.13,0.26,-0.47,-0.26,0.37,-0.75,6.75,1311.8,1628.0,0.0,0.0,0.0,0.0
1775762940026679825,25618,0.0,1.2,0.012,0.1,0.0,-0.08,0.37,-1.12,-8.88,0.22,-0.45,0.41,5.81,-9.56,10.5,1308.89,1720.0,0.0,0.0,0.0,0.0
1775762940124923682,25718,0.0,1.3,0.012,0.3,-0.06,0.04,1.63,-0.5,-8.63,-0.22,-0.21,0.7,-0.81,-6.75,13.69,1281.1,1673.0,0.0,0.0,0.0,0.0
1775762940227320419,25818,0.0,1.1,0.06,0.5,-0.04,0.02,3.13,-0.75,-8.63,-0.7,-0.18,-0.01,0.5,4.69,15.0,1277.5,1673.0,0.0,0.0,0.0,0.0
1775762940325610821,25919,0.0,0.9,0.044,0.3,-0.02,-0.04,4.25,-1.44,-8.44,-0.44,-0.33,-0.11,-1.81,0.25,11.75,1254.69,2081.0,0.0,0.0,0.0,0.0
1775762940427974140,26019,0.0,1.3,0.036,0.5,0.04,0.02,5.69,-1.5,-8.5,-1.61,0.6,0.34,-5.5,-3.19,15.63,1277.5,2081.0,0.0,0.0,0.0,0.0
1775762940532188847,26119,0.0,1.3,0.028,0.2,0.04,-0.12,6.75,-1.63,-8.75,-0.63,0.71,0.23,1.25,2.69,5.56,11967.27,1432.0,0.0,0.0,0.0,0.0
1775762940630541439,26219,0.0,1.4,0.0,0.3,0.0,-0.08,6.94,-1.94,-8.31,-0.42,0.42,-0.56,1.75,1.94,1.0,11967.61,1364.0,0.0,0.0,0.0,0.0
1775762940728828915,26319,0.0,1.1,0.016,0.6,0.06,-0.23,6.94,-1.69,-8.63,-0.51,0.51,-0.43,-9.25,-0.12,-0.25,11965.55,1794.0,0.0,0.0,0.0,0.0
1775762940827210038,26419,0.0,1.4,0.016,0.0,-0.12,0.0,6.81,-1.69,-8.94,0.29,0.46,-0.94,0.19,2.31,-1.69,11966.93,1794.0,0.0,0.0,0.0,0.0
1775762940927568651,26519,0.0,1.4,0.008,0.3,-0.02,-0.12,6.31,-2.0,-8.56,0.88,0.63,0.05,8.13,4.75,-7.31,1256.41,948.0,0.0,0.0,0.0,0.0
1775762941153123156,26619,0.0,1.3,0.008,0.5,0.02,-0.04,5.63,-2.38,-7.5,0.44,0.4,0.41,8.88,5.5,-5.19,1227.08,948.0,0.0,0.0,0.0,0.0
1775762941166225778,26720,0.0,1.2,0.012,0.5,0.0,-0.06,4.81,-2.63,-7.19,-0.59,0.14,0.85,4.13,-0.56,-11.38,1326.55,1438.0,0.0,0.0,0.0,0.0
1775762941226501204,26819,0.0,1.5,0.052,0.5,0.0,0.0,4.0,-2.0,-6.31,-0.81,0.14,0.6,8.88,-5.06,-4.75,1228.11,1536.0,0.0,0.0,0.0,0.0
1775762941328833221,26919,0.0,1.3,0.056,0.5,0.12,-0.04,3.13,-1.75,-5.56,-1.3,-0.39,-0.1,2.25,0.94,-15.88,1220.91,1536.0,0.0,0.0,0.0,0.0
1775762941427150047,27020,0.0,1.2,0.032,0.1,0.04,-0.02,1.5,-1.5,-5.88,-0.4,-0.69,0.09,-5.44,-2.69,-12.75,1295.85,1145.0,0.0,0.0,0.0,0.0
1775762941537360922,27120,0.0,1.3,0.02,0.4,-0.06,0.0,1.0,-1.37,-5.81,-0.39,-0.2,-0.19,6.13,0.25,-0.94,11966.41,1099.0,0.0,0.0,0.0,0.0
1775762941627804036,27220,0.0,1.3,0.02,0.5,-0.02,-0.1,0.75,-1.31,-5.63,-0.36,-0.18,-0.19,-5.0,0.56,-4.25,1248.18,1099.0,0.0,0.0,0.0,0.0
1775762941730177896,27320,0.0,1.3,0.024,0.2,0.06,-0.04,0.44,-1.56,-6.13,0.16,-0.18,-0.48,-6.44,0.37,-0.81,1339.07,2140.0,0.0,0.0,0.0,0.0
1775762941849136461,27420,0.0,1.1,0.02,0.2,-0.06,-0.1,0.69,-1.56,-6.81,0.44,-0.14,-0.41,-1.63,-3.44,6.81,1274.42,2140.0,0.0,0.0,0.0,0.0
1775762941928705417,27520,0.0,1.4,0.004,0.4,-0.08,-0.06,1.56,-1.44,-7.38,0.22,-0.04,-0.48,-5.56,-4.56,10.81,11968.47,965.0,0.0,0.0,0.0,0.0
1775762942029115959,27620,0.0,1.3,0.004,0.7,-0.08,0.02,2.69,-1.0,-7.88,0.69,-0.38,0.42,0.06,-6.19,11.88,1255.72,1918.0,0.0,0.0,0.0,0.0
1775762942127390874,27720,0.0,1.1,0.004,0.4,-0.04,-0.02,4.31,-0.63,-7.0,-0.04,-0.29,0.64,15.75,-2.69,18.0,1251.26,1918.0,0.0,0.0,0.0,0.0
1775762942231677413,27820,0.0,1.4,0.052,0.4,0.04,-0.1,5.06,-1.25,-5.75,-0.45,-0.01,0.06,6.19,7.94,0.31,11970.7,1408.0,0.0,0.0,0.0,0.0
1775762942328018346,27920,0.0,1.2,0.04,0.5,-0.02,0.0,5.44,-1.69,-5.56,-0.95,0.26,0.26,-10.38,2.56,9.94,1285.22,2476.0,0.0,0.0,0.0,0.0
1775762942430368700,28020,0.0,1.2,0.024,0.2,0.1,0.0,6.81,-1.81,-5.94,-1.22,0.75,-0.22,-7.69,2.94,11.38,1293.28,2476.0,0.0,0.0,0.0,0.0
1775762942528660519,28120,0.0,1.3,0.028,0.1,0.02,-0.04,7.31,-1.69,-5.88,-0.04,0.17,-0.13,1.63,-0.69,1.94,1296.2,949.0,0.0,0.0,0.0,0.0
1775762942626979869,28220,0.0,1.4,0.016,0.3,0.04,-0.1,7.69,-1.5,-5.38,-0.43,0.34,-0.48,2.13,-2.44,5.44,1339.24,949.0,0.0,0.0,0.0,0.0
1775762942729347645,28319,0.0,1.4,0.0,0.5,0.0,-0.02,8.0,-1.44,-5.38,0.17,0.18,-0.06,-0.19,3.75,-0.37,1265.16,2056.0,0.0,0.0,0.0,0.0
1775762942827630281,28419,0.0,1.2,0.016,0.6,-0.12,-0.1,7.38,-1.94,-5.31,0.34,0.21,-0.28,1.94,7.19,-9.88,1317.12,1411.0,0.0,0.0,0.0,0.0
1775762942937877732,28520,0.0,1.2,0.012,0.4,-0.12,-0.04,6.13,-2.13,-5.75,0.36,0.45,-0.34,-2.63,4.75,-13.81,11968.98,1886.0,0.0,0.0,0.0,0.0
1775762943028290243,28620,0.0,1.3,0.004,0.4,0.04,0.0,4.5,-2.25,-6.69,0.64,0.45,0.17,-4.56,8.44,-19.37,1240.63,1886.0,0.0,0.0,0.0,0.0
1775762943130661715,28720,0.0,1.2,0.012,0.5,-0.02,-0.14,2.56,-2.38,-7.31,0.21,0.13,0.49,-3.0,1.5,-21.94,1250.75,1145.0,0.0,0.0,0.0,0.0
1775762943228940379,28821,0.0,1.2,0.052,0.1,-0.08,0.04,0.75,-1.88,-7.44,-0.4,0.13,-0.1,3.38,-6.69,-14.69,1265.16,1145.0,0.0,0.0,0.0,0.0
1775762943327188272,28920,0.0,1.4,0.036,0.3,0.02,-0.16,-0.5,-1.0,-7.25,-1.4,-0.56,-0.28,-3.13,-5.38,-16.19,1275.27,1718.0,0.0,0.0,0.0,0.0
1775762943429554652,29020,0.0,1.5,0.044,0.1,0.04,-0.08,-1.69,-0.44,-7.81,-0.61,-0.84,-0.02,-2.0,-0.5,-6.75,1252.81,939.0,0.0,0.0,0.0,0.0
1775762943527846851,29120,0.0,1.1,0.036,0.2,-0.2,-0.1,-2.38,-0.44,-7.38,0.28,-0.27,-0.24,7.13,-2.69,-7.56,1253.84,939.0,0.0,0.0,0.0,0.0
1775762943765140786,29220,0.0,1.2,0.016,0.1,-0.02,-0.02,-2.75,-0.25,-7.0,-0.28,-0.41,-0.04,1.12,-3.13,3.19,1305.97,2050.0,0.0,0.0,0.0,0.0
1775762943777491913,29321,0.0,1.5,0.02,0.3,0.08,-0.04,-2.13,-0.31,-6.94,0.23,-0.2,-0.27,-0.81,0.31,7.56,1293.11,2050.0,0.0,0.0,0.0,0.0
1775762943830925817,29422,0.0,1.3,0.016,0.3,0.08,-0.08,-1.25,-0.44,-7.0,0.68,-0.34,-0.16,2.38,-0.31,12.31,1256.24,1760.0,0.0,0.0,0.0,0.0
1775762943929184226,29521,0.0,1.2,0.012,0.5,0.06,-0.2,0.31,-1.31,-7.75,0.46,-0.38,-0.35,-1.94,-0.0,17.06,1235.31,1715.0,0.0,0.0,0.0,0.0
1775762944031566770,29621,0.0,1.4,0.008,0.3,0.04,-0.1,1.88,-1.56,-8.19,0.26,-0.19,0.3,5.13,-4.88,15.56,1216.79,1715.0,0.0,0.0,0.0,0.0
1775762944129838134,29722,0.0,1.1,0.0,0.2,-0.02,-0.1,3.63,-1.94,-6.88,-0.06,-0.3,0.8,18.56,7.63,19.87,1200.5,799.0,0.0,0.0,0.0,0.0
1775762944232217858,29822,0.0,1.4,0.052,0.0,-0.02,-0.1,4.88,-2.75,-5.56,-1.11,-0.25,0.37,3.13,3.75,8.69,1228.28,2332.0,0.0,0.0,0.0,0.0
1775762944334674104,29923,0.0,1.3,0.044,0.5,-0.14,0.08,5.88,-2.81,-6.13,-1.72,0.44,-0.04,-10.56,-1.06,8.81,11970.87,1955.0,0.0,0.0,0.0,0.0
1775762944432839601,30023,0.0,1.4,0.032,0.5,-0.04,-0.1,6.56,-2.44,-6.94,-0.52,0.62,-0.19,-2.63,-7.5,3.75,1262.93,1955.0,0.0,0.0,0.0,0.0
1775762944535217085,30124,0.0,1.2,0.02,0.1,-0.02,0.06,6.88,-1.63,-6.25,-0.46,0.29,-0.38,9.75,-4.5,2.94,1245.6,2046.0,0.0,0.0,0.0,0.0
1775762944633535995,30224,0.0,1.1,0.012,0.3,-0.06,0.04,6.94,-1.44,-5.31,-0.83,0.44,-0.19,1.88,2.44,-1.12,1232.91,2046.0,0.0,0.0,0.0,0.0
1775762944731779699,30324,0.0,1.1,0.016,0.5,0.04,-0.12,6.69,-1.5,-4.75,0.34,0.18,-0.25,3.56,2.19,-2.25,1226.05,821.0,0.0,0.0,0.0,0.0
1775762944834201674,30425,0.0,1.2,0.012,0.2,0.02,-0.02,6.44,-1.44,-4.63,0.01,0.39,-0.08,2.06,2.88,-4.38,1250.58,821.0,0.0,0.0,0.0,0.0
1775762944936573936,30526,0.0,1.0,0.012,0.3,-0.08,-0.18,5.5,-1.37,-4.81,-0.03,0.52,0.22,-5.69,5.31,-14.88,1210.1,965.0,0.0,0.0,0.0,0.0
1775762945034850615,30625,0.016,0.2,0.008,0.3,0.02,-0.02,3.75,-1.94,-6.0,0.4,0.27,0.45,-17.75,9.25,-16.87,1257.27,816.0,0.0,0.0,0.0,0.0
1775762945133123960,30725,0.0,0.8,0.016,0.2,-0.1,0.04,2.13,-1.81,-7.56,-0.58,0.13,0.66,-8.38,-6.69,-17.5,1393.95,816.0,0.0,0.0,0.0,0.0
1775762945235507034,30825,0.0,0.8,0.052,0.2,0.0,0.0,0.88,-0.5,-7.63,-0.28,-0.12,0.0,1.94,-10.88,-11.25,1294.14,780.0,0.0,0.0,0.0,0.0
1775762945333789321,30924,0.0,1.0,0.044,0.5,0.16,-0.06,-0.31,-0.0,-7.81,-1.48,-0.58,0.0,-7.06,-1.63,-10.75,1315.06,1383.0,0.0,0.0,0.0,0.0
1775762945437981948,31025,0.0,0.9,0.044,0.3,0.04,-0.04,-1.0,-0.37,-7.94,-0.55,-0.45,-0.26,-8.63,3.81,-5.56,11969.5,1825.0,0.0,0.0,0.0,0.0
1775762945534400194,31125,0.0,0.7,0.012,0.2,-0.02,-0.1,-1.63,-0.88,-7.94,0.1,-0.37,-0.37,6.19,5.88,-6.5,1348.68,1825.0,0.0,0.0,0.0,0.0
1775762945634639300,31224,0.0,1.0,0.02,0.5,0.08,-0.12,-2.13,-1.37,-7.63,0.12,-0.41,-0.15,2.06,0.94,-4.63,11972.07,1908.0,0.0,0.0,0.0,0.0
1775762945743035416,31324,0.0,0.9,0.016,0.2,0.12,-0.08,-2.44,-1.44,-7.5,0.27,-0.12,-0.4,2.31,-1.44,-1.25,11972.41,2177.0,0.0,0.0,0.0,0.0
1775762946049138961,31424,0.0,0.9,0.012,0.3,0.0,-0.04,-2.38,-1.44,-7.44,0.46,0.19,-0.31,2.81,3.69,1.75,11972.07,2177.0,0.0,0.0,0.0,0.0
1775762946062240760,31524,0.0,0.9,0.0,0.3,0.16,-0.23,-2.19,-1.94,-7.38,0.97,-0.09,-0.06,1.19,4.0,5.63,1280.42,2177.0,0.0,0.0,0.0,0.0
1775762946075005568,31624,0.0,0.6,0.028,0.3,-0.08,-0.12,-1.0,-2.06,-7.5,0.45,-0.51,0.04,2.69,-4.19,17.19,1314.72,1299.0,0.0,0.0,0.0,0.0
1775762946132320652,31724,0.0,1.1,0.012,0.3,-0.02,-0.06,0.69,-1.88,-6.81,-0.17,-0.27,0.38,11.63,-3.06,15.75,1243.72,2228.0,0.0,0.0,0.0,0.0
1775762946234664663,31824,0.0,1.0,0.056,0.2,-0.02,-0.16,1.75,-2.06,-5.44,-0.49,-0.16,0.1,10.88,-0.31,7.75,1245.6,2228.0,0.0,0.0,0.0,0.0
1775762946332976282,31924,0.0,0.8,0.052,0.3,-0.08,0.0,2.56,-1.88,-4.88,-0.66,0.27,0.17,-4.0,-5.19,10.19,1378.35,1965.0,0.0,0.0,0.0,0.0
1775762946431248538,32023,0.0,0.7,0.04,0.3,-0.06,-0.14,3.81,-1.31,-5.25,0.15,0.96,0.54,-3.56,-1.75,13.81,1257.61,1799.0,0.0,0.0,0.0,0.0
1775762946533602750,32122,0.0,0.7,0.04,0.4,0.04,-0.1,4.94,-1.56,-4.88,0.41,0.48,0.6,8.06,3.44,8.44,1291.57,1799.0,0.0,0.0,0.0,0.0
1775762946631910666,32222,0.0,0.9,0.024,0.3,-0.02,0.06,5.25,-1.69,-4.38,0.08,0.23,0.38,3.13,-0.25,1.56,1258.64,2226.0,0.0,0.0,0.0,0.0
1775762946730197289,32321,0.0,1.1,0.024,0.2,0.0,0.02,5.69,-1.31,-4.63,0.14,0.26,0.35,-8.69,-3.56,6.56,1341.82,1285.0,0.0,0.0,0.0,0.0
1775762946832578885,32421,0.0,1.0,0.024,0.3,-0.16,-0.23,6.5,-0.81,-5.63,0.21,0.28,0.33,-11.63,-8.13,10.56,1310.95,1285.0,0.0,0.0,0.0,0.0
1775762946930860806,32521,0.0,0.9,0.008,0.2,0.0,0.06,7.56,-0.19,-6.75,0.01,0.81,-0.15,-9.81,-1.0,11.63,1345.59,1883.0,0.0,0.0,0.0,0.0
1775762947029137043,32620,0.0,0.9,0.024,0.3,-0.04,-0.1,8.56,-0.37,-7.5,-0.14,0.65,-0.57,-5.0,8.44,5.19,1489.13,1883.0,0.0,0.0,0.0,0.0
1775762947131512777,32720,0.0,1.1,0.024,0.9,-0.16,-0.02,8.25,-0.94,-7.88,-1.29,0.13,-0.9,-3.81,8.56,-10.25,1396.18,2273.0,0.0,0.0,0.0,0.0
1775762947229840754,32821,0.0,1.2,0.044,0.2,0.02,-0.16,6.81,-1.25,-7.94,-1.6,-0.31,-0.49,1.44,1.88,-15.94,1571.45,981.0,0.0,0.0,0.0,0.0
1775762947332180365,32921,0.0,1.1,0.04,0.2,-0.14,-0.06,5.0,-0.75,-7.5,-0.88,-0.72,-0.37,6.75,-4.63,-19.0,1383.83,981.0,0.0,0.0,0.0,0.0
1775762947430418821,33021,0.0,1.4,0.044,0.1,0.0,0.06,3.69,-0.56,-6.0,-0.36,-0.13,-0.12,14.13,-4.38,-8.19,1412.47,1638.0,0.0,0.0,0.0,0.0
1775762947532814219,33122,0.0,1.3,0.028,0.6,0.06,-0.1,3.69,-0.44,-4.31,-0.31,-0.28,-0.18,16.62,1.31,1.69,1383.83,2363.0,0.0,0.0,0.0,0.0
1775762947631118088,33221,0.0,1.2,0.024,0.1,-0.1,0.02,3.63,-1.06,-2.88,-0.48,-0.3,-0.4,9.31,7.63,-0.44,1566.82,2363.0,0.0,0.0,0.0,0.0
1775762947729400758,33320,0.0,1.1,0.012,0.2,-0.12,-0.14,3.81,-2.0,-2.25,-0.05,-0.34,-0.57,-0.5,2.94,2.56,1394.64,943.0,0.0,0.0,0.0,0.0
1775762947831835130,33420,0.0,1.4,0.012,0.3,-0.06,0.02,4.06,-2.31,-2.63,0.36,-0.2,-0.31,-3.44,-0.06,3.25,1317.46,1749.0,0.0,0.0,0.0,0.0
1775762947930097841,33519,0.0,1.2,0.016,0.5,0.04,-0.12,4.69,-2.19,-2.75,0.59,-0.29,-0.11,2.94,-4.88,9.0,1302.89,1749.0,0.0,0.0,0.0,0.0
1775762948028345115,33619,0.0,1.1,0.012,0.3,-0.08,-0.04,5.38,-2.06,-2.31,-0.2,-0.38,-0.09,3.75,0.88,4.75,1358.62,2446.0,0.0,0.0,0.0,0.0
1775762948257138933,33719,0.0,1.0,0.012,0.3,-0.06,-0.04,5.38,-2.25,-2.06,-0.07,-0.57,-0.2,1.06,5.63,-5.25,11972.24,2373.0,0.0,0.0,0.0,0.0
1775762948268842449,33819,0.0,1.0,0.056,0.2,0.1,0.04,4.31,-2.81,-2.31,-0.21,-0.33,0.19,-4.75,5.56,-12.19,1264.64,2373.0,0.0,0.0,0.0,0.0
1775762948327290896,33918,0.0,0.9,0.048,0.2,0.0,-0.08,3.19,-3.13,-2.81,-1.1,0.52,0.72,-7.13,-0.88,-12.13,1263.61,1204.0,0.0,0.0,0.0,0.0
1775762948429659256,34018,0.0,1.1,0.028,0.2,-0.06,-0.08,2.31,-2.88,-3.5,-0.53,0.69,0.68,-4.69,-4.56,-7.81,1250.41,1204.0,0.0,0.0,0.0,0.0
1775762948527904243,34119,0.0,0.7,0.028,0.1,-0.08,-0.08,1.5,-2.38,-3.94,0.05,0.68,0.63,-2.63,-3.56,-8.69,1272.19,2062.0,0.0,0.0,0.0,0.0
1775762948632226651,34219,0.0,1.0,0.028,0.3,-0.04,-0.02,0.37,-1.69,-3.88,-0.29,0.57,0.32,5.31,-0.44,-14.81,11974.3,694.0,0.0,0.0,0.0,0.0
1775762948730513908,34319,0.0,1.3,0.012,0.1,-0.08,0.0,-1.0,-1.75,-3.5,-0.71,0.43,-0.24,0.19,3.38,-12.19,11973.62,1879.0,0.0,0.0,0.0,0.0
1775762948830981802,34419,0.0,1.1,0.012,0.3,0.08,-0.1,-2.06,-1.75,-3.38,-0.02,0.28,-0.09,-9.31,5.19,-11.94,1263.44,1879.0,0.0,0.0,0.0,0.0
1775762948931189077,34519,0.0,1.2,0.016,0.3,0.04,-0.06,-3.5,-1.94,-4.38,0.19,-0.08,0.34,-4.69,1.88,-14.13,11970.53,2316.0,0.0,0.0,0.0,0.0
1775762949027534913,34619,0.0,1.3,0.012,0.2,0.0,-0.12,-4.19,-2.13,-4.25,0.06,-0.0,-0.25,5.19,1.63,0.81,1341.82,2316.0,0.0,0.0,0.0,0.0
1775762949145136034,34718,0.0,1.6,0.004,0.3,0.14,-0.06,-3.56,-2.31,-4.06,-0.18,-0.26,-0.27,-1.56,2.06,7.38,1274.42,1689.0,0.0,0.0,0.0,0.0
1775762949228205158,34818,0.0,1.2,0.048,0.1,0.0,-0.08,-3.06,-2.81,-4.31,0.09,-0.52,-0.14,-3.75,4.31,3.88,1301.68,1689.0,0.0,0.0,0.0,0.0
1775762949330552076,34918,0.0,1.1,0.052,0.6,-0.04,0.06,-2.75,-3.38,-4.81,-0.26,-0.34,-0.06,-6.88,-2.06,2.56,1304.09,2459.0,0.0,0.0,0.0,0.0
1775762949428837428,35018,0.0,1.2,0.032,0.4,0.08,-0.1,-2.5,-3.13,-5.56,0.1,-0.04,-0.16,-8.75,-4.63,2.25,1305.63,1163.0,0.0,0.0,0.0,0.0
1775762949531219766,35119,0.0,1.4,0.024,0.3,-0.02,-0.1,-2.44,-2.94,-6.25,0.18,0.02,-0.22,-4.56,0.12,0.12,1338.39,1163.0,0.0,0.0,0.0,0.0
1775762949641542603,35220,0.0,1.1,0.02,0.3,-0.2,-0.1,-2.44,-2.94,-6.56,0.2,-0.07,-0.12,-0.19,-0.63,0.31,11974.13,1465.0,0.0,0.0,0.0,0.0
1775762949731909100,35320,0.0,1.0,0.016,0.3,0.08,-0.02,-2.44,-2.81,-6.5,0.07,0.02,-0.02,2.25,-1.44,-1.63,1331.01,2531.0,0.0,0.0,0.0,0.0
1775762949840235999,35421,0.0,1.5,0.0,0.2,0.04,-0.12,-2.69,-2.63,-6.44,0.12,0.13,0.06,-0.12,-1.25,-2.75,1333.58,2531.0,0.0,0.0,0.0,0.0
1775762949932562830,35521,0.0,1.3,0.004,0.5,-0.16,-0.04,-2.94,-2.5,-6.5,0.16,0.11,-0.02,-0.06,-0.69,-1.69,1295.34,1661.0,0.0,0.0,0.0,0.0
1775762950053135046,35620,0.0,1.3,0.004,0.2,0.04,-0.12,-3.06,-2.31,-6.56,0.22,0.13,-0.06,1.63,0.31,-1.06,1349.88,1980.0,0.0,0.0,0.0,0.0
1775762950133236031,35721,0.0,1.3,0.0,0.2,0.0,0.06,-3.13,-2.31,-6.38,0.03,0.08,0.01,2.0,0.5,-0.19,1336.84,1980.0,0.0,0.0,0.0,0.0
1775762950231522483,35821,0.0,1.3,0.048,0.2,-0.16,-0.02,-3.13,-2.31,-6.38,0.02,0.08,0.04,-3.44,-1.0,1.06,1343.7,1905.0,0.0,0.0,0.0,0.0
1775762950329792920,35920,0.0,1.2,0.052,0.2,-0.04,-0.08,-2.94,-2.25,-6.94,0.08,0.1,0.06,-4.81,1.06,2.38,1304.6,1905.0,0.0,0.0,0.0,0.0
1775762950432130585,36020,0.0,1.1,0.02,0.1,-0.06,-0.1,-2.81,-2.38,-7.31,0.08,-0.07,-0.07,-3.56,0.56,0.81,1290.19,2680.0,0.0,0.0,0.0,0.0
1775762950532355900,36119,0.0,1.2,0.012,0.5,-0.06,0.02,-2.75,-2.38,-7.56,-0.05,-0.12,0.0,-1.69,-0.12,0.0,11975.16,1534.0,0.0,0.0,0.0,0.0
1775762950632845891,36219,0.0,1.2,0.004,0.4,-0.06,0.0,-2.81,-2.38,-7.63,0.01,-0.06,-0.08,0.44,-0.12,-1.56,1292.6,1534.0,0.0,0.0,0.0,0.0
1775762950731090666,36320,0.0,1.4,0.004,0.2,0.04,0.04,-3.0,-2.25,-7.69,0.07,0.07,-0.02,-0.44,-0.94,-2.88,1304.6,381.0,0.0,0.0,0.0,0.0
1775762950829378692,36420,0.0,1.5,0.0,0.5,-0.14,-0.1,-3.25,-2.19,-7.69,0.07,-0.0,-0.05,-0.0,-0.12,-1.06,1287.28,1776.0,0.0,0.0,0.0,0.0
1775762950931780569,36519,0.0,1.3,0.0,0.6,0.04,-0.23,-3.31,-2.19,-7.81,0.09,0.01,-0.03,-0.69,0.56,-0.69,1296.71,1776.0,0.0,0.0,0.0,0.0
1775762951030065090,36619,0.0,1.5,0.0,0.2,-0.1,0.02,-3.38,-2.13,-7.94,0.09,-0.0,-0.08,-1.0,-1.0,-1.56,1329.47,2503.0,0.0,0.0,0.0,0.0
1775762951128356482,36718,0.0,1.1,0.0,0.6,0.04,-0.04,-3.5,-2.06,-7.94,-0.03,0.1,-0.04,0.75,-0.12,-0.63,1311.46,2308.0,0.0,0.0,0.0,0.0
1775762951238660213,36818,0.0,1.3,0.04,0.5,0.1,-0.08,-3.38,-2.06,-7.81,0.16,0.04,-0.07,1.81,-0.12,2.25,11974.47,1809.0,0.0,0.0,0.0,0.0
1775762951329106345,36918,0.0,1.0,0.04,0.3,-0.06,-0.04,-3.25,-2.06,-7.69,0.07,0.02,0.02,1.12,0.12,0.75,11977.22,1809.0,0.0,0.0,0.0,0.0
1775762951427231062,37017,0.0,1.4,0.024,0.3,-0.06,0.06,-3.25,-2.0,-7.63,0.01,0.05,0.02,-0.37,-1.56,0.0,1319.01,1809.0,0.0,0.0,0.0,0.0
1775762951529651151,37117,0.0,1.3,0.016,0.3,-0.02,0.0,-3.25,-2.0,-7.69,0.1,0.05,0.01,-1.75,-0.19,0.0,1313.69,2324.0,0.0,0.0,0.0,0.0
1775762951627948135,37217,0.0,1.2,0.012,0.2,-0.12,-0.04,-3.25,-2.0,-7.81,0.04,0.01,-0.05,-0.56,-0.37,0.44,1301.34,1259.0,0.0,0.0,0.0,0.0
1775762951726242378,37316,0.0,1.4,0.016,0.4,-0.04,0.0,-3.31,-1.94,-7.81,0.04,0.01,-0.02,-0.31,-0.37,-1.81,1309.92,1259.0,0.0,0.0,0.0,0.0
1775762951830562751,37415,0.0,1.2,0.004,0.1,0.14,-0.12,-3.5,-1.88,-7.81,0.04,0.08,-0.01,-0.56,-0.63,-2.25,11972.76,2031.0,0.0,0.0,0.0,0.0
1775762951928823797,37515,0.0,1.3,0.0,0.1,0.14,-0.04,-3.69,-1.81,-7.81,0.14,0.15,0.02,-0.44,-0.75,-0.63,11973.79,1690.0,0.0,0.0,0.0,0.0
1775762952031213150,37615,0.0,1.2,0.0,0.5,-0.04,-0.06,-3.75,-1.81,-7.81,0.05,0.04,-0.09,0.37,0.31,-1.37,11972.59,1632.0,0.0,0.0,0.0,0.0
1775762952129568072,37715,0.0,0.7,0.008,0.1,0.04,-0.06,-3.94,-1.81,-7.75,0.1,0.11,-0.04,1.75,-0.25,-2.13,11974.3,1632.0,0.0,0.0,0.0,0.0
1775762952225842529,37815,0.0,1.0,0.044,0.2,0.04,-0.04,-4.13,-1.75,-7.56,0.07,0.14,0.03,1.37,0.25,-1.44,1305.97,2358.0,0.0,0.0,0.0,0.0
1775762952328227549,37915,0.0,1.0,0.04,0.1,0.04,-0.2,-4.13,-1.75,-7.5,0.05,0.07,0.0,0.12,-0.44,-0.37,11972.41,1691.0,0.0,0.0,0.0,0.0
1775762952426510335,38016,0.0,0.8,0.024,0.5,-0.06,-0.2,-4.19,-1.69,-7.5,0.01,0.22,-0.02,-0.31,-0.37,-1.06,11972.07,1691.0,0.0,0.0,0.0,0.0
1775762952528854288,38115,0.0,0.7,0.02,0.5,-0.02,0.0,-4.25,-1.69,-7.63,0.15,0.11,-0.1,-0.12,1.5,0.81,1304.26,1691.0,0.0,0.0,0.0,0.0
1775762952627161644,38216,0.0,1.1,0.02,0.3,-0.04,-0.08,-4.13,-1.75,-7.56,0.05,0.09,-0.06,2.13,-0.5,1.06,1285.91,1427.0,0.0,0.0,0.0,0.0
1775762952729568438,38317,0.0,0.7,0.008,0.5,0.06,0.0,-4.06,-1.69,-7.38,0.06,0.03,0.03,2.13,-1.19,0.25,1296.54,2016.0,0.0,0.0,0.0,0.0
1775762952837865073,38418,0.0,1.1,0.0,0.4,0.1,0.02,-4.06,-1.5,-7.25,0.05,0.16,-0.04,-0.56,-1.56,0.37,1304.94,2016.0,0.0,0.0,0.0,0.0
1775762952930210434,38517,0.0,0.7,0.0,0.6,0.08,-0.14,-4.0,-1.5,-7.44,0.11,0.05,-0.11,-0.5,0.81,1.37,1276.3,1782.0,0.0,0.0,0.0,0.0
1775762953028505918,38617,0.0,0.9,0.0,0.4,0.02,-0.08,-3.81,-1.5,-7.44,0.08,0.04,-0.03,0.94,0.63,1.0,1279.05,1824.0,0.0,0.0,0.0,0.0
1775762953130877262,38717,0.0,0.9,0.0,0.5,0.02,-0.16,-3.81,-1.5,-7.44,0.0,0.07,0.0,0.06,-0.06,0.37,1295.85,1824.0,0.0,0.0,0.0,0.0
1775762953229159299,38816,0.0,0.9,0.04,0.1,-0.02,-0.08,-3.81,-1.5,-7.44,0.07,-0.0,-0.07,-0.12,0.5,0.31,1286.42,2798.0,0.0,0.0,0.0,0.0
1775762953327445132,38916,0.0,0.9,0.032,0.3,-0.02,-0.06,-3.81,-1.5,-7.38,0.01,-0.02,-0.02,0.56,0.31,-0.12,1310.95,2105.0,0.0,0.0,0.0,0.0
1775762953435817430,39017,0.0,0.7,0.012,0.4,-0.14,-0.04,-3.81,-1.5,-7.38,0.04,0.14,0.0,-0.25,-0.0,-0.37,11971.21,1009.0,0.0,0.0,0.0,0.0
1775762953530094295,39117,0.0,0.7,0.004,0.2,0.06,-0.06,-3.81,-1.5,-7.44,0.13,0.12,-0.02,-0.25,0.44,0.88,11972.07,1009.0,0.0,0.0,0.0,0.0
1775762953630507184,39218,0.0,1.0,0.004,0.5,0.0,0.06,-3.69,-1.56,-7.44,0.0,-0.0,-0.07,0.25,1.12,1.37,1370.11,1009.0,0.0,0.0,0.0,0.0
1775762953732878268,39319,0.0,1.0,0.0,0.2,0.04,-0.06,-3.56,-1.63,-7.44,0.08,-0.02,-0.02,0.19,0.06,0.75,1386.75,682.0,0.0,0.0,0.0,0.0
1775762953831154047,39418,0.0,0.9,0.0,0.4,-0.06,0.0,-3.56,-1.63,-7.44,-0.07,0.04,0.02,-0.31,-0.63,-0.81,1294.82,1978.0,0.0,0.0,0.0,0.0
1775762953933550554,39519,0.0,0.7,0.0,0.4,-0.06,-0.02,-3.56,-1.5,-7.44,0.0,0.04,0.01,-1.12,-0.56,-0.06,1324.67,1978.0,0.0,0.0,0.0,0.0
1775762954031815038,39620,0.0,0.6,0.0,0.3,0.1,-0.02,-3.56,-1.5,-7.56,0.15,0.08,0.04,-0.5,0.37,-0.25,1323.47,2587.0,0.0,0.0,0.0,0.0
1775762954130069191,39719,0.0,0.9,0.0,0.5,-0.02,-0.1,-3.69,-1.5,-7.56,0.04,0.04,-0.03,0.75,0.44,-1.5,1343.87,1995.0,0.0,0.0,0.0,0.0
1775762954232486393,39819,0.0,1.1,0.04,0.5,-0.08,-0.12,-3.81,-1.5,-7.44,-0.03,0.08,0.03,0.5,-0.0,-1.0,1368.91,1995.0,0.0,0.0,0.0,0.0
1775762954330758339,39919,0.0,0.8,0.04,0.6,-0.02,-0.02,-3.88,-1.5,-7.44,0.04,0.08,0.0,-0.19,0.44,0.19,1340.79,2466.0,0.0,0.0,0.0,0.0
1775762954433167598,40019,0.0,0.9,0.012,0.2,-0.06,-0.02,-3.81,-1.56,-7.44,0.05,0.05,-0.11,0.5,0.81,1.19,1356.91,1911.0,0.0,0.0,0.0,0.0
1775762954531391163,40119,0.0,0.7,0.012,0.6,0.0,-0.04,-3.75,-1.69,-7.38,0.09,0.02,-0.01,2.0,0.63,0.37,1364.45,1911.0,0.0,0.0,0.0,0.0
1775762954633809180,40220,0.0,1.0,0.012,0.2,0.16,-0.08,-3.81,-1.69,-7.13,0.08,0.03,-0.04,1.44,0.88,-0.69,1333.58,1462.0,0.0,0.0,0.0,0.0
1775762954732038725,40320,0.0,0.7,0.012,0.5,-0.06,-0.04,-3.81,-1.69,-7.0,0.05,0.07,0.0,0.94,0.31,-0.06,1362.05,1847.0,0.0,0.0,0.0,0.0
1775762954836385337,40421,0.0,0.8,0.0,0.5,0.1,-0.04,-3.81,-1.69,-7.0,0.07,0.05,-0.05,-0.12,0.12,-0.5,11974.82,1821.0,0.0,0.0,0.0,0.0
1775762954932757905,40521,0.0,0.7,0.0,0.5,-0.02,-0.16,-3.81,-1.69,-7.0,0.08,0.02,-0.1,0.44,-0.44,-0.81,1310.77,1821.0,0.0,0.0,0.0,0.0
1775762955035167072,40621,0.0,0.6,0.0,0.5,0.02,-0.12,-3.88,-1.69,-6.94,0.11,0.05,-0.02,1.31,-0.19,-0.63,1298.08,1821.0,0.0,0.0,0.0,0.0
1775762955133419770,40721,0.0,0.8,0.004,0.5,-0.14,-0.06,-3.94,-1.69,-6.81,0.04,0.05,0.0,0.75,-0.37,-0.44,1296.71,1725.0,0.0,0.0,0.0,0.0
1775762955235814478,40821,0.0,0.7,0.052,0.3,0.0,-0.14,-4.0,-1.63,-6.81,0.13,0.11,0.01,-0.12,-0.12,-1.0,1312.83,2117.0,0.0,0.0,0.0,0.0
1775762955334109484,40922,0.0,0.9,0.04,0.2,-0.08,-0.12,-4.0,-1.63,-6.81,0.06,0.1,-0.04,-0.12,0.19,0.5,1333.93,2117.0,0.0,0.0,0.0,0.0
1775762955442456731,41022,0.0,0.9,0.028,0.3,0.0,-0.06,-4.0,-1.69,-6.81,0.15,-0.04,-0.06,-0.31,0.44,-1.31,11973.62,2453.0,0.0,0.0,0.0,0.0
1775762955536731059,41122,0.0,0.7,0.016,0.3,0.06,0.06,-4.38,-1.63,-6.81,-0.03,-0.07,-0.01,0.12,-1.0,-5.31,11973.1,2251.0,0.0,0.0,0.0,0.0
1775762955637138620,41222,0.0,0.9,0.016,0.3,0.04,-0.08,-5.13,-1.44,-6.94,-0.26,0.04,0.14,-1.0,-0.88,-9.5,1373.2,2251.0,0.0,0.0,0.0,0.0
1775762955735413740,41322,0.0,0.7,0.016,0.3,-0.04,-0.14,-6.38,-1.06,-7.06,-0.32,0.46,-0.28,-5.63,-1.63,-16.62,1283.33,1047.0,0.0,0.0,0.0,0.0
1775762955837808467,41422,0.0,1.1,0.012,0.5,0.06,0.06,-8.06,-0.69,-7.56,0.64,0.72,0.14,-2.69,-1.44,-24.56,1275.79,1047.0,0.0,0.0,0.0,0.0
1775762955943994797,41523,0.0,0.9,0.004,0.3,0.04,-0.06,-11.44,0.12,-7.69,-0.14,0.62,-0.06,4.75,8.19,-44.5,11973.79,2507.0,0.0,0.0,0.0,0.0
1775762956034357597,41623,0.0,0.9,0.004,0.3,0.12,-0.06,-16.44,0.12,-7.63,-0.58,0.58,-0.2,-8.44,7.44,-60.75,1382.12,1355.0,0.0,0.0,0.0,0.0
1775762956601140354,41722,0.0,0.7,0.012,0.3,0.0,-0.21,-23.37,1.12,-8.38,-1.46,0.46,-0.19,-16.56,-2.0,-84.94,1341.99,1355.0,0.0,0.0,0.0,0.0
1775762956636386884,41822,0.0,0.9,0.052,0.3,-0.1,-0.06,-32.31,2.94,-9.38,-0.34,-0.84,0.04,-9.75,-5.13,-94.62,1265.5,1032.0,0.0,0.0,0.0,0.0
1775762956644739736,41921,0.0,0.9,0.036,0.6,-0.14,-0.02,-39.5,3.31,-7.88,1.82,-0.68,0.62,30.12,19.62,-60.0,1255.89,1303.0,0.0,0.0,0.0,0.0
1775762956657426674,42021,0.0,0.6,0.028,0.4,0.06,-0.1,-45.88,1.5,-4.19,-0.06,-0.93,-0.05,27.44,21.56,-75.56,1231.88,1303.0,0.0,0.0,0.0,0.0
1775762956670098467,42122,0.0,1.0,0.028,0.4,-0.18,-0.04,-53.0,0.69,-3.38,0.28,-0.94,0.14,-6.25,7.94,-63.94,1269.1,1813.0,0.0,0.0,0.0,0.0
1775762956734614769,42222,0.0,0.9,0.016,0.5,0.08,-0.02,-58.81,0.19,-3.81,0.45,-0.36,-0.18,-2.0,6.69,-60.5,1250.06,1138.0,0.0,0.0,0.0,0.0
1775762956747147694,42322,0.0,0.9,0.012,0.3,-0.06,-0.02,-64.81,-0.0,-4.06,0.45,-0.34,-0.13,-2.38,7.75,-59.75,1219.54,1138.0,0.0,0.0,0.0,0.0
1775762956837000119,42423,0.0,0.9,0.0,0.5,0.04,-0.1,-69.75,-0.63,-4.25,-0.07,-0.44,-0.09,0.94,8.75,-44.56,1220.74,2005.0,0.0,0.0,0.0,0.0
1775762956935307381,42523,0.0,0.7,0.016,0.1,-0.08,-0.08,-73.75,-1.5,-4.13,-0.08,-0.02,-0.53,2.31,12.63,-37.94,1239.09,2005.0,0.0,0.0,0.0,0.0
1775762957037698386,42624,0.0,0.9,0.012,0.3,0.02,0.02,-76.87,-2.38,-3.5,0.3,0.88,-1.05,12.88,11.0,-26.31,1191.24,1672.0,0.0,0.0,0.0,0.0
1775762957269133366,42724,0.0,1.1,0.012,0.3,-0.06,0.04,-79.0,-2.56,-2.31,0.49,1.45,-0.84,17.69,5.06,-17.19,1211.3,1991.0,0.0,0.0,0.0,0.0
1775762957272910607,42823,0.0,0.7,0.052,0.3,-0.16,-0.08,-80.12,-2.63,-0.56,0.79,2.09,-0.35,19.06,-1.56,-7.63,1131.56,1991.0,0.0,0.0,0.0,0.0
1775762957336667445,42924,0.0,0.9,0.044,1.3,0.06,0.0,-80.62,-1.94,0.88,0.79,1.99,-1.05,15.81,-0.12,-1.5,1148.54,1563.0,0.0,0.0,0.0,0.0
1775762957444998836,43024,0.0,1.4,0.036,0.3,0.12,0.02,-80.75,-1.88,1.81,0.3,1.05,-2.08,3.88,-3.63,-2.5,11974.3,2163.0,0.0,0.0,0.0,0.0
1775762957537310202,43124,0.0,1.0,0.032,0.5,0.12,-0.06,-81.0,-0.69,1.44,-0.09,0.51,-2.28,-7.94,-19.56,-2.06,1061.58,2163.0,0.0,0.0,0.0,0.0
1775762957639693053,43224,0.0,1.1,0.02,0.6,0.0,-0.06,-81.25,1.81,0.5,-0.19,0.08,-1.2,-12.06,-29.87,-0.31,936.39,2515.0,0.0,0.0,0.0,0.0
1775762957739891867,43324,0.0,1.2,0.024,0.3,-0.02,-0.12,-81.19,4.44,-0.69,0.24,-0.11,-0.44,-13.56,-22.62,2.5,11973.79,2447.0,0.0,0.0,0.0,0.0
1775762957836252894,43424,0.0,1.6,0.02,0.3,-0.14,0.04,-80.81,5.44,-1.63,0.7,-0.56,0.27,-5.06,-2.63,6.25,718.76,2447.0,0.0,0.0,0.0,0.0
1775762957946532081,43524,0.0,1.4,0.012,0.3,0.02,0.0,-80.12,5.06,-2.0,0.39,-0.12,0.73,8.63,8.94,7.13,11972.41,1969.0,0.0,0.0,0.0,0.0
1775762958038846423,43624,0.0,1.4,0.012,0.3,0.06,-0.14,-79.5,3.19,-0.69,0.68,-0.47,0.83,19.12,27.31,5.88,11972.24,727.0,0.0,0.0,0.0,0.0
1775762958139321809,43724,0.0,1.4,0.024,0.2,0.02,-0.02,-78.81,0.37,1.31,0.81,-1.19,0.92,25.94,30.19,7.31,445.73,727.0,0.0,0.0,0.0,0.0
1775762958239530902,43824,0.0,1.3,0.06,0.3,-0.02,-0.06,-78.0,-1.63,4.0,0.39,-0.34,1.19,27.37,16.75,9.94,11972.76,441.0,0.0,0.0,0.0,0.0
1775762958340016990,43924,0.0,1.2,0.048,0.7,0.08,-0.16,-77.12,-3.06,6.06,0.2,-0.35,1.27,13.06,11.63,7.69,11971.56,320.0,0.0,0.0,0.0,0.0
1775762958438226566,44024,0.0,1.1,0.02,0.3,-0.02,0.0,-76.62,-3.69,6.69,0.2,0.02,1.53,-7.19,-1.37,2.44,11972.59,320.0,0.0,0.0,0.0,0.0
1775762958542512181,44125,0.0,1.3,0.024,0.4,-0.04,0.08,-76.5,-3.94,5.5,0.15,-0.1,0.63,-22.87,1.63,-0.25,11973.62,226.0,0.0,0.0,0.0,0.0
1775762958640862143,44225,0.0,1.0,0.0,0.3,-0.02,-0.08,-76.25,-3.94,2.88,0.29,0.3,0.68,-30.81,-2.38,4.13,11973.1,200.0,0.0,0.0,0.0,0.0
1775762958743313290,44325,0.0,1.4,0.02,0.5,0.1,0.02,-75.87,-4.75,0.44,2.89,0.38,-2.4,-22.62,7.31,-3.25,11973.96,200.0,0.0,0.0,0.0,0.0
1775762958839597209,44425,0.0,1.2,0.016,0.1,0.1,-0.1,-75.87,-5.56,0.5,0.23,-0.02,0.23,9.5,5.81,3.13,194.82,198.0,0.0,0.0,0.0,0.0
1775762958941972794,44526,0.0,1.2,0.016,0.3,-0.02,-0.12,-75.81,-5.69,0.69,-0.05,-0.27,0.84,-1.5,-1.31,1.06,194.82,198.0,0.0,0.0,0.0,0.0
1775762959040261395,44625,0.0,1.2,0.0,0.3,-0.02,-0.02,-75.56,-5.13,0.63,0.22,-0.0,0.03,0.25,-0.31,1.37,202.03,192.0,0.0,0.0,0.0,0.0
1775762959142647367,44726,0.0,0.5,0.0,0.6,0.06,-0.1,-75.5,-5.13,0.56,0.35,-0.01,-0.08,0.63,0.5,0.12,207.34,192.0,0.0,0.0,0.0,0.0
1775762959240926106,44826,0.0,0.9,0.044,0.3,0.06,-0.12,-75.56,-5.06,0.37,0.31,-0.01,-0.09,0.06,0.37,-0.31,198.94,192.0,0.0,0.0,0.0,0.0
1775762959339213029,44925,0.0,1.1,0.016,0.1,-0.08,0.06,-75.56,-5.06,0.19,0.3,0.01,-0.08,-0.06,0.12,-0.06,190.54,189.0,0.0,0.0,0.0,0.0
1775762959441565894,45025,0.0,0.6,0.016,0.6,-0.12,-0.02,-75.56,-5.06,0.06,0.23,0.02,-0.06,-0.0,0.19,-0.12,206.31,189.0,0.0,0.0,0.0,0.0
1775762959657132129,45125,0.0,0.9,0.02,0.3,-0.04,-0.02,-75.56,-5.06,0.0,0.24,-0.0,-0.08,0.06,0.06,0.0,11974.99,187.0,0.0,0.0,0.0,0.0
1775762959669355230,45225,0.0,0.7,0.008,0.3,-0.1,0.06,-75.56,-5.0,-0.06,0.2,0.03,-0.07,0.06,0.06,0.0,194.14,187.0,0.0,0.0,0.0,0.0
1775762959740562410,45325,0.0,1.0,0.0,0.3,0.0,-0.1,-75.56,-5.0,-0.12,0.19,0.02,-0.06,-0.0,0.19,-0.06,219.86,187.0,0.0,0.0,0.0,0.0
1775762959969158332,45425,0.0,0.9,0.0,0.2,0.04,0.06,-75.56,-5.0,-0.19,0.18,0.01,-0.08,0.06,0.06,-0.06,11974.47,190.0,0.0,0.0,0.0,0.0
1775762960043613214,45526,0.0,0.9,0.0,0.4,0.04,-0.12,-75.56,-5.0,-0.25,0.17,0.01,-0.07,0.06,-0.0,0.0,11972.93,189.0,0.0,0.0,0.0,0.0
1775762960056377772,45626,0.0,1.0,0.0,0.2,0.0,0.06,-75.56,-5.0,-0.31,0.15,-0.0,-0.06,-0.06,-0.0,0.06,223.98,189.0,0.0,0.0,0.0,0.0
1775762960141881341,45726,0.0,1.0,0.0,0.3,0.0,-0.16,-75.56,-5.0,-0.31,0.13,0.01,-0.06,-0.0,-0.0,0.0,219.86,187.0,0.0,0.0,0.0,0.0
1775762960244284671,45827,0.0,0.8,0.04,0.2,0.1,-0.1,-75.56,-5.0,-0.37,0.15,-0.0,-0.06,-0.06,0.06,0.0,215.75,187.0,0.0,0.0,0.0,0.0
1775762960342580054,45927,0.0,0.9,0.028,0.2,-0.08,-0.2,-75.56,-5.0,-0.44,0.13,0.01,-0.08,0.06,-0.12,0.06,210.43,193.0,0.0,0.0,0.0,0.0
1775762960440788023,46027,0.0,0.9,0.0,1.4,0.1,-0.16,-75.56,-5.0,-0.44,0.13,-0.0,-0.06,-0.12,-0.0,-0.06,211.46,192.0,0.0,0.0,0.0,0.0
1775762960543215016,46128,0.0,1.4,0.004,0.4,0.1,-0.14,-75.56,-5.0,-0.5,0.13,0.01,-0.07,0.12,0.06,-0.06,215.75,192.0,0.0,0.0,0.0,0.0
1775762960645609921,46229,0.0,1.4,0.004,0.7,0.04,0.04,-75.56,-5.0,-0.5,0.11,-0.0,-0.07,-0.06,-0.06,0.06,211.63,193.0,0.0,0.0,0.0,0.0
1775762960743891898,46328,0.0,1.3,0.004,0.6,-0.1,-0.1,-75.56,-5.0,-0.56,0.12,-0.0,-0.07,0.12,-0.06,-0.12,203.23,191.0,0.0,0.0,0.0,0.0
1775762960852241524,46428,0.0,1.2,0.0,0.5,0.08,-0.06,-75.56,-5.0,-0.56,0.12,0.01,-0.09,0.12,-0.0,-0.06,202.2,191.0,0.0,0.0,0.0,0.0
1775762960944559337,46529,0.0,1.0,0.0,0.5,-0.02,0.02,-75.56,-5.0,-0.56,0.1,0.01,-0.08,0.06,-0.0,0.0,194.82,190.0,0.0,0.0,0.0,0.0
1775762961042832593,46628,0.0,1.4,0.0,0.2,0.06,-0.1,-75.56,-5.0,-0.56,0.13,-0.0,-0.1,-0.0,-0.12,0.0,198.94,188.0,0.0,0.0,0.0,0.0
1775762961145228239,46729,0.0,1.3,0.0,0.5,-0.04,-0.08,-75.56,-5.0,-0.56,0.13,0.01,-0.1,-0.06,-0.0,0.0,203.06,188.0,0.0,0.0,0.0,0.0
1775762961265162473,46830,0.0,1.1,0.036,0.3,0.06,-0.1,-75.56,-5.0,-0.56,0.11,-0.0,-0.08,0.19,-0.0,-0.12,203.06,194.0,0.0,0.0,0.0,0.0
1775762961345917239,46929,0.0,1.4,0.028,0.3,-0.02,-0.2,-75.56,-5.0,-0.56,0.14,0.01,-0.08,0.12,-0.0,0.0,207.34,194.0,0.0,0.0,0.0,0.0
1775762961444149489,47029,0.0,1.2,0.016,0.3,-0.04,0.02,-75.56,-5.0,-0.56,0.12,-0.0,-0.09,-0.06,-0.06,0.06,215.75,186.0,0.0,0.0,0.0,0.0
1775762961546570299,47129,0.0,1.2,0.012,0.2,-0.08,-0.04,-75.56,-5.0,-0.56,0.11,0.01,-0.08,-0.06,-0.0,-0.06,219.86,194.0,0.0,0.0,0.0,0.0
1775762961644855690,47229,0.0,1.2,0.0,0.3,0.0,-0.04,-75.56,-5.0,-0.56,0.1,0.02,-0.06,-0.0,-0.0,0.0,211.46,194.0,0.0,0.0,0.0,0.0
1775762961743112752,47329,0.0,1.2,0.004,0.5,0.04,-0.18,-75.56,-5.0,-0.56,0.11,0.01,-0.07,-0.0,-0.06,-0.06,218.83,205.0,0.0,0.0,0.0,0.0
1775762961845551559,47429,0.0,1.2,0.008,0.0,0.06,-0.1,-75.56,-5.0,-0.56,0.1,-0.01,-0.09,-0.19,0.19,0.12,219.86,193.0,0.0,0.0,0.0,0.0
1775762961943803195,47529,0.0,1.4,0.0,0.3,-0.04,-0.1,-75.56,-5.0,-0.56,0.13,-0.0,-0.07,0.06,0.12,0.06,219.86,193.0,0.0,0.0,0.0,0.0
1775762962046191880,47630,0.0,1.4,0.0,0.4,-0.08,-0.08,-75.56,-5.0,-0.56,0.12,0.01,-0.09,0.06,-0.12,0.06,219.86,192.0,0.0,0.0,0.0,0.0
1775762962144460050,47730,0.0,1.2,0.008,0.3,0.04,-0.14,-75.56,-5.0,-0.56,0.1,0.02,-0.1,0.06,-0.25,-0.06,222.95,192.0,0.0,0.0,0.0,0.0
1775762962246853114,47830,0.0,1.4,0.036,0.6,-0.12,0.06,-75.56,-5.0,-0.56,0.12,-0.0,-0.08,0.06,-0.0,0.0,219.86,191.0,0.0,0.0,0.0,0.0
1775762962345109046,47931,0.0,1.1,0.0,1.3,-0.04,0.0,-75.56,-5.0,-0.56,0.11,-0.0,-0.07,-0.0,-0.25,0.06,202.54,191.0,0.0,0.0,0.0,0.0
1775762962447576748,48030,0.0,1.0,0.016,0.1,-0.1,-0.06,-75.56,-5.0,-0.56,0.12,-0.0,-0.07,-0.12,0.19,0.06,219.86,191.0,0.0,0.0,0.0,0.0
1775762962545804202,48130,0.0,1.0,0.012,0.2,-0.06,-0.1,-75.56,-5.0,-0.56,0.12,-0.0,-0.08,-0.12,0.12,-0.06,223.98,192.0,0.0,0.0,0.0,0.0
1775762962648199821,48231,0.0,0.9,0.012,0.2,0.08,-0.27,-75.56,-5.0,-0.56,0.12,-0.0,-0.05,-0.12,-0.0,0.06,202.54,191.0,0.0,0.0,0.0,0.0
1775762962748420018,48330,0.0,0.9,0.008,0.2,0.04,-0.06,-75.56,-5.0,-0.56,0.12,-0.0,-0.09,-0.19,0.12,0.0,11972.76,192.0,0.0,0.0,0.0,0.0
1775762962844757104,48430,0.0,1.0,0.0,0.2,0.02,0.0,-75.56,-5.0,-0.56,0.11,0.02,-0.08,-0.0,0.06,-0.06,202.54,192.0,0.0,0.0,0.0,0.0
1775762962949153872,48530,0.0,0.7,0.0,0.5,-0.06,-0.02,-75.56,-5.0,-0.56,0.11,0.01,-0.07,-0.0,-0.19,0.0,11974.99,194.0,0.0,0.0,0.0,0.0
1775762963047344561,48630,0.0,0.7,0.0,0.5,0.08,-0.06,-75.56,-5.0,-0.56,0.12,-0.0,-0.07,-0.0,-0.12,0.0,11974.82,194.0,0.0,0.0,0.0,0.0
1775762963147821442,48730,0.0,1.1,0.0,0.3,0.06,-0.1,-75.56,-5.0,-0.56,0.12,0.01,-0.07,-0.06,-0.19,0.12,228.27,194.0,0.0,0.0,0.0,0.0
1775762963246206014,48830,0.0,0.9,0.044,0.3,0.06,-0.12,-75.56,-5.0,-0.56,0.11,0.02,-0.08,-0.0,0.06,0.0,11974.3,185.0,0.0,0.0,0.0,0.0
1775762963348451803,48930,0.0,0.6,0.024,0.2,0.06,-0.04,-75.56,-5.0,-0.56,0.1,-0.0,-0.05,-0.06,0.06,0.0,202.54,185.0,0.0,0.0,0.0,0.0
1775762963448630965,49031,0.0,1.1,0.016,0.5,0.0,-0.06,-75.56,-5.0,-0.56,0.11,-0.0,-0.06,0.12,0.12,0.0,11975.16,189.0,0.0,0.0,0.0,0.0
1775762963551074987,49131,0.0,0.9,0.0,1.7,-0.02,-0.08,-75.56,-5.0,-0.56,0.11,-0.0,-0.06,0.06,-0.12,0.0,11972.59,196.0,0.0,0.0,0.0,0.0
1775762963647455682,49231,0.0,1.2,0.008,0.5,0.02,-0.04,-75.56,-5.0,-0.56,0.13,-0.0,-0.04,0.06,-0.06,0.06,211.46,196.0,0.0,0.0,0.0,0.0
1775762963749832028,49332,0.0,1.1,0.0,0.2,-0.04,0.06,-75.56,-5.0,-0.56,0.12,-0.0,-0.05,-0.06,-0.0,-0.12,210.43,190.0,0.0,0.0,0.0,0.0
1775762963848126093,49433,0.0,1.4,0.0,0.0,0.02,-0.12,-75.56,-5.0,-0.56,0.11,-0.0,-0.07,0.06,-0.0,0.12,223.98,190.0,0.0,0.0,0.0,0.0
1775762963950558061,49532,0.0,1.3,0.0,0.1,-0.1,0.14,-75.56,-5.0,-0.56,0.1,0.01,-0.06,-0.12,-0.0,0.0,205.63,190.0,0.0,0.0,0.0,0.0
1775762964050728305,49633,0.0,1.4,0.0,0.5,0.08,-0.04,-75.56,-5.0,-0.56,0.13,-0.0,-0.08,-0.0,-0.12,0.06,11973.96,194.0,0.0,0.0,0.0,0.0
1775762964159089051,49733,0.0,1.4,0.0,0.6,-0.1,-0.1,-75.56,-5.0,-0.56,0.11,0.02,-0.04,-0.0,-0.0,0.06,11973.62,194.0,0.0,0.0,0.0,0.0
1775762964251477867,49833,0.0,1.4,0.04,0.7,0.0,0.0,-75.56,-5.0,-0.56,0.12,-0.0,-0.05,-0.0,0.12,-0.06,11974.3,194.0,0.0,0.0,0.0,0.0
1775762964351877451,49933,0.0,1.1,0.028,0.5,-0.14,-0.08,-75.56,-5.0,-0.56,0.11,-0.0,-0.09,-0.0,-0.0,0.06,11974.3,189.0,0.0,0.0,0.0,0.0
1775762964451964761,50033,0.0,1.1,0.024,0.3,0.04,-0.2,-75.56,-5.0,-0.56,0.1,-0.01,-0.05,-0.0,-0.0,-0.06,11974.3,197.0,0.0,0.0,0.0,0.0
1775762964552563837,50134,0.0,0.9,0.012,0.3,0.02,-0.12,-75.56,-5.0,-0.56,0.11,-0.0,-0.05,-0.0,-0.06,-0.06,228.27,197.0,0.0,0.0,0.0,0.0
1775762964660829059,50235,0.0,0.9,0.008,0.3,0.08,-0.12,-75.56,-5.0,-0.56,0.13,-0.0,-0.07,-0.06,0.12,-0.06,215.75,197.0,0.0,0.0,0.0,0.0
1775762964753195267,50336,0.0,0.9,0.004,0.3,-0.02,-0.1,-75.56,-5.0,-0.56,0.11,-0.0,-0.08,-0.06,0.06,-0.06,198.94,190.0,0.0,0.0,0.0,0.0
1775762964861476042,50436,0.0,1.0,0.004,0.6,0.04,-0.12,-75.56,-5.0,-0.56,0.1,-0.0,-0.07,0.25,-0.12,0.06,194.82,191.0,0.0,0.0,0.0,0.0
1775762964953853471,50537,0.0,0.9,0.0,0.5,-0.1,-0.08,-75.56,-5.0,-0.56,0.13,-0.0,-0.05,-0.06,-0.0,-0.06,219.86,191.0,0.0,0.0,0.0,0.0
1775762965054001745,50637,0.0,1.0,0.0,0.5,-0.12,-0.12,-75.56,-5.0,-0.56,0.13,-0.01,-0.09,-0.0,-0.06,0.0,11971.73,202.0,0.0,0.0,0.0,0.0
1775762965154575398,50737,0.0,0.9,0.008,0.6,-0.16,-0.04,-75.56,-5.0,-0.56,0.1,0.01,-0.06,-0.0,-0.0,-0.06,198.43,193.0,0.0,0.0,0.0,0.0
1775762965256875899,50838,0.0,1.0,0.04,0.5,0.02,0.08,-75.56,-5.0,-0.56,0.12,-0.0,-0.06,-0.06,0.19,0.06,219.86,193.0,0.0,0.0,0.0,0.0
1775762965355168442,50937,0.0,1.0,0.016,0.5,-0.06,-0.04,-75.56,-5.0,-0.56,0.13,-0.01,-0.04,0.06,-0.0,0.0,224.15,189.0,0.0,0.0,0.0,0.0
1775762965453434822,51037,0.0,1.0,0.024,0.4,0.02,0.0,-75.56,-5.0,-0.56,0.13,-0.01,-0.07,0.06,-0.0,0.0,223.98,191.0,0.0,0.0,0.0,0.0
1775762965555858752,51137,0.0,1.0,0.016,0.3,0.04,-0.1,-75.56,-5.0,-0.56,0.13,-0.0,-0.09,-0.06,-0.0,0.0,219.86,191.0,0.0,0.0,0.0,0.0
1775762965656058824,51237,0.0,0.9,0.02,0.2,0.04,-0.16,-75.56,-5.0,-0.56,0.12,0.01,-0.06,0.06,0.12,-0.06,11976.02,197.0,0.0,0.0,0.0,0.0
1775762965762484452,51337,0.0,1.0,0.0,0.3,0.02,-0.08,-75.56,-5.0,-0.56,0.1,-0.0,-0.08,-0.0,0.12,0.06,202.54,197.0,0.0,0.0,0.0,0.0
1775762965854821292,51437,0.0,1.0,0.0,0.5,0.06,0.0,-75.56,-5.0,-0.56,0.13,-0.0,-0.03,-0.0,-0.0,-0.06,228.27,190.0,0.0,0.0,0.0,0.0
1775762965953129500,51536,0.0,1.2,0.0,0.4,0.0,-0.08,-75.56,-5.0,-0.56,0.1,0.01,-0.07,-0.19,-0.12,0.0,228.27,196.0,0.0,0.0,0.0,0.0
1775762966521140417,51636,0.0,0.7,0.0,0.3,-0.02,0.06,-75.56,-5.0,-0.56,0.11,0.01,-0.05,-0.12,-0.0,0.0,223.98,196.0,0.0,0.0,0.0,0.0
1775762966555116296,51737,0.0,1.0,0.0,1.3,-0.06,0.1,-75.56,-5.0,-0.56,0.1,0.02,-0.08,-0.19,0.06,-0.12,218.83,198.0,0.0,0.0,0.0,0.0
1775762966559243100,51836,0.0,0.1,0.0,1.3,-0.14,-0.14,-75.56,-5.0,-0.56,0.12,-0.0,-0.05,0.06,-0.0,0.12,198.43,192.0,0.0,0.0,0.0,0.0
1775762966572340918,51937,0.0,0.2,0.0,1.2,-0.08,-0.16,-75.56,-5.0,-0.56,0.13,-0.0,-0.06,-0.12,-0.06,-0.06,201.51,192.0,0.0,0.0,0.0,0.0
1775762966584558202,52037,0.0,1.0,0.012,0.2,-0.06,-0.02,-75.56,-5.0,-0.56,0.1,-0.0,-0.06,0.06,-0.0,-0.06,202.54,196.0,0.0,0.0,0.0,0.0
1775762966653398587,52136,0.0,0.9,0.004,0.3,-0.08,-0.06,-75.56,-5.0,-0.56,0.1,0.01,-0.09,0.06,-0.0,0.06,210.94,194.0,0.0,0.0,0.0,0.0
1775762966665466352,52236,0.0,1.1,0.0,0.3,-0.02,-0.08,-75.56,-5.0,-0.56,0.1,-0.0,-0.05,0.12,-0.12,0.12,206.66,194.0,0.0,0.0,0.0,0.0
1775762966755764761,52336,0.0,1.0,0.0,0.3,-0.12,-0.02,-75.56,-5.0,-0.56,0.11,0.01,-0.05,-0.0,-0.0,0.0,201.51,192.0,0.0,0.0,0.0,0.0
1775762966854087287,52436,0.0,1.0,0.004,0.1,-0.1,-0.08,-75.56,-5.0,-0.56,0.13,-0.01,-0.04,0.06,-0.06,0.06,202.54,192.0,0.0,0.0,0.0,0.0
1775762966964391442,52536,0.0,0.9,0.0,0.6,-0.02,0.0,-75.56,-5.0,-0.56,0.1,-0.01,-0.09,-0.06,0.12,0.06,11972.76,194.0,0.0,0.0,0.0,0.0
1775762967062669094,52636,0.0,0.9,0.0,0.3,-0.06,0.02,-75.56,-5.0,-0.56,0.12,0.02,-0.04,0.06,-0.06,0.06,11972.76,200.0,0.0,0.0,0.0,0.0
1775762967165047033,52737,0.0,0.9,0.0,0.1,0.02,-0.1,-75.56,-5.0,-0.56,0.11,-0.0,-0.07,0.06,0.25,0.06,11970.53,198.0,0.0,0.0,0.0,0.0
1775762967255399952,52837,0.0,0.9,0.048,0.3,-0.1,-0.04,-75.56,-5.0,-0.56,0.12,0.01,-0.06,-0.12,-0.06,0.0,11972.76,198.0,0.0,0.0,0.0,0.0
1775762967357770781,52937,0.0,1.0,0.028,0.3,-0.02,-0.18,-75.56,-5.0,-0.56,0.1,0.01,-0.08,-0.0,-0.06,0.0,11975.5,195.0,0.0,0.0,0.0,0.0
1775762967462068145,53038,0.0,1.1,0.012,0.6,-0.06,-0.08,-75.56,-5.0,-0.56,0.12,-0.01,-0.04,0.12,-0.0,-0.06,11971.04,199.0,0.0,0.0,0.0,0.0
1775762967558486188,53138,0.0,0.4,0.0,1.4,-0.14,0.04,-75.56,-5.0,-0.56,0.12,-0.01,-0.04,-0.12,-0.06,0.0,210.26,199.0,0.0,0.0,0.0,0.0
1775762967656762848,53239,0.0,1.3,0.0,0.5,0.0,0.12,-75.56,-5.0,-0.56,0.1,-0.0,-0.06,-0.06,0.06,0.06,210.94,199.0,0.0,0.0,0.0,0.0
1775762967759142009,53339,0.0,1.4,0.0,0.5,0.02,-0.1,-75.56,-5.0,-0.56,0.11,-0.0,-0.07,-0.06,0.12,0.0,205.63,196.0,0.0,0.0,0.0,0.0
1775762967857427465,53440,0.0,1.5,0.0,0.5,0.0,-0.14,-75.56,-5.0,-0.56,0.13,-0.0,-0.07,0.06,-0.0,0.0,198.43,199.0,0.0,0.0,0.0,0.0
1775762968085141195,53539,0.0,1.3,0.0,0.1,0.08,0.0,-75.56,-5.0,-0.56,0.09,-0.0,-0.05,0.12,-0.06,0.0,206.66,199.0,0.0,0.0,0.0,0.0
1775762968148222876,53639,0.0,1.4,0.004,0.2,-0.02,-0.16,-75.56,-5.0,-0.56,0.12,0.01,-0.06,-0.12,0.06,0.0,11973.1,192.0,0.0,0.0,0.0,0.0
1775762968160581103,53739,0.0,1.4,0.0,0.5,-0.02,-0.02,-75.56,-5.0,-0.56,0.12,-0.01,-0.06,-0.0,-0.0,-0.06,11972.59,189.0,0.0,0.0,0.0,0.0
1775762968266625255,53839,0.0,1.4,0.04,0.7,0.04,-0.2,-75.56,-5.0,-0.56,0.11,-0.0,-0.06,-0.0,0.06,0.06,11973.1,190.0,0.0,0.0,0.0,0.0
1775762968357020124,53939,0.0,1.4,0.024,0.5,-0.08,-0.02,-75.56,-5.0,-0.56,0.11,0.01,-0.04,0.12,-0.0,-0.06,214.03,190.0,0.0,0.0,0.0,0.0
1775762968459404952,54039,0.0,1.3,0.016,0.2,0.02,-0.23,-75.56,-5.0,-0.56,0.1,0.01,-0.08,-0.06,-0.0,-0.12,210.77,193.0,0.0,0.0,0.0,0.0
1775762968557732504,54139,0.0,1.4,0.004,0.2,-0.02,-0.16,-75.56,-5.0,-0.56,0.13,-0.0,-0.04,0.12,-0.25,0.0,215.06,193.0,0.0,0.0,0.0,0.0
1775762968655998417,54239,0.0,1.3,0.004,0.5,-0.02,-0.14,-75.56,-5.0,-0.56,0.13,-0.01,-0.04,-0.06,-0.0,0.0,215.06,200.0,0.0,0.0,0.0,0.0
1775762968758418240,54339,0.0,1.5,0.0,0.2,0.04,-0.2,-75.56,-5.0,-0.56,0.11,-0.0,-0.06,-0.12,0.06,0.0,209.92,200.0,0.0,0.0,0.0,0.0
1775762968856693058,54438,0.0,1.2,0.0,0.2,0.0,-0.08,-75.56,-5.0,-0.56,0.09,-0.0,-0.07,-0.06,-0.0,-0.06,210.77,192.0,0.0,0.0,0.0,0.0
1775762968977143406,54538,0.0,1.1,0.0,0.0,0.08,-0.08,-75.56,-5.0,-0.56,0.13,0.02,-0.05,0.06,-0.0,0.06,210.94,193.0,0.0,0.0,0.0,0.0
1775762969065343602,54638,0.0,1.2,0.0,0.3,0.04,0.0,-75.56,-5.0,-0.56,0.12,0.01,-0.09,0.06,0.12,0.0,11972.24,195.0,0.0,0.0,0.0,0.0
1775762969157669908,54738,0.0,1.3,0.0,0.7,-0.1,-0.04,-75.56,-5.0,-0.56,0.1,-0.0,-0.07,-0.06,0.06,-0.06,11972.59,195.0,0.0,0.0,0.0,0.0
1775762969265972119,54838,0.0,1.4,0.036,0.3,-0.06,0.02,-75.56,-5.0,-0.56,0.12,-0.0,-0.06,0.12,-0.0,0.06,11971.9,192.0,0.0,0.0,0.0,0.0
1775762969356347773,54938,0.0,1.2,0.024,0.3,0.12,-0.06,-75.56,-5.0,-0.56,0.14,-0.0,-0.06,-0.0,-0.06,0.12,214.03,192.0,0.0,0.0,0.0,0.0
1775762969454597024,55037,0.0,0.3,0.0,1.0,0.06,-0.08,-75.56,-5.0,-0.56,0.13,-0.01,-0.08,0.06,0.06,0.06,210.94,193.0,0.0,0.0,0.0,0.0
1775762969556992473,55137,0.0,1.0,0.012,0.3,-0.02,-0.02,-75.56,-5.0,-0.56,0.11,-0.01,-0.07,-0.0,-0.0,-0.06,215.06,194.0,0.0,0.0,0.0,0.0
1775762969677134260,55237,0.0,0.9,0.012,0.5,0.06,-0.06,-75.56,-5.0,-0.56,0.11,0.01,-0.11,-0.0,-0.06,0.06,11971.39,190.0,0.0,0.0,0.0,0.0
1775762969759681165,55337,0.0,0.7,0.0,0.5,-0.08,0.0,-75.56,-5.0,-0.56,0.13,-0.0,-0.06,0.12,0.19,-0.06,11973.44,190.0,0.0,0.0,0.0,0.0
1775762969855932011,55437,0.0,1.1,0.0,0.3,-0.04,-0.04,-75.56,-5.0,-0.56,0.13,-0.0,-0.08,0.12,0.06,-0.12,210.94,190.0,0.0,0.0,0.0,0.0
1775762969960258318,55537,0.0,0.8,0.0,0.3,-0.12,0.06,-75.56,-5.0,-0.56,0.12,0.01,-0.08,-0.06,-0.0,0.0,11972.41,194.0,0.0,0.0,0.0,0.0
1775762970058537589,55638,0.0,0.6,0.0,0.3,0.08,-0.1,-75.56,-5.0,-0.56,0.15,-0.01,-0.05,-0.0,-0.0,-0.06,11972.07,198.0,0.0,0.0,0.0,0.0
1775762970166893682,55738,0.0,0.9,0.004,0.2,-0.06,-0.12,-75.56,-5.0,-0.56,0.13,-0.01,-0.03,-0.0,0.12,0.19,11970.87,196.0,0.0,0.0,0.0,0.0
1775762970259305591,55838,0.0,0.7,0.04,0.6,-0.06,-0.02,-75.56,-5.0,-0.56,0.13,0.01,-0.06,0.19,-0.0,0.06,11972.07,196.0,0.0,0.0,0.0,0.0
1775762970359687472,55939,0.0,0.9,0.028,0.2,-0.06,-0.14,-75.56,-5.0,-0.56,0.12,-0.0,-0.06,0.06,-0.12,0.0,11971.56,189.0,0.0,0.0,0.0,0.0
1775762970457938442,56039,0.0,1.2,0.012,0.3,0.12,-0.06,-75.56,-5.0,-0.56,0.13,-0.01,-0.07,0.06,-0.0,0.0,202.54,189.0,0.0,0.0,0.0,0.0
1775762970562257221,56139,0.0,1.0,0.02,0.6,-0.1,-0.04,-75.56,-5.0,-0.56,0.13,0.01,-0.07,0.12,-0.06,0.0,11973.96,190.0,0.0,0.0,0.0,0.0
1775762970666576315,56239,0.0,1.0,0.004,0.3,0.04,-0.04,-75.56,-5.0,-0.56,0.13,0.01,-0.06,-0.0,0.12,0.06,11971.39,193.0,0.0,0.0,0.0,0.0
1775762970758858204,56339,0.0,1.0,0.004,0.2,-0.02,-0.16,-75.56,-5.0,-0.56,0.12,-0.0,-0.07,0.06,-0.12,0.06,11973.27,194.0,0.0,0.0,0.0,0.0
1775762970867295138,56439,0.0,0.7,0.0,0.1,-0.08,-0.1,-75.56,-5.0,-0.56,0.13,-0.0,-0.08,-0.0,0.06,0.0,11974.3,194.0,0.0,0.0,0.0,0.0
1775762970969645579,56540,0.0,0.9,0.0,0.6,0.08,-0.14,-75.56,-5.0,-0.56,0.12,-0.01,-0.06,0.06,-0.12,-0.12,11971.73,192.0,0.0,0.0,0.0,0.0
1775762971067913497,56640,0.0,0.9,0.0,0.2,0.04,0.0,-75.56,-5.0,-0.56,0.12,-0.0,-0.05,0.06,-0.12,0.12,11969.67,193.0,0.0,0.0,0.0,0.0
1775762971170401346,56740,0.0,1.1,0.004,0.4,-0.12,-0.2,-75.56,-5.0,-0.56,0.12,-0.01,-0.08,0.19,-0.06,0.0,11971.04,193.0,0.0,0.0,0.0,0.0
1775762971260759384,56841,0.0,0.8,0.036,0.0,0.02,0.02,-75.56,-5.0,-0.56,0.12,-0.01,-0.05,-0.0,-0.0,0.06,11970.7,200.0,0.0,0.0,0.0,0.0
1775762971363055979,56941,0.0,0.9,0.024,0.5,0.0,0.04,-75.56,-5.0,-0.56,0.12,-0.0,-0.06,0.06,-0.06,-0.12,11972.24,200.0,0.0,0.0,0.0,0.0
1775762971463181125,57041,0.0,0.9,0.012,0.1,0.0,-0.04,-75.56,-5.0,-0.56,0.1,-0.0,-0.07,-0.0,0.06,-0.12,11972.07,187.0,0.0,0.0,0.0,0.0
1775762971561552293,57141,0.0,1.0,0.012,0.5,-0.02,-0.06,-75.56,-5.0,-0.56,0.12,-0.0,-0.05,-0.0,-0.06,-0.06,11969.67,189.0,0.0,0.0,0.0,0.0
1775762971877156605,57241,0.0,1.1,0.0,0.2,-0.14,-0.12,-75.56,-5.0,-0.56,0.12,-0.0,-0.09,0.06,-0.0,-0.06,11970.7,189.0,0.0,0.0,0.0,0.0
1775762971890707119,57341,0.0,1.0,0.0,0.2,0.06,-0.08,-75.56,-5.0,-0.56,0.09,-0.0,-0.07,-0.06,-0.12,0.0,11970.53,194.0,0.0,0.0,0.0,0.0
1775762971952879515,57441,0.0,1.0,0.0,0.7,0.0,-0.06,-75.56,-5.0,-0.56,0.12,-0.0,-0.09,-0.0,-0.12,0.0,11970.7,195.0,0.0,0.0,0.0,0.0
1775762971965856746,57541,0.0,0.9,0.0,0.1,0.08,-0.1,-75.56,-5.0,-0.56,0.13,-0.01,-0.07,0.06,0.12,0.0,11972.76,195.0,0.0,0.0,0.0,0.0
1775762972061173429,57641,0.0,1.1,0.0,0.1,-0.16,-0.06,-75.56,-5.0,-0.56,0.12,-0.01,-0.09,-0.0,0.19,0.06,11970.7,187.0,0.0,0.0,0.0,0.0
1775762972163660308,57741,0.0,0.8,0.012,0.3,-0.16,-0.06,-75.56,-5.0,-0.56,0.12,-0.0,-0.09,-0.0,-0.0,0.0,11972.07,187.0,0.0,0.0,0.0,0.0
1775762972261819467,57841,0.0,0.9,0.036,0.6,-0.08,0.08,-75.56,-5.0,-0.56,0.11,-0.0,-0.09,-0.0,0.12,0.12,11971.39,191.0,0.0,0.0,0.0,0.0
1775762972362370626,57942,0.0,1.1,0.028,0.5,0.06,0.08,-75.56,-5.0,-0.56,0.11,-0.0,-0.07,0.12,-0.06,0.0,11971.39,192.0,0.0,0.0,0.0,0.0
1775762972460571983,58042,0.0,0.7,0.0,1.6,-0.06,-0.14,-75.56,-5.0,-0.56,0.1,-0.0,-0.09,0.06,-0.0,0.0,214.55,192.0,0.0,0.0,0.0,0.0
1775762972564870967,58142,0.0,0.2,0.0,1.4,-0.02,-0.04,-75.56,-5.0,-0.56,0.12,-0.0,-0.06,-0.0,-0.06,0.0,11972.76,189.0,0.0,0.0,0.0,0.0
1775762972781139805,58242,0.0,0.3,0.0,1.4,-0.02,0.06,-75.56,-5.0,-0.56,0.11,-0.0,-0.08,-0.06,-0.12,0.0,11974.3,205.0,0.0,0.0,0.0,0.0
1775762972853779311,58342,0.0,1.2,0.0,0.5,-0.14,-0.04,-75.56,-5.0,-0.56,0.13,0.01,-0.1,-0.06,-0.0,0.0,11974.64,205.0,0.0,0.0,0.0,0.0
1775762972866096087,58442,0.0,1.5,0.0,0.5,0.12,-0.08,-75.56,-5.0,-0.56,0.12,-0.0,-0.08,-0.12,-0.19,0.0,11973.79,193.0,0.0,0.0,0.0,0.0
1775762972964353605,58542,0.0,1.3,0.0,0.2,-0.08,-0.12,-75.56,-5.0,-0.56,0.12,-0.0,-0.1,-0.0,-0.06,-0.06,210.94,193.0,0.0,0.0,0.0,0.0
1775762973070571310,58642,0.0,1.4,0.0,0.5,-0.16,-0.08,-75.56,-5.0,-0.56,0.15,-0.0,-0.08,-0.0,-0.0,-0.12,11975.5,193.0,0.0,0.0,0.0,0.0
1775762973162845933,58742,0.0,1.3,0.0,0.1,-0.06,-0.06,-75.56,-5.0,-0.56,0.11,0.01,-0.09,-0.06,-0.19,0.0,11973.62,194.0,0.0,0.0,0.0,0.0
1775762973271227330,58842,0.0,1.2,0.044,0.5,-0.02,-0.12,-75.56,-5.0,-0.56,0.13,-0.01,-0.08,-0.06,-0.0,0.0,11974.82,192.0,0.0,0.0,0.0,0.0
1775762973361627815,58942,0.0,1.3,0.02,0.3,0.02,0.06,-75.56,-5.0,-0.56,0.12,-0.0,-0.08,0.06,0.06,-0.06,11972.59,192.0,0.0,0.0,0.0,0.0
1775762973469950811,59042,0.0,1.3,0.02,0.6,-0.04,-0.14,-75.56,-5.0,-0.56,0.1,-0.0,-0.06,-0.06,-0.0,0.0,11972.41,187.0,0.0,0.0,0.0,0.0
1775762973564223206,59142,0.0,1.3,0.008,0.6,0.1,0.02,-75.56,-5.0,-0.56,0.12,-0.0,-0.07,0.06,0.06,0.12,11973.44,187.0,0.0,0.0,0.0,0.0
1775762973773130340,59242,0.0,1.1,0.0,0.1,0.04,-0.04,-75.56,-5.0,-0.56,0.12,-0.01,-0.11,0.19,-0.12,0.0,11975.33,192.0,0.0,0.0,0.0,0.0
1775762973786935155,59342,0.0,1.2,0.0,0.3,-0.06,-0.02,-75.56,-5.0,-0.56,0.13,-0.0,-0.06,0.06,-0.06,-0.06,11973.44,196.0,0.0,0.0,0.0,0.0
1775762973863219194,59442,0.0,1.4,0.0,0.3,-0.18,0.02,-75.56,-5.0,-0.56,0.13,-0.0,-0.07,-0.0,-0.12,0.06,11974.3,196.0,0.0,0.0,0.0,0.0
1775762973965538893,59542,0.0,1.6,0.004,0.3,-0.04,0.0,-75.56,-5.0,-0.56,0.12,0.02,-0.06,0.06,0.06,0.06,11975.5,193.0,0.0,0.0,0.0,0.0
1775762974061916510,59642,0.0,1.2,0.0,0.5,0.1,0.06,-75.56,-5.0,-0.56,0.11,-0.0,-0.07,0.06,-0.0,0.0,228.27,193.0,0.0,0.0,0.0,0.0
1775762974164289369,59742,0.0,1.3,0.012,0.5,0.0,0.02,-75.56,-5.0,-0.56,0.12,-0.0,-0.04,0.06,0.06,-0.06,215.75,193.0,0.0,0.0,0.0,0.0
1775762974262584037,59842,0.0,1.4,0.036,0.5,0.0,-0.06,-75.56,-5.0,-0.56,0.11,-0.0,-0.07,0.06,0.06,-0.06,224.15,193.0,0.0,0.0,0.0,0.0
1775762974364984041,59942,0.0,1.5,0.016,0.2,0.06,-0.04,-75.56,-5.0,-0.56,0.13,-0.0,-0.05,0.06,-0.0,-0.12,206.66,191.0,0.0,0.0,0.0,0.0
1775762974469193842,60042,0.0,1.3,0.012,0.3,-0.08,-0.16,-75.56,-5.0,-0.56,0.13,-0.0,-0.09,-0.0,-0.06,0.0,11974.64,193.0,0.0,0.0,0.0,0.0
1775762974561506385,60142,0.0,1.5,0.012,0.3,-0.08,0.04,-75.56,-5.0,-0.56,0.13,-0.01,-0.07,-0.06,-0.0,0.06,228.1,193.0,0.0,0.0,0.0,0.0
1775762974671863311,60242,0.0,1.2,0.0,1.2,0.12,0.0,-75.56,-5.0,-0.56,0.12,-0.0,-0.09,-0.0,-0.0,0.06,11973.96,195.0,0.0,0.0,0.0,0.0
1775762974770110151,60342,0.0,0.8,0.0,0.3,-0.08,-0.18,-75.56,-5.0,-0.56,0.1,-0.01,-0.08,-0.0,0.06,0.12,11972.59,192.0,0.0,0.0,0.0,0.0
1775762974872522987,60442,0.0,0.9,0.0,0.5,-0.14,-0.04,-75.56,-5.0,-0.56,0.13,-0.01,-0.05,-0.0,-0.0,0.0,11972.07,185.0,0.0,0.0,0.0,0.0
1775762974964900338,60542,0.0,0.9,0.0,0.3,-0.14,-0.02,-75.56,-5.0,-0.56,0.12,-0.0,-0.04,0.06,-0.06,-0.06,11970.87,185.0,0.0,0.0,0.0,0.0
1775762975073193695,60642,0.0,1.1,0.0,0.3,0.0,-0.12,-75.56,-5.0,-0.56,0.1,-0.0,-0.07,-0.0,-0.06,0.0,11971.21,198.0,0.0,0.0,0.0,0.0
1775762975165481532,60742,0.0,1.1,0.012,0.6,-0.18,0.06,-75.56,-5.0,-0.56,0.13,-0.0,-0.05,0.12,-0.12,0.06,11969.16,202.0,0.0,0.0,0.0,0.0
1775762975261810366,60843,0.0,1.1,0.036,0.3,-0.1,-0.1,-75.56,-5.0,-0.56,0.11,-0.0,-0.06,0.12,0.06,0.0,11970.7,202.0,0.0,0.0,0.0,0.0
1775762975364206438,60942,0.0,0.7,0.032,0.5,0.0,-0.06,-75.56,-5.0,-0.56,0.11,0.01,-0.05,0.06,0.06,0.06,11968.3,201.0,0.0,0.0,0.0,0.0
1775762975462500240,61042,0.0,0.9,0.02,0.6,-0.04,-0.06,-75.56,-5.0,-0.56,0.12,-0.0,-0.07,-0.06,0.06,-0.06,211.29,201.0,0.0,0.0,0.0,0.0
1775762975564930363,61142,0.0,1.1,0.004,0.7,-0.14,-0.12,-75.56,-5.0,-0.56,0.11,-0.0,-0.06,-0.0,0.12,0.06,219.86,190.0,0.0,0.0,0.0,0.0
1775762975665121401,61242,0.0,0.7,0.0,0.5,0.0,-0.2,-75.56,-5.0,-0.56,0.13,-0.01,-0.05,-0.06,-0.0,0.0,11970.53,196.0,0.0,0.0,0.0,0.0
1775762975767590909,61342,0.0,1.0,0.004,0.5,0.0,-0.1,-75.56,-5.0,-0.56,0.13,-0.01,-0.07,0.06,-0.0,0.0,11970.87,196.0,0.0,0.0,0.0,0.0
1775762975865801776,61443,0.0,1.3,0.0,1.4,0.1,-0.1,-75.56,-5.0,-0.56,0.13,-0.0,-0.07,-0.06,-0.06,0.06,11973.62,199.0,0.0,0.0,0.0,0.0
1775762975968174035,61543,0.0,1.3,0.0,0.3,-0.08,0.14,-75.56,-5.0,-0.56,0.1,-0.0,-0.05,-0.06,-0.0,0.0,11971.73,193.0,0.0,0.0,0.0,0.0
1775762976066562584,61643,0.0,1.2,0.004,0.5,0.06,-0.12,-75.56,-5.0,-0.56,0.13,-0.0,-0.05,-0.0,-0.06,0.0,11972.93,193.0,0.0,0.0,0.0,0.0
1775762976168835786,61744,0.0,1.2,0.02,0.6,0.1,-0.04,-75.56,-5.0,-0.56,0.12,-0.0,-0.04,-0.0,-0.12,0.06,11971.9,195.0,0.0,0.0,0.0,0.0
1775762976267138457,61844,0.0,1.3,0.044,0.5,0.0,-0.12,-75.56,-5.0,-0.56,0.12,-0.0,-0.05,-0.0,-0.06,0.0,11970.53,198.0,0.0,0.0,0.0,0.0
1775762976367628446,61944,0.0,1.5,0.024,0.6,-0.06,-0.14,-75.56,-5.0,-0.56,0.13,-0.0,-0.08,-0.0,0.06,0.0,11971.9,198.0,0.0,0.0,0.0,0.0
1775762976465960854,62045,0.0,1.3,0.016,0.2,-0.14,-0.06,-75.56,-5.0,-0.56,0.12,-0.0,-0.03,0.25,-0.06,0.0,11971.9,193.0,0.0,0.0,0.0,0.0
1775762976570188733,62145,0.0,1.2,0.0,1.4,0.02,-0.08,-75.56,-5.0,-0.56,0.12,-0.0,-0.06,-0.06,-0.0,0.0,11971.73,194.0,0.0,0.0,0.0,0.0
1775762976666600091,62245,0.0,1.0,0.004,0.6,-0.04,-0.12,-75.56,-5.0,-0.56,0.12,-0.0,-0.09,0.06,-0.06,-0.06,219.86,194.0,0.0,0.0,0.0,0.0
1775762976776911622,62346,0.0,1.0,0.0,0.4,-0.14,-0.1,-75.56,-5.0,-0.56,0.12,-0.0,-0.05,-0.06,-0.0,-0.12,11970.53,195.0,0.0,0.0,0.0,0.0
1775762976869251812,62446,0.0,0.8,0.0,0.6,-0.14,-0.1,-75.56,-5.0,-0.56,0.13,-0.0,-0.06,0.06,-0.0,0.0,11973.44,195.0,0.0,0.0,0.0,0.0
1775762976971559714,62546,0.0,0.9,0.0,0.3,-0.04,-0.1,-75.56,-5.0,-0.56,0.11,-0.0,-0.08,-0.06,0.06,0.06,11972.93,201.0,0.0,0.0,0.0,0.0
1775762977075845924,62646,0.0,1.0,0.0,0.5,-0.04,-0.02,-75.56,-5.0,-0.56,0.12,-0.0,-0.05,-0.06,0.06,0.06,11971.56,189.0,0.0,0.0,0.0,0.0
1775762977178348954,62746,0.0,0.7,0.024,0.0,-0.02,-0.08,-75.56,-5.0,-0.56,0.11,-0.0,-0.07,0.06,-0.06,0.0,11972.41,189.0,0.0,0.0,0.0,0.0
1775762977268628257,62846,0.0,0.9,0.036,0.3,0.02,-0.06,-75.56,-5.0,-0.56,0.1,-0.01,-0.07,-0.0,-0.12,-0.06,11972.24,187.0,0.0,0.0,0.0,0.0
1775762977366866540,62946,0.0,1.0,0.0,1.3,0.0,-0.14,-75.56,-5.0,-0.56,0.09,-0.01,-0.07,0.06,0.06,0.0,11971.73,195.0,0.0,0.0,0.0,0.0
1775762977471128510,63046,0.0,1.2,0.016,0.5,-0.06,-0.2,-75.56,-5.0,-0.56,0.12,0.01,-0.07,0.06,-0.12,-0.06,11973.1,195.0,0.0,0.0,0.0,0.0
1775762977567523343,63147,0.0,1.2,0.012,0.3,-0.02,0.04,-75.56,-5.0,-0.56,0.13,-0.0,-0.07,-0.0,-0.06,0.06,210.94,195.0,0.0,0.0,0.0,0.0
1775762977669961620,63247,0.0,1.2,0.008,0.5,0.02,-0.08,-75.56,-5.0,-0.56,0.12,-0.01,-0.08,0.12,-0.12,-0.06,206.66,193.0,0.0,0.0,0.0,0.0
1775762977770159341,63346,0.0,1.3,0.0,1.0,0.02,-0.06,-75.56,-5.0,-0.56,0.13,-0.0,-0.07,-0.0,-0.06,0.0,11974.13,190.0,0.0,0.0,0.0,0.0
1775762977878684558,63447,0.0,1.0,0.0,0.2,-0.08,-0.18,-75.56,-5.0,-0.56,0.13,-0.0,-0.04,-0.0,-0.12,0.0,11970.87,197.0,0.0,0.0,0.0,0.0
1775762977970905190,63547,0.0,0.6,0.0,0.5,-0.04,0.06,-75.56,-5.0,-0.56,0.1,-0.0,-0.06,-0.0,-0.0,0.06,11971.56,197.0,0.0,0.0,0.0,0.0
1775762978071307515,63647,0.0,0.9,0.0,0.3,-0.08,-0.08,-75.56,-5.0,-0.56,0.12,-0.0,-0.08,-0.12,0.19,0.06,232.38,196.0,0.0,0.0,0.0,0.0
1775762978171507339,63747,0.0,0.9,0.02,0.5,0.04,-0.04,-75.56,-5.0,-0.56,0.09,0.02,-0.07,-0.0,0.06,0.06,11968.64,188.0,0.0,0.0,0.0,0.0
1775762978269891651,63847,0.0,0.7,0.036,0.2,0.14,-0.14,-75.56,-5.0,-0.56,0.13,-0.0,-0.04,-0.06,0.06,0.12,11970.01,188.0,0.0,0.0,0.0,0.0
1775762978370268437,63947,0.0,1.0,0.02,0.6,-0.12,-0.06,-75.56,-5.0,-0.56,0.13,-0.0,-0.04,-0.12,-0.0,0.0,11971.04,204.0,0.0,0.0,0.0,0.0
1775762978468513430,64047,0.0,0.9,0.016,0.4,0.06,-0.06,-75.56,-5.0,-0.56,0.13,0.01,-0.05,-0.0,0.06,0.0,206.66,204.0,0.0,0.0,0.0,0.0
1775762978570925409,64147,0.0,0.9,0.008,0.5,0.0,-0.06,-75.56,-5.0,-0.56,0.1,-0.0,-0.07,0.12,-0.0,0.0,228.27,190.0,0.0,0.0,0.0,0.0
1775762978677098084,64246,0.0,0.9,0.0,0.3,0.1,-0.06,-75.56,-5.0,-0.56,0.1,-0.0,-0.08,-0.12,0.12,0.0,11972.07,204.0,0.0,0.0,0.0,0.0
1775762978769536116,64346,0.0,1.0,0.0,0.4,0.0,-0.02,-75.56,-5.0,-0.56,0.11,0.01,-0.06,-0.12,-0.0,0.0,11976.02,204.0,0.0,0.0,0.0,0.0
1775762978869919773,64446,0.0,0.7,0.0,0.3,0.02,-0.08,-75.56,-5.0,-0.56,0.11,-0.0,-0.06,-0.06,-0.0,0.0,202.54,189.0,0.0,0.0,0.0,0.0
1775762978970112782,64546,0.0,0.7,0.004,0.5,0.0,-0.16,-75.56,-5.0,-0.56,0.13,-0.01,-0.07,-0.0,0.12,0.06,11970.53,195.0,0.0,0.0,0.0,0.0
1775762979070583555,64646,0.0,1.0,0.0,0.2,-0.04,-0.12,-75.56,-5.0,-0.56,0.11,0.01,-0.08,-0.06,0.12,-0.12,11973.1,195.0,0.0,0.0,0.0,0.0
1775762979170795049,64746,0.0,0.7,0.0,1.5,-0.16,-0.1,-75.56,-5.0,-0.56,0.11,-0.01,-0.03,0.06,-0.06,-0.06,11972.59,194.0,0.0,0.0,0.0,0.0
1775762979271256962,64846,0.0,0.1,0.0,1.6,-0.12,-0.14,-75.56,-5.0,-0.56,0.13,0.01,-0.06,-0.0,-0.0,0.0,11970.53,199.0,0.0,0.0,0.0,0.0
1775762979369530011,64946,0.0,1.3,0.02,0.7,-0.08,-0.04,-75.56,-5.0,-0.56,0.11,-0.0,-0.06,-0.0,-0.0,0.0,11975.84,199.0,0.0,0.0,0.0,0.0
1775762979467907752,65046,0.0,1.1,0.004,0.2,-0.18,-0.06,-75.56,-5.0,-0.56,0.12,0.02,-0.08,0.06,0.06,-0.12,11973.79,190.0,0.0,0.0,0.0,0.0
1775762979572125274,65146,0.0,1.2,0.008,0.3,0.02,-0.08,-75.56,-5.0,-0.56,0.1,0.01,-0.06,-0.0,0.12,0.0,11971.21,198.0,0.0,0.0,0.0,0.0
1775762979670516199,65246,0.0,1.5,0.0,0.3,0.0,-0.12,-75.56,-5.0,-0.56,0.13,-0.01,-0.05,-0.06,-0.06,0.12,11971.04,198.0,0.0,0.0,0.0,0.0
1775762980241141966,65346,0.0,1.2,0.004,0.6,-0.02,-0.1,-75.56,-5.0,-0.56,0.12,-0.0,-0.05,-0.06,-0.0,0.0,11970.87,195.0,0.0,0.0,0.0,0.0
1775762980258223880,65446,0.0,1.1,0.008,0.2,0.14,-0.12,-75.56,-5.0,-0.56,0.13,-0.0,-0.05,-0.0,-0.0,0.0,222.95,195.0,0.0,0.0,0.0,0.0
1775762980270381077,65546,0.0,1.4,0.012,0.0,-0.02,0.16,-75.56,-5.0,-0.56,0.12,-0.0,-0.06,-0.0,0.12,-0.12,219.86,189.0,0.0,0.0,0.0,0.0
1775762980283765833,65646,0.0,1.3,0.0,0.5,0.04,-0.12,-75.56,-5.0,-0.56,0.11,0.01,-0.08,-0.0,-0.06,0.06,11971.39,194.0,0.0,0.0,0.0,0.0
1775762980295777249,65746,0.0,1.2,0.016,0.8,-0.08,-0.04,-75.56,-5.0,-0.56,0.13,-0.0,-0.06,-0.0,-0.0,0.0,11973.96,194.0,0.0,0.0,0.0,0.0
1775762980368860324,65846,0.0,1.2,0.036,0.3,0.0,0.02,-75.56,-5.0,-0.56,0.11,-0.0,-0.1,-0.0,-0.06,-0.06,11974.13,195.0,0.0,0.0,0.0,0.0
1775762980377254315,65946,0.0,1.4,0.028,0.4,-0.06,0.0,-75.56,-5.0,-0.56,0.13,-0.0,-0.08,0.12,0.06,0.0,224.15,195.0,0.0,0.0,0.0,0.0
1775762980467163627,66045,0.0,1.4,0.016,0.5,-0.04,-0.06,-75.56,-5.0,-0.56,0.11,0.01,-0.06,-0.0,-0.0,0.0,11971.56,187.0,0.0,0.0,0.0,0.0
1775762980577415888,66145,0.0,1.2,0.008,0.6,0.1,-0.06,-75.56,-5.0,-0.56,0.11,-0.0,-0.07,-0.0,-0.12,0.0,11972.59,197.0,0.0,0.0,0.0,0.0
1775762980777132118,66245,0.0,1.4,0.008,0.3,0.02,0.0,-75.56,-5.0,-0.56,0.13,0.01,-0.08,0.19,-0.19,0.06,11968.98,192.0,0.0,0.0,0.0,0.0
1775762980789607690,66345,0.0,1.2,0.004,0.1,0.1,-0.16,-75.56,-5.0,-0.56,0.12,-0.0,-0.07,-0.19,0.19,0.06,11970.53,192.0,0.0,0.0,0.0,0.0
1775762980921133250,66445,0.0,1.4,0.004,0.4,0.06,-0.06,-75.56,-5.0,-0.56,0.12,-0.0,-0.08,0.06,0.12,0.0,206.66,192.0,0.0,0.0,0.0,0.0
1775762980978791130,66545,0.0,1.2,0.0,0.3,-0.08,-0.14,-75.56,-5.0,-0.56,0.11,-0.01,-0.07,0.12,-0.12,0.0,11967.78,190.0,0.0,0.0,0.0,0.0
1775762981071088878,66646,0.0,1.4,0.0,0.3,-0.08,-0.08,-75.56,-5.0,-0.56,0.13,-0.0,-0.08,0.06,0.06,0.06,11968.47,191.0,0.0,0.0,0.0,0.0
1775762981179475302,66746,0.0,1.2,0.016,0.7,0.04,0.04,-75.56,-5.0,-0.56,0.1,-0.0,-0.05,0.12,-0.12,-0.06,11968.13,198.0,0.0,0.0,0.0,0.0
1775762981271829792,66846,0.0,1.1,0.04,0.6,0.02,0.06,-75.56,-5.0,-0.56,0.12,-0.0,-0.08,-0.0,-0.0,-0.06,11969.33,198.0,0.0,0.0,0.0,0.0
1775762981372198434,66947,0.0,1.2,0.028,0.4,-0.02,-0.06,-75.56,-5.0,-0.56,0.12,-0.0,-0.08,-0.12,-0.0,0.06,11967.78,198.0,0.0,0.0,0.0,0.0
1775762981476456868,67047,0.0,1.4,0.016,0.7,0.06,-0.06,-75.56,-5.0,-0.56,0.14,-0.01,-0.08,-0.0,-0.06,0.06,11969.67,189.0,0.0,0.0,0.0,0.0
1775762981580771277,67147,0.0,1.5,0.008,0.1,-0.06,-0.12,-75.56,-5.0,-0.56,0.12,-0.0,-0.09,-0.12,0.12,0.0,11974.47,189.0,0.0,0.0,0.0,0.0
1775762981673136284,67248,0.0,1.3,0.004,0.5,-0.1,-0.1,-75.56,-5.0,-0.56,0.1,-0.01,-0.1,-0.06,0.06,0.0,11973.44,195.0,0.0,0.0,0.0,0.0
1775762981781425625,67348,0.0,1.2,0.004,0.2,0.0,-0.2,-75.56,-5.0,-0.56,0.13,-0.0,-0.09,-0.06,-0.0,0.0,11970.7,197.0,0.0,0.0,0.0,0.0
1775762981873874698,67448,0.0,1.6,0.0,0.4,-0.02,0.12,-75.56,-5.0,-0.56,0.13,-0.0,-0.06,-0.0,-0.12,-0.06,11971.04,197.0,0.0,0.0,0.0,0.0
1775762982085128585,67549,0.0,1.3,0.0,0.1,-0.14,-0.18,-75.56,-5.0,-0.56,0.13,-0.0,-0.08,-0.0,0.06,0.06,11968.81,196.0,0.0,0.0,0.0,0.0
1775762982097843724,67649,0.0,1.3,0.0,0.2,0.04,0.06,-75.56,-5.0,-0.56,0.13,-0.0,-0.08,0.06,-0.12,0.0,11968.81,195.0,0.0,0.0,0.0,0.0
1775762982176901503,67749,0.0,1.1,0.024,0.4,0.0,-0.16,-75.56,-5.0,-0.56,0.13,-0.0,-0.06,0.06,0.12,0.12,11971.39,195.0,0.0,0.0,0.0,0.0
1775762982275153422,67849,0.0,1.5,0.024,0.3,0.14,-0.18,-75.56,-5.0,-0.56,0.12,-0.0,-0.07,-0.06,0.06,0.0,11970.87,198.0,0.0,0.0,0.0,0.0
1775762982375567958,67949,0.0,1.2,0.032,0.4,-0.12,0.0,-75.56,-5.0,-0.56,0.12,-0.0,-0.09,-0.12,-0.0,0.0,11971.73,198.0,0.0,0.0,0.0,0.0
1775762982473939477,68049,0.0,1.1,0.016,0.5,-0.02,0.04,-75.56,-5.0,-0.56,0.11,-0.01,-0.07,-0.12,0.12,0.0,11972.93,199.0,0.0,0.0,0.0,0.0
1775762982574050488,68149,0.0,0.9,0.004,0.6,0.06,-0.06,-75.56,-5.0,-0.56,0.13,-0.0,-0.09,-0.0,0.12,0.06,11970.36,196.0,0.0,0.0,0.0,0.0
1775762982682511611,68249,0.0,1.0,0.0,0.7,0.02,-0.06,-75.56,-5.0,-0.56,0.12,-0.01,-0.12,-0.06,-0.0,0.06,11972.24,196.0,0.0,0.0,0.0,0.0
1775762982774791218,68349,0.0,1.0,0.0,0.6,-0.04,-0.04,-75.56,-5.0,-0.56,0.11,-0.0,-0.09,-0.0,-0.0,0.0,11971.56,188.0,0.0,0.0,0.0,0.0
1775762982883225436,68449,0.0,0.8,0.0,0.6,0.06,-0.08,-75.56,-5.0,-0.56,0.11,-0.0,-0.11,-0.0,-0.0,0.06,11969.67,192.0,0.0,0.0,0.0,0.0
1775762982973546295,68549,0.0,0.9,0.0,0.3,-0.02,0.12,-75.56,-5.0,-0.56,0.09,-0.0,-0.09,-0.0,0.12,0.06,215.06,192.0,0.0,0.0,0.0,0.0
1775762983073765999,68648,0.0,0.8,0.0,0.6,-0.04,0.08,-75.56,-5.0,-0.56,0.13,-0.0,-0.03,-0.0,-0.0,-0.12,11971.04,195.0,0.0,0.0,0.0,0.0
1775762983174226907,68748,0.0,1.3,0.02,0.2,-0.02,0.0,-75.56,-5.0,-0.56,0.1,-0.0,-0.1,-0.0,-0.0,0.0,211.46,195.0,0.0,0.0,0.0,0.0
1775762983272509049,68848,0.0,1.3,0.032,0.6,0.0,-0.12,-75.56,-5.0,-0.56,0.11,-0.0,-0.08,-0.06,0.12,0.12,214.55,191.0,0.0,0.0,0.0,0.0
1775762983374911229,68948,0.0,1.0,0.024,0.3,0.08,-0.1,-75.56,-5.0,-0.56,0.11,-0.0,-0.07,0.12,-0.0,0.0,211.46,191.0,0.0,0.0,0.0,0.0
1775762983473134857,69049,0.0,1.3,0.024,0.5,-0.04,-0.06,-75.56,-5.0,-0.56,0.13,-0.0,-0.07,0.12,0.06,0.0,223.98,191.0,0.0,0.0,0.0,0.0
1775762983583489977,69150,0.0,1.4,0.008,0.4,0.06,-0.14,-75.56,-5.0,-0.56,0.12,-0.0,-0.09,-0.06,0.06,0.06,11972.07,193.0,0.0,0.0,0.0,0.0
1775762983677971567,69251,0.0,1.2,0.004,0.7,-0.1,0.0,-75.56,-5.0,-0.56,0.12,-0.0,-0.08,0.19,-0.06,0.06,218.83,193.0,0.0,0.0,0.0,0.0
1775762983778200276,69352,0.0,1.2,0.0,0.5,-0.04,0.06,-75.56,-5.0,-0.56,0.12,-0.0,-0.08,0.06,-0.06,-0.06,11971.9,188.0,0.0,0.0,0.0,0.0
1775762983878672331,69452,0.0,1.5,0.0,0.2,-0.1,-0.04,-75.56,-5.0,-0.56,0.11,-0.0,-0.11,0.12,0.06,0.0,223.98,196.0,0.0,0.0,0.0,0.0
1775762984117133076,69552,0.0,1.3,0.0,0.2,-0.14,-0.02,-75.56,-5.0,-0.56,0.12,-0.0,-0.07,0.06,0.06,0.06,11970.53,195.0,0.0,0.0,0.0,0.0
1775762984169419183,69652,0.0,1.2,0.0,0.5,-0.1,-0.1,-75.56,-5.0,-0.56,0.14,0.01,-0.09,0.12,-0.19,0.06,11971.39,195.0,0.0,0.0,0.0,0.0
1775762984182021348,69752,0.0,1.5,0.04,0.2,-0.1,-0.18,-75.56,-5.0,-0.56,0.09,-0.0,-0.08,0.12,-0.06,0.0,11970.36,194.0,0.0,0.0,0.0,0.0
1775762984277784789,69852,0.0,1.2,0.028,0.2,-0.02,0.02,-75.56,-5.0,-0.56,0.13,-0.0,-0.07,0.12,0.12,-0.06,11970.7,183.0,0.0,0.0,0.0,0.0
1775762984378301138,69952,0.0,1.2,0.024,0.5,-0.18,0.04,-75.56,-5.0,-0.56,0.12,-0.0,-0.06,0.19,0.19,0.0,11968.13,183.0,0.0,0.0,0.0,0.0
1775762984476612608,70052,0.0,1.5,0.016,0.2,-0.08,-0.02,-75.56,-5.0,-0.56,0.12,-0.0,-0.06,0.19,0.06,0.12,11969.5,199.0,0.0,0.0,0.0,0.0
1775762984578930912,70152,0.0,1.5,0.012,0.3,0.14,-0.12,-75.56,-5.0,-0.56,0.1,-0.0,-0.05,-0.12,0.06,0.0,228.27,199.0,0.0,0.0,0.0,0.0
1775762984677247216,70253,0.0,1.3,0.0,0.3,0.0,-0.04,-75.56,-5.0,-0.56,0.11,-0.01,-0.08,0.06,0.12,0.12,202.54,188.0,0.0,0.0,0.0,0.0
1775762984779650271,70352,0.0,1.3,0.004,0.3,-0.06,0.04,-75.56,-5.0,-0.56,0.12,0.01,-0.07,-0.0,0.06,-0.12,198.25,188.0,0.0,0.0,0.0,0.0
1775762984905134899,70453,0.0,1.4,0.0,0.1,0.02,-0.06,-75.56,-5.0,-0.56,0.13,-0.0,-0.05,-0.12,-0.0,-0.06,210.94,189.0,0.0,0.0,0.0,0.0
1775762984980309505,70553,0.0,1.5,0.0,0.1,-0.1,-0.1,-75.56,-5.0,-0.56,0.13,-0.0,-0.07,-0.12,-0.06,-0.06,210.94,197.0,0.0,0.0,0.0,0.0
1775762985080514277,70652,0.0,1.3,0.0,0.6,-0.06,0.04,-75.56,-5.0,-0.56,0.12,-0.0,-0.07,0.06,0.06,-0.06,11970.19,190.0,0.0,0.0,0.0,0.0
1775762985176898279,70752,0.0,1.1,0.032,0.1,0.0,-0.06,-75.56,-5.0,-0.56,0.1,-0.0,-0.04,0.12,0.06,-0.06,210.77,190.0,0.0,0.0,0.0,0.0
1775762985279302612,70852,0.0,1.2,0.036,0.4,-0.02,-0.12,-75.56,-5.0,-0.56,0.12,-0.01,-0.04,-0.0,-0.0,0.06,11970.19,188.0,0.0,0.0,0.0,0.0
1775762985377521975,70952,0.0,1.5,0.028,0.2,0.0,-0.02,-75.56,-5.0,-0.56,0.11,-0.01,-0.07,0.12,0.06,0.0,11971.56,195.0,0.0,0.0,0.0,0.0
1775762985479909383,71052,0.0,1.2,0.02,0.2,0.02,-0.08,-75.56,-5.0,-0.56,0.13,-0.0,-0.07,0.06,-0.0,-0.06,11971.39,195.0,0.0,0.0,0.0,0.0
1775762985586130239,71152,0.0,1.5,0.012,0.1,-0.1,0.06,-75.56,-5.0,-0.56,0.15,-0.01,-0.07,-0.12,-0.06,0.0,11971.56,196.0,0.0,0.0,0.0,0.0
1775762985678544474,71252,0.0,1.2,0.0,0.5,-0.04,-0.08,-75.56,-5.0,-0.56,0.13,-0.01,-0.07,-0.06,0.06,0.0,11973.1,196.0,0.0,0.0,0.0,0.0
1775762985885135820,71352,0.0,1.2,0.004,0.2,0.06,-0.1,-75.56,-5.0,-0.56,0.12,-0.01,-0.08,0.19,-0.06,-0.06,11973.1,193.0,0.0,0.0,0.0,0.0
1775762985898430453,71452,0.0,1.5,0.0,0.6,0.21,-0.21,-75.56,-5.0,-0.56,0.11,-0.0,-0.05,-0.0,-0.06,0.06,11972.59,196.0,0.0,0.0,0.0,0.0
1775762985987485954,71553,0.0,1.2,0.0,0.5,-0.08,-0.06,-75.56,-5.0,-0.56,0.13,-0.0,-0.07,-0.12,-0.0,0.0,11973.62,196.0,0.0,0.0,0.0,0.0
1775762986079821677,71653,0.0,1.2,0.004,0.3,0.02,0.0,-75.56,-5.0,-0.56,0.12,0.01,-0.06,-0.0,0.06,0.0,11973.96,193.0,0.0,0.0,0.0,0.0
1775762986182215451,71753,0.0,1.1,0.024,0.8,0.08,0.0,-75.56,-5.0,-0.56,0.12,-0.0,-0.05,0.12,-0.0,-0.06,11972.07,195.0,0.0,0.0,0.0,0.0
1775762986278570833,71853,0.0,1.0,0.04,0.3,0.0,-0.1,-75.56,-5.0,-0.56,0.12,-0.0,-0.07,-0.0,0.19,0.06,202.54,195.0,0.0,0.0,0.0,0.0
1775762986380914501,71954,0.0,0.7,0.0,1.5,-0.14,-0.25,-75.56,-5.0,-0.56,0.13,-0.0,-0.04,-0.0,-0.06,-0.06,232.38,195.0,0.0,0.0,0.0,0.0
1775762986479356019,72054,0.0,1.5,0.016,0.0,-0.12,-0.16,-75.56,-5.0,-0.56,0.13,-0.0,-0.06,-0.0,-0.0,-0.06,11968.64,195.0,0.0,0.0,0.0,0.0
1775762986581635415,72154,0.0,1.3,0.012,0.5,0.02,-0.1,-75.56,-5.0,-0.56,0.1,-0.0,-0.05,0.06,-0.19,-0.06,206.66,189.0,0.0,0.0,0.0,0.0
1775762986679926818,72254,0.0,1.4,0.004,0.3,0.04,-0.12,-75.56,-5.0,-0.56,0.11,-0.0,-0.06,-0.06,-0.12,0.0,202.54,189.0,0.0,0.0,0.0,0.0
1775762986778254366,72353,0.0,1.3,0.0,1.1,0.0,-0.06,-75.56,-5.0,-0.56,0.13,-0.01,-0.07,-0.0,-0.0,0.12,232.38,200.0,0.0,0.0,0.0,0.0
1775762986882536276,72453,0.0,1.1,0.0,0.7,0.06,-0.1,-75.56,-5.0,-0.56,0.13,-0.0,-0.07,-0.0,-0.06,0.0,11970.87,189.0,0.0,0.0,0.0,0.0
1775762986980799923,72553,0.0,0.7,0.0,0.4,-0.06,0.0,-75.56,-5.0,-0.56,0.13,-0.0,-0.06,0.12,-0.12,0.0,11970.19,198.0,0.0,0.0,0.0,0.0
1775762987089157186,72653,0.0,1.0,0.0,0.1,-0.08,-0.14,-75.56,-5.0,-0.56,0.13,-0.01,-0.07,0.06,-0.0,0.06,11971.39,198.0,0.0,0.0,0.0,0.0
1775762987181486318,72754,0.0,0.7,0.04,0.1,-0.12,-0.06,-75.56,-5.0,-0.56,0.12,-0.0,-0.04,0.19,0.06,0.0,11970.36,191.0,0.0,0.0,0.0,0.0
1775762987281949339,72854,0.0,0.9,0.04,0.6,-0.08,-0.18,-75.56,-5.0,-0.56,0.12,0.01,-0.06,0.06,-0.06,0.06,206.66,191.0,0.0,0.0,0.0,0.0
1775762987380282558,72953,0.0,1.0,0.024,0.2,0.12,0.0,-75.56,-5.0,-0.56,0.11,-0.0,-0.06,0.06,-0.12,-0.06,210.94,199.0,0.0,0.0,0.0,0.0
1775762987480404630,73053,0.0,1.0,0.02,0.5,-0.02,-0.16,-75.56,-5.0,-0.56,0.11,-0.0,-0.07,-0.0,-0.06,0.0,11970.87,192.0,0.0,0.0,0.0,0.0
1775762987588863162,73153,0.0,1.0,0.016,0.5,-0.08,-0.06,-75.56,-5.0,-0.56,0.11,0.01,-0.04,-0.25,-0.0,0.0,11972.41,192.0,0.0,0.0,0.0,0.0
1775762987681135245,73253,0.0,0.9,0.008,0.3,0.06,-0.08,-75.56,-5.0,-0.56,0.11,-0.0,-0.03,0.06,-0.0,0.0,11968.81,193.0,0.0,0.0,0.0,0.0
1775762987789521044,73353,0.0,1.0,0.004,0.1,0.0,-0.1,-75.56,-5.0,-0.56,0.11,-0.01,-0.03,-0.0,0.06,-0.06,11969.16,196.0,0.0,0.0,0.0,0.0
1775762987881897301,73453,0.0,0.9,0.004,0.5,-0.12,0.02,-75.56,-5.0,-0.56,0.13,0.01,-0.03,-0.0,-0.0,0.06,11968.98,196.0,0.0,0.0,0.0,0.0
1775762987980092997,73552,0.0,1.0,0.0,0.5,-0.16,-0.08,-75.56,-5.0,-0.56,0.12,-0.0,-0.06,-0.12,-0.0,-0.06,11967.78,196.0,0.0,0.0,0.0,0.0
1775762988229134021,73652,0.0,0.7,0.0,0.1,0.06,-0.14,-75.56,-5.0,-0.56,0.12,0.01,-0.06,0.06,-0.12,0.12,11967.1,192.0,0.0,0.0,0.0,0.0
1775762988268973807,73752,0.0,0.9,0.032,0.2,-0.04,0.04,-75.56,-5.0,-0.56,0.11,-0.01,-0.04,0.12,-0.0,0.0,11970.7,192.0,0.0,0.0,0.0,0.0
1775762988281192735,73851,0.0,0.9,0.032,0.2,0.16,-0.16,-75.56,-5.0,-0.56,0.12,-0.0,-0.06,-0.06,0.06,0.06,11968.98,196.0,0.0,0.0,0.0,0.0
1775762988379519643,73951,0.0,0.9,0.028,0.4,0.02,0.02,-75.56,-5.0,-0.56,0.11,-0.0,-0.05,-0.06,0.06,0.06,11968.3,192.0,0.0,0.0,0.0,0.0
1775762988479775243,74051,0.0,0.6,0.02,0.3,-0.02,-0.04,-75.56,-5.0,-0.56,0.11,-0.01,-0.06,-0.0,-0.0,0.0,11970.01,192.0,0.0,0.0,0.0,0.0
1775762988578001067,74151,0.0,1.0,0.004,0.7,-0.02,-0.06,-75.56,-5.0,-0.56,0.1,-0.0,-0.05,-0.0,-0.12,-0.06,11967.96,199.0,0.0,0.0,0.0,0.0
1775762988686493037,74250,0.0,0.9,0.012,0.5,0.06,-0.1,-75.56,-5.0,-0.56,0.14,-0.0,-0.06,0.06,-0.06,0.0,11969.5,199.0,0.0,0.0,0.0,0.0
1775762988778709823,74350,0.0,1.0,0.0,0.6,0.02,-0.02,-75.56,-5.0,-0.56,0.13,-0.0,-0.06,-0.0,-0.0,0.06,11970.53,196.0,0.0,0.0,0.0,0.0
1775762988877001845,74450,0.0,1.0,0.0,0.6,0.06,-0.08,-75.56,-5.0,-0.56,0.11,-0.0,-0.06,-0.06,-0.0,-0.06,11968.47,188.0,0.0,0.0,0.0,0.0
1775762988979477129,74550,0.0,1.1,0.0,0.6,-0.04,0.0,-75.56,-5.0,-0.56,0.12,-0.0,-0.06,-0.06,0.12,0.0,11969.33,188.0,0.0,0.0,0.0,0.0
1775762989097141503,74650,0.0,1.1,0.0,0.5,0.04,-0.08,-75.56,-5.0,-0.56,0.12,-0.0,-0.09,0.12,-0.06,0.0,11970.53,188.0,0.0,0.0,0.0,0.0
1775762989180089848,74750,0.0,1.1,0.032,0.4,0.02,-0.08,-75.56,-5.0,-0.56,0.12,0.01,-0.07,0.06,-0.06,-0.19,11968.13,191.0,0.0,0.0,0.0,0.0
1775762989276466340,74850,0.0,1.0,0.04,0.3,0.0,-0.08,-75.56,-5.0,-0.56,0.13,-0.0,-0.07,-0.06,-0.06,-0.12,11969.5,191.0,0.0,0.0,0.0,0.0
1775762989378813472,74950,0.0,1.1,0.032,0.3,-0.04,0.04,-75.56,-5.0,-0.56,0.14,0.01,-0.05,0.06,-0.0,-0.06,11969.84,195.0,0.0,0.0,0.0,0.0
1775762989479028317,75051,0.0,1.0,0.016,0.4,-0.12,-0.08,-75.56,-5.0,-0.56,0.12,-0.0,-0.07,0.06,-0.06,0.0,11969.33,195.0,0.0,0.0,0.0,0.0
1775762989581490254,75151,0.0,0.8,0.02,0.5,0.02,-0.08,-75.56,-5.0,-0.56,0.11,0.01,-0.09,-0.0,-0.06,-0.06,11970.01,186.0,0.0,0.0,0.0,0.0
1775762989721137856,75251,0.0,1.0,0.004,0.5,0.12,-0.18,-75.56,-5.0,-0.56,0.13,-0.01,-0.06,0.12,-0.0,0.06,11968.13,198.0,0.0,0.0,0.0,0.0
1775762989788094548,75351,0.0,1.1,0.0,0.5,0.04,0.02,-75.56,-5.0,-0.56,0.11,-0.0,-0.04,-0.06,-0.06,0.12,11970.01,198.0,0.0,0.0,0.0,0.0
1775762989880399022,75451,0.0,0.9,0.0,0.5,0.04,-0.08,-75.56,-5.0,-0.56,0.12,0.01,-0.06,-0.0,-0.06,0.0,11969.33,192.0,0.0,0.0,0.0,0.0
1775762989978708948,75551,0.0,0.9,0.0,0.1,0.08,-0.14,-75.56,-5.0,-0.56,0.13,-0.0,-0.06,-0.0,-0.06,0.06,11969.84,195.0,0.0,0.0,0.0,0.0
1775762990087119888,75651,0.0,0.9,0.0,0.6,-0.16,-0.08,-75.56,-5.0,-0.56,0.12,0.01,-0.06,0.12,-0.06,0.0,11971.73,195.0,0.0,0.0,0.0,0.0
1775762990179395001,75751,0.0,0.8,0.032,0.5,-0.06,-0.12,-75.56,-5.0,-0.56,0.1,-0.01,-0.08,0.12,-0.06,-0.06,11970.36,200.0,0.0,0.0,0.0,0.0
1775762990287764553,75851,0.0,1.0,0.052,0.2,-0.08,-0.08,-75.56,-5.0,-0.56,0.1,-0.01,-0.07,-0.0,-0.0,0.12,11966.24,187.0,0.0,0.0,0.0,0.0
1775762990378138412,75951,0.0,1.0,0.028,0.6,0.02,0.0,-75.56,-5.0,-0.56,0.11,-0.0,-0.08,0.12,-0.0,-0.06,11968.13,187.0,0.0,0.0,0.0,0.0
1775762990482334321,76050,0.0,0.7,0.016,0.1,0.0,-0.14,-75.56,-5.0,-0.56,0.12,-0.01,-0.06,-0.06,0.06,0.0,11967.44,193.0,0.0,0.0,0.0,0.0
1775762990586700697,76150,0.0,0.9,0.0,0.6,-0.02,-0.12,-75.56,-5.0,-0.56,0.13,-0.0,-0.06,-0.06,0.06,-0.06,11965.73,193.0,0.0,0.0,0.0,0.0
1775762990679103762,76250,0.0,0.9,0.004,0.5,0.1,-0.08,-75.56,-5.0,-0.56,0.09,-0.0,-0.06,0.19,-0.0,0.0,11967.96,193.0,0.0,0.0,0.0,0.0
1775762990787436262,76350,0.0,0.9,0.0,0.5,-0.02,0.06,-75.56,-5.0,-0.56,0.12,-0.0,-0.06,-0.06,-0.0,0.0,11966.24,193.0,0.0,0.0,0.0,0.0
1775762990879780165,76450,0.0,0.9,0.0,0.3,0.02,-0.1,-75.56,-5.0,-0.56,0.1,-0.01,-0.1,0.12,-0.0,-0.06,11968.13,193.0,0.0,0.0,0.0,0.0
1775762990988057448,76551,0.0,0.8,0.0,0.5,-0.1,-0.14,-75.56,-5.0,-0.56,0.13,-0.0,-0.09,0.06,-0.0,0.06,11968.64,189.0,0.0,0.0,0.0,0.0
1775762991080374673,76651,0.0,1.0,0.0,0.5,-0.16,-0.12,-75.56,-5.0,-0.56,0.12,-0.01,-0.11,-0.12,0.12,-0.06,11968.81,200.0,0.0,0.0,0.0,0.0
1775762991182850864,76751,0.0,0.7,0.024,0.3,0.02,-0.08,-75.56,-5.0,-0.56,0.11,-0.0,-0.06,-0.06,-0.0,0.06,11970.7,200.0,0.0,0.0,0.0,0.0
1775762991281049694,76851,0.0,0.8,0.036,0.5,-0.04,-0.04,-75.56,-5.0,-0.56,0.13,-0.0,-0.08,-0.06,0.06,0.0,11969.5,189.0,0.0,0.0,0.0,0.0
1775762991381510435,76951,0.0,0.8,0.012,0.3,0.02,-0.1,-75.56,-5.0,-0.56,0.13,-0.01,-0.07,0.06,-0.0,-0.06,11968.64,190.0,0.0,0.0,0.0,0.0
1775762991479773426,77051,0.0,1.0,0.016,0.3,0.02,-0.1,-75.56,-5.0,-0.56,0.11,-0.0,-0.08,-0.12,0.06,0.0,11970.36,190.0,0.0,0.0,0.0,0.0
1775762991579935212,77151,0.0,0.9,0.004,0.5,-0.02,-0.14,-75.56,-5.0,-0.56,0.11,-0.0,-0.05,-0.0,-0.19,0.06,11966.58,197.0,0.0,0.0,0.0,0.0
1775762991682493858,77251,0.0,1.2,0.004,0.5,0.12,-0.04,-75.56,-5.0,-0.56,0.11,-0.01,-0.09,0.12,-0.12,0.0,11967.78,197.0,0.0,0.0,0.0,0.0
1775762991780697521,77351,0.0,1.0,0.0,0.7,-0.02,0.0,-75.56,-5.0,-0.56,0.14,-0.0,-0.07,-0.0,0.06,0.12,11968.98,204.0,0.0,0.0,0.0,0.0
1775762991985160131,77451,0.0,0.9,0.0,0.2,-0.04,-0.12,-75.56,-5.0,-0.56,0.1,0.01,-0.06,-0.12,-0.12,0.0,11965.04,197.0,0.0,0.0,0.0,0.0
1775762991997273737,77551,0.0,1.0,0.0,0.4,0.0,-0.04,-75.56,-5.0,-0.56,0.13,-0.0,-0.09,-0.12,-0.12,0.0,11967.96,197.0,0.0,0.0,0.0,0.0
1775762992185131225,77651,0.0,0.9,0.0,0.5,0.06,-0.12,-75.56,-5.0,-0.56,0.09,-0.01,-0.06,-0.0,0.06,-0.06,11966.75,193.0,0.0,0.0,0.0,0.0
1775762992197512468,77751,0.0,1.1,0.032,0.5,-0.14,-0.14,-75.56,-5.0,-0.56,0.13,-0.0,-0.08,0.06,0.06,0.06,210.77,193.0,0.0,0.0,0.0,0.0
1775762992290456398,77851,0.0,1.0,0.04,0.4,-0.04,-0.02,-75.56,-5.0,-0.56,0.13,-0.0,-0.1,-0.06,-0.12,-0.12,11967.96,181.0,0.0,0.0,0.0,0.0
1775762992380838461,77952,0.0,1.0,0.02,0.1,0.04,0.02,-75.56,-5.0,-0.56,0.11,-0.01,-0.09,-0.06,0.06,0.06,11967.1,186.0,0.0,0.0,0.0,0.0
1775762992483178100,78052,0.0,0.8,0.02,0.8,-0.02,0.0,-75.56,-5.0,-0.56,0.12,-0.0,-0.09,-0.0,-0.06,0.06,210.77,186.0,0.0,0.0,0.0,0.0
1775762992589339404,78153,0.0,0.9,0.008,0.3,0.02,-0.14,-75.56,-5.0,-0.56,0.13,-0.0,-0.07,-0.0,0.12,-0.12,11968.81,189.0,0.0,0.0,0.0,0.0
1775762992691815050,78254,0.0,1.2,0.008,0.1,-0.04,-0.18,-75.56,-5.0,-0.56,0.12,0.01,-0.1,-0.0,-0.12,-0.06,11967.78,192.0,0.0,0.0,0.0,0.0
1775762992784095871,78354,0.0,1.1,0.0,0.3,-0.06,-0.06,-75.56,-5.0,-0.56,0.12,-0.01,-0.09,-0.0,-0.0,-0.06,11967.1,184.0,0.0,0.0,0.0,0.0
1775762992933134012,78454,0.0,1.0,0.0,0.2,0.12,0.02,-75.56,-5.0,-0.56,0.13,0.01,-0.1,0.06,0.12,0.12,11969.67,184.0,0.0,0.0,0.0,0.0
1775762992984792279,78555,0.0,0.9,0.0,0.3,0.04,0.02,-75.56,-5.0,-0.56,0.12,-0.0,-0.09,0.06,0.06,0.0,11968.13,190.0,0.0,0.0,0.0,0.0
1775762993093205825,78655,0.0,0.7,0.0,0.2,-0.16,0.0,-75.56,-5.0,-0.56,0.12,-0.0,-0.09,-0.19,-0.06,0.0,11969.16,190.0,0.0,0.0,0.0,0.0
1775762993185453943,78755,0.0,0.8,0.036,0.6,0.04,0.06,-75.56,-5.0,-0.56,0.13,-0.0,-0.07,-0.0,-0.19,-0.06,11968.81,210.0,0.0,0.0,0.0,0.0
1775762993285940752,78855,0.0,1.0,0.04,0.3,-0.04,0.02,-75.56,-5.0,-0.56,0.1,-0.0,-0.08,-0.12,-0.06,-0.12,11967.78,194.0,0.0,0.0,0.0,0.0
1775762993384190108,78955,0.0,1.3,0.024,0.6,0.0,-0.14,-75.56,-5.0,-0.56,0.12,-0.0,-0.08,0.06,-0.12,0.06,11969.5,194.0,0.0,0.0,0.0,0.0
1775762993484390812,79054,0.0,1.3,0.012,0.4,-0.08,-0.1,-75.56,-5.0,-0.56,0.11,0.01,-0.1,0.06,-0.12,0.0,11969.67,193.0,0.0,0.0,0.0,0.0
1775762993592814616,79154,0.0,1.0,0.0,0.1,-0.06,-0.16,-75.56,-5.0,-0.56,0.13,0.02,-0.06,-0.06,-0.0,0.0,11967.1,199.0,0.0,0.0,0.0,0.0
1775762993685199278,79254,0.0,1.2,0.0,0.6,0.04,0.02,-75.56,-5.0,-0.56,0.12,-0.0,-0.08,-0.0,0.12,0.06,11968.64,199.0,0.0,0.0,0.0,0.0
1775762993781448752,79354,0.0,1.0,0.0,1.2,0.02,-0.16,-75.56,-5.0,-0.56,0.12,-0.0,-0.06,0.06,-0.06,0.12,219.86,199.0,0.0,0.0,0.0,0.0
1775762993901137464,79454,0.0,1.3,0.0,0.2,0.16,0.02,-75.56,-5.0,-0.56,0.12,-0.0,-0.07,-0.06,-0.0,0.06,11968.13,196.0,0.0,0.0,0.0,0.0
1775762993994168977,79554,0.0,1.4,0.0,0.3,-0.06,-0.14,-75.56,-5.0,-0.56,0.11,-0.0,-0.05,-0.06,0.06,0.0,11969.5,194.0,0.0,0.0,0.0,0.0
1775762994086471815,79654,0.0,1.4,0.0,0.3,0.16,0.04,-75.56,-5.0,-0.56,0.1,-0.0,-0.03,-0.0,-0.0,0.06,11970.36,195.0,0.0,0.0,0.0,0.0
1775762994184858030,79754,0.0,1.4,0.024,0.3,-0.1,-0.02,-75.56,-5.0,-0.56,0.1,-0.01,-0.1,-0.06,-0.06,0.19,11971.21,195.0,0.0,0.0,0.0,0.0
1775762994293176890,79854,0.0,1.2,0.036,0.1,0.02,-0.16,-75.56,-5.0,-0.56,0.11,-0.0,-0.06,-0.06,-0.0,0.0,11968.98,196.0,0.0,0.0,0.0,0.0
1775762994383486319,79954,0.0,1.0,0.0,1.2,-0.02,-0.12,-75.56,-5.0,-0.56,0.13,-0.0,-0.04,-0.06,0.12,0.0,11969.5,183.0,0.0,0.0,0.0,0.0
1775762994485895392,80054,0.0,1.1,0.016,0.5,-0.16,0.1,-75.56,-5.0,-0.56,0.13,0.01,-0.06,-0.06,0.06,-0.12,11972.93,183.0,0.0,0.0,0.0,0.0
1775762994592112155,80154,0.0,1.1,0.004,0.3,0.1,-0.08,-75.56,-5.0,-0.56,0.11,-0.0,-0.05,0.12,0.12,0.06,11969.5,197.0,0.0,0.0,0.0,0.0
1775762994684405302,80254,0.0,1.0,0.0,0.5,-0.04,-0.14,-75.56,-5.0,-0.56,0.1,-0.0,-0.07,0.12,0.12,-0.12,11969.84,182.0,0.0,0.0,0.0,0.0
1775762994792912257,80354,0.0,1.0,0.0,0.3,-0.12,0.02,-75.56,-5.0,-0.56,0.11,-0.0,-0.07,0.06,-0.0,-0.06,11971.9,182.0,0.0,0.0,0.0,0.0
1775762994885105635,80454,0.0,0.7,0.0,0.6,-0.12,-0.12,-75.56,-5.0,-0.56,0.12,-0.0,-0.05,0.06,0.06,0.0,11969.33,189.0,0.0,0.0,0.0,0.0
1775762994993406793,80555,0.0,1.2,0.0,0.5,-0.12,-0.1,-75.56,-5.0,-0.56,0.12,0.01,-0.07,-0.0,0.19,0.0,11967.96,200.0,0.0,0.0,0.0,0.0
1775762995085854779,80655,0.0,1.0,0.0,0.5,0.1,-0.08,-75.56,-5.0,-0.56,0.12,-0.0,-0.06,-0.0,-0.06,0.0,11970.87,200.0,0.0,0.0,0.0,0.0
1775762995194165684,80754,0.0,1.0,0.032,0.4,-0.12,-0.25,-75.56,-5.0,-0.56,0.11,-0.0,-0.07,-0.06,0.06,-0.06,11969.67,197.0,0.0,0.0,0.0,0.0
1775762995284566985,80855,0.0,0.9,0.028,0.6,-0.04,-0.02,-75.56,-5.0,-0.56,0.13,-0.0,-0.06,-0.12,0.06,0.0,11967.27,197.0,0.0,0.0,0.0,0.0
1775762995382850318,80954,0.0,0.9,0.024,0.3,-0.1,-0.08,-75.56,-5.0,-0.56,0.13,-0.0,-0.06,-0.12,0.06,0.0,11968.64,191.0,0.0,0.0,0.0,0.0
1775762995487073071,81054,0.0,0.9,0.02,0.1,0.06,-0.04,-75.56,-5.0,-0.56,0.12,-0.0,-0.05,-0.06,-0.0,0.0,11965.9,193.0,0.0,0.0,0.0,0.0
1775762995585454859,81154,0.0,1.0,0.008,0.5,0.06,-0.12,-75.56,-5.0,-0.56,0.12,0.01,-0.06,-0.0,0.06,-0.06,11966.07,193.0,0.0,0.0,0.0,0.0
1775762995687825362,81254,0.0,0.7,0.0,0.2,0.06,-0.2,-75.56,-5.0,-0.56,0.12,-0.01,-0.07,0.12,-0.06,0.0,11966.93,196.0,0.0,0.0,0.0,0.0
1775762995997143222,81354,0.0,1.2,0.0,0.1,0.1,-0.1,-75.56,-5.0,-0.56,0.13,-0.01,-0.08,-0.06,0.12,0.06,11967.1,191.0,0.0,0.0,0.0,0.0
1775762996009550003,81454,0.0,0.9,0.0,0.3,0.02,-0.14,-75.56,-5.0,-0.56,0.14,-0.0,-0.06,-0.0,0.06,0.0,11969.84,191.0,0.0,0.0,0.0,0.0
1775762996074999265,81554,0.0,0.6,0.0,0.4,-0.1,0.0,-75.56,-5.0,-0.56,0.13,-0.01,-0.04,0.06,-0.06,0.0,11969.84,191.0,0.0,0.0,0.0,0.0
1775762996087592259,81654,0.0,0.9,0.0,0.5,0.0,-0.14,-75.56,-5.0,-0.56,0.12,-0.01,-0.06,-0.0,0.06,0.0,11969.84,191.0,0.0,0.0,0.0,0.0
1775762996193465948,81754,0.0,1.3,0.032,0.3,-0.06,0.04,-75.56,-5.0,-0.56,0.11,-0.0,-0.07,0.12,-0.12,0.06,11968.13,191.0,0.0,0.0,0.0,0.0
1775762996285740671,81854,0.0,1.2,0.036,0.2,0.02,-0.02,-75.56,-5.0,-0.56,0.13,-0.0,-0.05,-0.12,-0.06,-0.06,11966.24,185.0,0.0,0.0,0.0,0.0
1775762996386184873,81954,0.0,1.2,0.02,0.6,-0.04,0.0,-75.56,-5.0,-0.56,0.12,-0.0,-0.06,-0.06,-0.0,0.0,11968.81,185.0,0.0,0.0,0.0,0.0
1775762996490494397,82055,0.0,1.1,0.016,0.6,-0.14,0.0,-75.56,-5.0,-0.56,0.12,-0.0,-0.06,-0.06,0.06,0.12,11966.93,195.0,0.0,0.0,0.0,0.0
1775762996701141349,82155,0.0,1.5,0.004,0.2,0.0,0.02,-75.56,-5.0,-0.56,0.1,-0.0,-0.07,-0.06,-0.06,0.0,11966.24,193.0,0.0,0.0,0.0,0.0
1775762996712950335,82255,0.0,1.3,0.004,0.3,-0.04,-0.08,-75.56,-5.0,-0.56,0.11,-0.0,-0.05,-0.0,-0.0,0.12,11967.96,193.0,0.0,0.0,0.0,0.0
1775762996795503785,82356,0.0,0.2,0.0,0.8,-0.23,-0.08,-75.56,-5.0,-0.56,0.12,-0.0,-0.04,-0.0,0.06,0.06,11967.78,194.0,0.0,0.0,0.0,0.0
1775762996887776231,82456,0.0,1.0,0.0,0.5,0.0,-0.02,-75.56,-5.0,-0.56,0.12,0.01,-0.08,0.06,0.06,-0.12,11970.87,197.0,0.0,0.0,0.0,0.0
1775762996996167208,82556,0.0,0.9,0.0,0.5,0.06,-0.06,-75.56,-5.0,-0.56,0.11,-0.0,-0.04,-0.12,-0.06,0.06,11971.9,197.0,0.0,0.0,0.0,0.0
1775762997088458542,82656,0.0,1.0,0.0,0.6,0.0,-0.12,-75.56,-5.0,-0.56,0.12,-0.0,-0.06,-0.0,0.06,0.0,11967.27,201.0,0.0,0.0,0.0,0.0
1775762997196880869,82756,0.0,0.7,0.04,0.3,0.0,-0.12,-75.56,-5.0,-0.56,0.12,0.01,-0.07,-0.06,-0.0,0.0,11967.61,195.0,0.0,0.0,0.0,0.0
1775762997287220482,82856,0.0,1.0,0.032,0.6,-0.08,-0.14,-75.56,-5.0,-0.56,0.12,-0.0,-0.06,-0.06,0.06,-0.06,11967.78,195.0,0.0,0.0,0.0,0.0
1775762997385572297,82956,0.0,0.9,0.0,1.4,0.08,0.06,-75.56,-5.0,-0.56,0.11,-0.0,-0.03,-0.0,0.06,-0.06,11968.98,187.0,0.0,0.0,0.0,0.0
1775762997487901762,83056,0.0,1.3,0.012,0.5,0.02,-0.18,-75.56,-5.0,-0.56,0.12,-0.02,-0.07,-0.06,-0.0,0.0,207.17,187.0,0.0,0.0,0.0,0.0
1775762997586211654,83155,0.0,1.5,0.008,0.5,0.06,0.02,-75.56,-5.0,-0.56,0.13,-0.0,-0.08,-0.12,0.19,0.06,203.06,188.0,0.0,0.0,0.0,0.0
1775762997688602614,83256,0.0,1.1,0.016,0.6,-0.04,-0.02,-75.56,-5.0,-0.56,0.13,-0.0,-0.05,0.06,-0.06,0.0,220.38,188.0,0.0,0.0,0.0,0.0
1775762997809136190,83356,0.0,1.4,0.0,1.1,0.0,0.02,-75.56,-5.0,-0.56,0.11,-0.0,-0.07,-0.0,-0.0,-0.12,11970.36,191.0,0.0,0.0,0.0,0.0
1775762997889284487,83457,0.0,0.1,0.0,0.9,-0.1,-0.1,-75.56,-5.0,-0.56,0.13,-0.0,-0.05,0.06,-0.0,0.0,203.57,190.0,0.0,0.0,0.0,0.0
1775762997987563604,83557,0.0,0.9,0.0,0.5,-0.06,-0.08,-75.56,-5.0,-0.56,0.12,0.01,-0.05,-0.0,0.12,0.0,216.26,190.0,0.0,0.0,0.0,0.0
1775762998089943063,83657,0.0,1.1,0.0,0.5,-0.08,-0.1,-75.56,-5.0,-0.56,0.11,-0.0,-0.08,-0.06,0.06,0.06,206.83,191.0,0.0,0.0,0.0,0.0
1775762998188218152,83758,0.0,1.0,0.028,0.7,0.02,-0.1,-75.56,-5.0,-0.56,0.12,0.01,-0.05,0.06,0.06,0.06,216.26,191.0,0.0,0.0,0.0,0.0
1775762998296164831,83858,0.0,1.2,0.032,0.4,0.02,-0.06,-75.56,-5.0,-0.56,0.12,-0.0,-0.05,-0.0,0.06,0.06,11972.24,191.0,0.0,0.0,0.0,0.0
1775762998388939486,83958,0.0,0.8,0.028,0.2,0.0,-0.12,-75.56,-5.0,-0.56,0.09,-0.0,-0.04,0.06,-0.12,-0.06,211.97,190.0,0.0,0.0,0.0,0.0
1775762998491274777,84058,0.0,0.9,0.012,0.3,-0.14,-0.06,-75.56,-5.0,-0.56,0.11,-0.0,-0.06,-0.0,0.12,0.0,211.97,190.0,0.0,0.0,0.0,0.0
1775762998589577660,84159,0.0,0.7,0.008,0.5,-0.1,0.0,-75.56,-5.0,-0.56,0.13,-0.0,-0.06,0.06,0.06,-0.12,211.97,193.0,0.0,0.0,0.0,0.0
1775762998689813513,84258,0.0,0.9,0.012,0.6,-0.14,0.14,-75.56,-5.0,-0.56,0.13,-0.0,-0.08,-0.06,0.19,0.0,11971.21,195.0,0.0,0.0,0.0,0.0
1775762998790282809,84358,0.0,1.1,0.0,0.3,0.02,-0.14,-75.56,-5.0,-0.56,0.12,-0.0,-0.07,-0.06,0.06,0.0,227.75,195.0,0.0,0.0,0.0,0.0
1775762998888549899,84458,0.0,1.0,0.0,0.2,0.04,-0.08,-75.56,-5.0,-0.56,0.11,-0.01,-0.04,0.12,-0.06,0.06,227.58,192.0,0.0,0.0,0.0,0.0
1775762998990975720,84558,0.0,1.2,0.0,0.3,-0.08,-0.04,-75.56,-5.0,-0.56,0.11,-0.0,-0.04,0.12,0.06,-0.12,228.61,192.0,0.0,0.0,0.0,0.0
1775762999089242583,84658,0.0,0.3,0.0,0.6,-0.02,-0.16,-75.56,-5.0,-0.56,0.12,-0.01,-0.06,-0.06,-0.0,0.06,227.58,192.0,0.0,0.0,0.0,0.0
1775762999191663376,84759,0.0,1.3,0.04,0.4,-0.2,0.04,-75.56,-5.0,-0.56,0.12,-0.0,-0.08,-0.0,-0.19,0.0,207.34,189.0,0.0,0.0,0.0,0.0
1775762999289952025,84858,0.0,1.3,0.032,0.3,-0.06,-0.18,-75.56,-5.0,-0.56,0.11,-0.0,-0.05,-0.0,0.06,0.06,214.55,189.0,0.0,0.0,0.0,0.0
1775762999388295170,84958,0.0,1.2,0.024,0.3,0.08,-0.1,-75.56,-5.0,-0.56,0.12,-0.0,-0.05,0.06,0.12,0.0,11970.36,198.0,0.0,0.0,0.0,0.0
1775762999492467042,85058,0.0,1.2,0.012,0.5,0.06,-0.02,-75.56,-5.0,-0.56,0.14,-0.01,-0.06,-0.0,-0.19,-0.06,11967.61,198.0,0.0,0.0,0.0,0.0
1775762999588951691,85158,0.0,1.2,0.0,0.3,0.04,-0.16,-75.56,-5.0,-0.56,0.1,-0.0,-0.06,-0.06,0.06,0.0,228.78,198.0,0.0,0.0,0.0,0.0
1775762999691315433,85258,0.0,1.3,0.004,0.6,-0.06,-0.08,-75.56,-5.0,-0.56,0.12,-0.0,-0.07,0.06,0.06,0.06,207.86,193.0,0.0,0.0,0.0,0.0
1775762999789589028,85358,0.0,1.4,0.012,0.5,-0.04,-0.08,-75.56,-5.0,-0.56,0.12,-0.01,-0.06,0.06,-0.06,0.0,199.45,196.0,0.0,0.0,0.0,0.0
1775762999891980879,85458,0.0,1.5,0.0,0.3,-0.06,-0.16,-75.56,-5.0,-0.56,0.11,-0.0,-0.05,-0.0,0.12,-0.12,199.45,196.0,0.0,0.0,0.0,0.0
1775762999990267269,85558,0.0,1.4,0.0,0.3,0.02,-0.1,-75.56,-5.0,-0.56,0.13,-0.0,-0.05,-0.12,-0.06,0.06,194.14,193.0,0.0,0.0,0.0,0.0
1775763000092657728,85659,0.0,1.5,0.0,0.3,0.0,-0.2,-75.56,-5.0,-0.56,0.12,-0.0,-0.06,-0.0,0.12,0.12,211.97,193.0,0.0,0.0,0.0,0.0
1775763000190986285,85760,0.0,1.2,0.04,0.2,-0.04,-0.02,-75.56,-5.0,-0.56,0.12,-0.0,-0.09,-0.06,-0.0,0.06,198.77,186.0,0.0,0.0,0.0,0.0
1775763000293361588,85860,0.0,1.1,0.036,0.3,-0.1,-0.1,-75.56,-5.0,-0.56,0.1,-0.0,-0.06,0.19,-0.0,0.06,198.77,193.0,0.0,0.0,0.0,0.0
1775763000391631464,85959,0.0,1.1,0.028,0.1,0.14,-0.12,-75.56,-5.0,-0.56,0.11,-0.0,-0.06,0.06,-0.06,0.06,215.58,193.0,0.0,0.0,0.0,0.0
1775763000493984140,86059,0.0,1.3,0.016,0.3,-0.02,-0.08,-75.56,-5.0,-0.56,0.13,-0.0,-0.07,-0.0,0.12,-0.12,237.18,190.0,0.0,0.0,0.0,0.0
1775763000594191748,86160,0.0,1.4,0.0,0.5,0.06,0.0,-75.56,-5.0,-0.56,0.11,0.01,-0.09,0.06,-0.06,0.0,11971.56,187.0,0.0,0.0,0.0,0.0
1775763000690602275,86260,0.0,1.2,0.008,0.2,-0.12,-0.16,-75.56,-5.0,-0.56,0.12,-0.0,-0.07,-0.06,-0.06,-0.06,210.43,187.0,0.0,0.0,0.0,0.0
1775763000793027741,86360,0.0,1.3,0.008,0.4,-0.14,-0.02,-75.56,-5.0,-0.56,0.12,-0.0,-0.07,-0.0,-0.0,0.0,203.06,194.0,0.0,0.0,0.0,0.0
1775763000891283692,86460,0.0,1.1,0.0,0.1,-0.04,-0.1,-75.56,-5.0,-0.56,0.11,-0.0,-0.07,-0.0,-0.06,-0.06,203.06,194.0,0.0,0.0,0.0,0.0
1775763000999638344,86559,0.0,1.2,0.0,0.2,0.02,-0.06,-75.56,-5.0,-0.56,0.11,0.01,-0.08,-0.0,0.12,-0.06,203.06,194.0,0.0,0.0,0.0,0.0
1775763001092045168,86659,0.0,1.4,0.0,0.5,0.04,0.04,-75.56,-5.0,-0.56,0.14,-0.0,-0.07,-0.0,-0.0,0.06,203.06,193.0,0.0,0.0,0.0,0.0
1775763001202275253,86760,0.0,1.2,0.0,1.1,0.04,-0.12,-75.56,-5.0,-0.56,0.13,-0.0,-0.07,-0.0,-0.06,0.06,11965.9,184.0,0.0,0.0,0.0,0.0
1775763001292684668,86860,0.0,0.9,0.036,0.3,-0.02,-0.2,-75.56,-5.0,-0.56,0.1,0.01,-0.07,0.12,-0.12,-0.19,11965.73,192.0,0.0,0.0,0.0,0.0
1775763001395020497,86960,0.0,1.1,0.028,0.2,0.06,0.02,-75.56,-5.0,-0.56,0.12,0.01,-0.11,0.06,-0.0,0.06,215.58,192.0,0.0,0.0,0.0,0.0
1775763001493291577,87060,0.0,1.1,0.02,0.3,-0.14,-0.1,-75.56,-5.0,-0.56,0.13,-0.0,-0.06,-0.06,-0.19,0.0,219.86,192.0,0.0,0.0,0.0,0.0
1775763001593540296,87159,0.0,0.9,0.004,0.4,0.02,-0.12,-75.56,-5.0,-0.56,0.12,-0.0,-0.08,-0.12,-0.06,0.06,11969.33,190.0,0.0,0.0,0.0,0.0
1775763001695921306,87259,0.0,1.0,0.004,0.6,0.14,-0.21,-75.56,-5.0,-0.56,0.11,-0.0,-0.08,0.06,-0.12,0.06,11968.81,186.0,0.0,0.0,0.0,0.0
1775763001792301094,87359,0.0,1.0,0.0,0.3,-0.02,0.02,-75.56,-5.0,-0.56,0.12,-0.0,-0.09,-0.0,0.06,0.06,240.1,186.0,0.0,0.0,0.0,0.0
1775763001890590562,87459,0.0,0.7,0.0,0.4,-0.1,-0.04,-75.56,-5.0,-0.56,0.13,-0.01,-0.1,-0.06,0.06,0.0,203.06,198.0,0.0,0.0,0.0,0.0
1775763001992965481,87559,0.0,1.0,0.0,0.3,-0.02,-0.16,-75.56,-5.0,-0.56,0.11,-0.0,-0.09,-0.06,0.06,-0.06,207.17,197.0,0.0,0.0,0.0,0.0
1775763002103315702,87660,0.0,0.8,0.0,0.6,-0.08,-0.06,-75.56,-5.0,-0.56,0.11,0.01,-0.09,-0.0,-0.0,0.0,11969.33,190.0,0.0,0.0,0.0,0.0
1775763002193665578,87760,0.0,0.9,0.032,0.4,0.12,-0.14,-75.56,-5.0,-0.56,0.12,-0.0,-0.1,-0.0,-0.0,0.0,232.9,190.0,0.0,0.0,0.0,0.0
1775763002296033016,87860,0.0,0.9,0.04,0.5,-0.02,-0.04,-75.56,-5.0,-0.56,0.13,-0.0,-0.09,-0.0,-0.0,-0.06,232.9,190.0,0.0,0.0,0.0,0.0
1775763002394352018,87960,0.0,0.7,0.016,0.2,0.06,-0.02,-75.56,-5.0,-0.56,0.12,-0.0,-0.08,-0.0,-0.19,-0.06,210.94,194.0,0.0,0.0,0.0,0.0
1775763002492600321,88060,0.0,1.0,0.012,0.3,-0.14,-0.08,-75.56,-5.0,-0.56,0.1,-0.0,-0.06,-0.0,-0.19,0.06,211.97,192.0,0.0,0.0,0.0,0.0
1775763002595033014,88160,0.0,1.1,0.0,0.2,0.04,-0.1,-75.56,-5.0,-0.56,0.13,-0.0,-0.08,-0.0,-0.0,0.0,207.86,192.0,0.0,0.0,0.0,0.0
1775763002693322629,88260,0.0,1.3,0.0,0.5,0.12,0.0,-75.56,-5.0,-0.56,0.12,-0.0,-0.08,-0.06,-0.06,0.0,224.66,193.0,0.0,0.0,0.0,0.0
1775763002795703104,88360,0.0,1.2,0.0,1.0,-0.04,-0.1,-75.56,-5.0,-0.56,0.12,-0.0,-0.08,-0.0,0.12,0.0,224.49,193.0,0.0,0.0,0.0,0.0
1775763002893998885,88460,0.0,0.5,0.004,0.4,-0.02,-0.02,-75.56,-5.0,-0.56,0.11,-0.0,-0.07,0.06,-0.06,-0.06,211.97,193.0,0.0,0.0,0.0,0.0
1775763002992290888,88560,0.0,1.1,0.0,0.2,-0.06,-0.16,-75.56,-5.0,-0.56,0.13,-0.0,-0.09,-0.0,0.12,0.0,203.06,182.0,0.0,0.0,0.0,0.0
1775763003094685519,88659,0.0,1.0,0.0,0.2,0.18,-0.08,-75.56,-5.0,-0.56,0.11,-0.0,-0.07,-0.0,-0.0,0.12,211.46,187.0,0.0,0.0,0.0,0.0
1775763003713155293,88759,0.0,1.0,0.04,0.1,0.04,-0.04,-75.56,-5.0,-0.56,0.13,-0.0,-0.07,-0.0,-0.0,0.06,11966.24,187.0,0.0,0.0,0.0,0.0
1775763003715750811,88859,0.0,0.9,0.036,0.2,0.04,-0.02,-75.56,-5.0,-0.56,0.12,-0.0,-0.06,-0.0,0.06,0.0,11967.78,187.0,0.0,0.0,0.0,0.0
1775763003717889179,88960,0.0,1.0,0.016,0.6,-0.08,-0.04,-75.56,-5.0,-0.56,0.13,0.01,-0.08,0.06,-0.0,-0.12,224.49,187.0,0.0,0.0,0.0,0.0
1775763003729740154,89060,0.0,1.1,0.012,0.3,-0.1,0.02,-75.56,-5.0,-0.56,0.14,0.01,-0.08,-0.06,-0.0,-0.06,224.49,203.0,0.0,0.0,0.0,0.0
1775763003795027456,89159,0.0,0.7,0.004,0.4,0.0,-0.1,-75.56,-5.0,-0.56,0.11,0.01,-0.04,0.06,-0.0,0.06,224.49,202.0,0.0,0.0,0.0,0.0
1775763003913140451,89260,0.0,0.8,0.0,0.5,0.0,-0.02,-75.56,-5.0,-0.56,0.13,-0.0,-0.08,-0.0,0.12,0.0,198.94,202.0,0.0,0.0,0.0,0.0
1775763003926536840,89360,0.0,0.9,0.0,0.1,0.18,-0.1,-75.56,-5.0,-0.56,0.13,-0.0,-0.06,-0.0,-0.0,0.06,202.88,200.0,0.0,0.0,0.0,0.0
1775763003995716873,89460,0.0,0.9,0.004,0.3,0.04,0.0,-75.56,-5.0,-0.56,0.08,0.01,-0.05,-0.06,0.06,0.12,207.17,198.0,0.0,0.0,0.0,0.0
1775763004008785178,89560,0.0,0.9,0.008,0.6,-0.14,-0.12,-75.56,-5.0,-0.56,0.12,-0.01,-0.03,0.06,0.06,0.0,206.14,198.0,0.0,0.0,0.0,0.0
1775763004095879453,89660,0.0,1.1,0.0,0.7,0.02,0.0,-75.56,-5.0,-0.56,0.12,-0.01,-0.05,-0.0,0.12,-0.06,11967.27,189.0,0.0,0.0,0.0,0.0
1775763004192263929,89760,0.0,1.0,0.032,0.2,0.06,0.06,-75.56,-5.0,-0.56,0.12,-0.0,-0.07,-0.0,-0.12,-0.19,215.58,192.0,0.0,0.0,0.0,0.0
1775763004300500276,89860,0.0,0.9,0.044,0.5,0.06,0.0,-75.56,-5.0,-0.56,0.12,-0.0,-0.07,-0.0,-0.0,0.06,11966.75,192.0,0.0,0.0,0.0,0.0
1775763004397095514,89960,0.0,1.1,0.028,0.5,-0.06,-0.04,-75.56,-5.0,-0.56,0.13,-0.0,-0.07,-0.0,-0.12,0.0,207.17,192.0,0.0,0.0,0.0,0.0
1775763004501347283,90060,0.0,0.9,0.008,0.5,0.02,-0.02,-75.56,-5.0,-0.56,0.13,-0.01,-0.04,-0.0,-0.0,-0.06,11966.58,192.0,0.0,0.0,0.0,0.0
1775763004595604185,90160,0.0,1.0,0.004,0.2,0.04,-0.04,-75.56,-5.0,-0.56,0.13,-0.0,-0.04,-0.0,-0.0,0.06,11967.61,192.0,0.0,0.0,0.0,0.0
1775763004696034437,90260,0.0,1.1,0.0,0.5,0.02,-0.1,-75.56,-5.0,-0.56,0.11,-0.0,-0.06,0.12,-0.12,-0.06,211.46,193.0,0.0,0.0,0.0,0.0
1775763004794326801,90359,0.0,0.9,0.004,0.2,-0.16,-0.04,-75.56,-5.0,-0.56,0.13,-0.0,-0.05,-0.06,-0.12,0.0,206.14,193.0,0.0,0.0,0.0,0.0
1775763004892616314,90459,0.0,1.2,0.0,0.1,-0.06,-0.1,-75.56,-5.0,-0.56,0.11,-0.0,-0.06,-0.06,-0.0,0.0,203.06,189.0,0.0,0.0,0.0,0.0
1775763004995005655,90559,0.0,1.0,0.0,0.5,0.02,-0.06,-75.56,-5.0,-0.56,0.14,-0.0,-0.05,0.06,0.06,-0.06,203.57,194.0,0.0,0.0,0.0,0.0
1775763005093297354,90659,0.0,1.0,0.0,0.3,-0.02,-0.1,-75.56,-5.0,-0.56,0.12,-0.0,-0.05,-0.12,-0.0,0.0,199.45,194.0,0.0,0.0,0.0,0.0
1775763005195681005,90759,0.0,1.0,0.036,0.5,-0.16,-0.06,-75.56,-5.0,-0.56,0.11,0.01,-0.07,-0.0,-0.0,0.06,203.57,192.0,0.0,0.0,0.0,0.0
1775763005293950344,90859,0.0,0.9,0.036,0.4,0.14,-0.1,-75.56,-5.0,-0.56,0.13,-0.0,-0.06,-0.0,0.06,0.06,207.86,195.0,0.0,0.0,0.0,0.0
1775763005392283716,90959,0.0,0.7,0.024,0.5,0.06,-0.12,-75.56,-5.0,-0.56,0.12,-0.0,-0.05,-0.0,0.06,0.0,199.45,195.0,0.0,0.0,0.0,0.0
