timestamp_ns,time_ms,voltage_left,current_left_ma,voltage_right,current_right_ma,motor_current_left,motor_current_right,euler_x,euler_y,euler_z,acc_lin_x,acc_lin_y,acc_lin_z,gyro_x,gyro_y,gyro_z,sonar_mm,tof_mm,rpm_left,rpm_right,rotations_left,rotations_right
1776357870556150161,174956,0.004,0.3,0.0,0.9,0.02,0.02,0.12,-3.81,3.75,0.0,0.08,-0.36,-0.0,-0.25,-0.06,,,,,,
1776357870644622910,1902,0.004,0.4,0.0,0.5,0.14,-0.1,-0.0,-3.5,3.88,0.02,-0.03,-0.37,-0.12,0.06,0.0,266.51,270.0,0.0,0.0,0.0,0.0
1776357870752989969,2002,0.0,0.1,0.008,0.2,0.0,-0.2,-0.0,-3.5,3.88,0.04,-0.06,-0.38,0.06,-0.37,0.19,266.51,277.0,0.0,0.0,0.0,0.0
1776357870845314447,2103,0.0,0.2,0.0,1.1,0.02,0.04,-0.0,-3.5,3.88,0.08,0.11,-0.37,0.12,-0.88,0.12,266.51,277.0,0.0,0.0,0.0,0.0
1776357870943612348,2203,0.0,0.4,0.0,1.0,-0.08,0.04,-0.0,-3.44,3.88,0.04,0.02,-0.41,-0.06,0.69,-0.06,266.51,278.0,0.0,0.0,0.0,0.0
1776357871046040347,2302,0.0,0.2,0.0,0.1,-0.04,-0.06,-0.0,-3.44,3.88,0.02,0.01,-0.35,0.06,0.63,-0.31,267.71,276.0,0.0,0.0,0.0,0.0
1776357871144254706,2403,0.0,0.0,0.0,1.0,-0.1,-0.06,-0.0,-3.56,3.88,0.03,-0.14,-0.37,0.25,-0.56,0.06,267.71,276.0,0.0,0.0,0.0,0.0
1776357871246717193,2503,0.0,0.7,0.004,0.8,0.06,-0.06,-0.0,-3.5,3.88,0.07,-0.01,-0.35,0.06,-0.25,0.19,266.51,276.0,0.0,0.0,0.0,0.0
1776357871355083229,2604,0.004,0.3,0.0,0.9,0.0,-0.08,-0.0,-3.5,3.81,0.04,0.16,-0.4,-0.0,0.31,0.0,267.71,272.0,0.0,0.0,0.0,0.0
1776357871447414465,2704,0.0,0.1,0.0,0.9,0.04,0.08,-0.0,-3.5,3.81,0.08,-0.06,-0.36,-0.12,0.44,-0.19,266.51,272.0,0.0,0.0,0.0,0.0
1776357871545709159,2804,0.004,0.5,0.0,0.9,0.06,-0.06,-0.0,-3.56,3.81,0.04,-0.09,-0.38,0.06,-0.37,0.06,266.68,273.0,0.0,0.0,0.0,0.0
1776357871648125441,2905,0.0,0.2,0.0,0.9,-0.02,-0.06,-0.0,-3.56,3.81,0.0,0.26,-0.39,0.31,-0.5,0.31,270.8,273.0,0.0,0.0,0.0,0.0
1776357871750527537,3006,0.004,-0.2,0.0,0.2,-0.12,0.0,0.06,-3.56,3.81,0.1,-0.0,-0.37,-0.06,0.94,-0.06,271.83,273.0,0.0,0.0,0.0,0.0
1776357871848820731,3105,0.004,0.1,0.0,0.3,0.04,-0.06,0.06,-3.63,3.81,0.03,-0.11,-0.38,0.06,0.63,-0.31,271.83,274.0,0.0,0.0,0.0,0.0
1776357871947131796,3205,0.0,0.1,0.0,0.6,-0.14,-0.2,0.06,-3.63,3.81,0.09,-0.06,-0.37,-0.0,-0.44,0.19,270.8,274.0,0.0,0.0,0.0,0.0
1776357872049535383,3305,0.0,0.0,0.0,0.2,-0.1,0.0,0.06,-3.63,3.81,0.05,-0.0,-0.41,0.06,-0.37,0.12,267.03,269.0,0.0,0.0,0.0,0.0
1776357872147806389,3405,0.004,0.1,0.0,0.5,-0.1,-0.06,0.06,-3.63,3.81,0.07,0.14,-0.38,-0.06,0.69,-0.12,267.54,276.0,0.0,0.0,0.0,0.0
1776357872250231519,3506,0.0,0.8,0.0,0.8,-0.08,0.02,0.06,-3.63,3.81,0.0,0.08,-0.35,-0.25,0.37,-0.19,266.68,276.0,0.0,0.0,0.0,0.0
1776357872348536304,3606,0.0,0.0,0.0,0.8,0.0,0.0,0.06,-3.69,3.81,0.03,-0.19,-0.4,-0.0,0.06,0.0,266.51,275.0,0.0,0.0,0.0,0.0
1776357872446838589,3705,0.004,0.2,0.0,0.6,-0.06,-0.02,0.06,-3.69,3.81,0.05,0.04,-0.37,-0.0,-0.0,0.12,266.51,272.0,0.0,0.0,0.0,0.0
1776357872549246312,3805,0.0,0.0,0.0,1.2,-0.02,-0.14,0.06,-3.69,3.81,0.03,0.18,-0.38,0.06,-0.12,0.12,266.51,272.0,0.0,0.0,0.0,0.0
1776357872647545633,3905,0.0,0.4,0.0,0.9,-0.14,-0.2,0.06,-3.69,3.81,0.04,0.01,-0.38,-0.19,0.12,-0.12,266.51,270.0,0.0,0.0,0.0,0.0
1776357872749943671,4004,0.0,0.2,0.0,0.6,-0.04,-0.08,0.06,-3.69,3.81,0.03,-0.04,-0.38,0.12,0.44,-0.12,266.51,275.0,0.0,0.0,0.0,0.0
1776357872848248974,4105,0.0,0.9,0.0,0.5,-0.04,-0.14,0.06,-3.69,3.81,0.04,-0.0,-0.36,-0.06,-0.06,0.0,267.71,275.0,0.0,0.0,0.0,0.0
1776357872946521684,4205,0.0,0.5,0.0,1.1,-0.18,-0.08,0.06,-3.69,3.81,0.02,0.05,-0.38,-0.06,-0.25,0.12,266.51,277.0,0.0,0.0,0.0,0.0
1776357873048949548,4304,0.004,0.3,0.0,0.7,-0.06,0.08,0.06,-3.69,3.81,0.0,0.06,-0.38,-0.0,0.37,0.0,267.71,277.0,0.0,0.0,0.0,0.0
1776357873147276239,4404,0.0,0.4,0.0,0.8,0.0,-0.14,0.06,-3.69,3.81,0.05,-0.0,-0.4,0.06,0.12,0.0,270.63,273.0,0.0,0.0,0.0,0.0
1776357873249654013,4505,0.0,0.4,0.0,1.0,0.0,0.0,0.06,-3.69,3.81,0.02,-0.02,-0.4,-0.0,0.06,0.06,270.8,273.0,0.0,0.0,0.0,0.0
1776357873347962611,4604,0.0,0.1,0.0,1.1,-0.02,0.0,0.06,-3.69,3.81,0.03,0.01,-0.4,0.19,-0.06,0.0,270.8,273.0,0.0,0.0,0.0,0.0
1776357873450347441,4704,0.004,0.2,0.0,1.1,0.04,-0.12,0.06,-3.69,3.81,0.01,0.05,-0.37,0.06,-0.19,0.06,270.63,273.0,0.0,0.0,0.0,0.0
1776357873548659261,4805,0.0,0.3,0.0,1.0,-0.02,-0.12,0.06,-3.69,3.81,0.04,0.06,-0.41,-0.0,-0.0,0.0,267.54,270.0,0.0,0.0,0.0,0.0
1776357873646956433,4904,0.004,0.2,0.0,0.7,-0.02,0.0,0.06,-3.69,3.81,0.03,0.01,-0.39,-0.12,-0.06,0.0,267.71,270.0,0.0,0.0,0.0,0.0
1776357873749369708,5004,0.0,0.5,0.0,1.0,0.14,-0.1,0.06,-3.69,3.81,0.02,0.02,-0.36,0.06,-0.25,0.12,271.66,276.0,0.0,0.0,0.0,0.0
1776357873847671324,5104,0.0,0.1,0.0,0.7,-0.1,0.0,0.06,-3.69,3.81,0.04,0.02,-0.38,-0.06,-0.0,-0.06,270.63,274.0,0.0,0.0,0.0,0.0
1776357873945960162,5203,0.0,0.5,0.0,0.6,-0.18,-0.14,0.06,-3.69,3.81,0.02,0.04,-0.37,-0.12,0.12,0.0,267.71,274.0,0.0,0.0,0.0,0.0
1776357874048341374,5303,0.0,1.1,0.0,0.7,0.04,-0.06,0.06,-3.69,3.81,0.01,0.02,-0.38,0.06,0.25,0.06,267.54,273.0,0.0,0.0,0.0,0.0
1776357874146656119,5403,0.0,0.4,0.0,1.0,-0.12,-0.08,0.06,-3.69,3.81,0.01,0.01,-0.37,-0.0,-0.06,0.0,270.8,273.0,0.0,0.0,0.0,0.0
1776357874244952196,5502,0.0,0.3,0.0,1.1,-0.12,0.02,0.06,-3.69,3.81,0.02,0.01,-0.4,0.12,-0.19,0.06,271.83,273.0,0.0,0.0,0.0,0.0
1776357874347371988,5602,0.004,0.3,0.0,0.5,-0.1,-0.06,0.06,-3.69,3.81,0.04,0.04,-0.36,0.06,-0.06,0.19,266.51,276.0,0.0,0.0,0.0,0.0
1776357874445674824,5702,0.0,0.3,0.0,1.1,-0.02,-0.06,0.06,-3.69,3.81,0.01,0.03,-0.41,-0.19,-0.0,-0.06,266.51,276.0,0.0,0.0,0.0,0.0
1776357874548085856,5801,0.0,0.3,0.0,0.1,-0.06,0.08,0.06,-3.69,3.81,0.02,-0.01,-0.35,-0.06,0.19,0.06,271.66,273.0,0.0,0.0,0.0,0.0
1776357874646416083,5902,0.0,0.9,0.0,0.1,-0.02,-0.14,0.06,-3.69,3.81,0.01,0.02,-0.4,-0.06,0.06,0.0,271.66,277.0,0.0,0.0,0.0,0.0
1776357874744691326,6001,0.0,0.1,0.0,0.7,-0.04,-0.08,0.06,-3.69,3.81,0.01,0.03,-0.41,-0.06,-0.25,0.06,271.83,277.0,0.0,0.0,0.0,0.0
1776357874847089784,6102,0.004,0.0,0.0,0.5,0.0,0.0,0.06,-3.69,3.81,0.05,0.03,-0.38,-0.12,-0.0,-0.12,266.51,274.0,0.0,0.0,0.0,0.0
1776357874945367897,6202,0.0,0.3,0.0,0.2,-0.02,-0.04,0.06,-3.69,3.81,0.01,0.02,-0.4,-0.06,0.12,0.0,266.51,271.0,0.0,0.0,0.0,0.0
1776357875047761365,6301,0.004,0.1,0.0,0.4,0.04,-0.18,0.06,-3.69,3.81,0.02,-0.02,-0.37,-0.0,0.19,-0.06,270.8,271.0,0.0,0.0,0.0,0.0
1776357875146099497,6401,0.004,0.2,0.0,1.3,-0.04,0.0,0.06,-3.69,3.81,0.04,0.04,-0.38,-0.0,-0.06,-0.06,270.63,276.0,0.0,0.0,0.0,0.0
1776357875248524398,6502,0.0,0.0,0.0,0.6,-0.06,-0.08,0.06,-3.69,3.81,0.05,0.04,-0.39,0.12,-0.19,0.0,270.63,276.0,0.0,0.0,0.0,0.0
1776357875346791399,6602,0.0,0.3,0.0,0.9,-0.23,-0.14,0.06,-3.69,3.81,0.04,-0.0,-0.37,-0.0,-0.0,-0.12,270.63,273.0,0.0,0.0,0.0,0.0
1776357875449209726,6702,0.004,0.3,0.0,0.8,-0.1,0.04,0.06,-3.69,3.81,0.05,0.04,-0.39,-0.0,0.19,-0.06,271.83,276.0,0.0,0.0,0.0,0.0
1776357875547481930,6802,0.0,0.4,0.0,0.3,-0.14,0.0,0.06,-3.69,3.81,0.02,-0.0,-0.37,0.06,-0.19,0.12,266.51,276.0,0.0,0.0,0.0,0.0
1776357875645811896,6901,0.0,0.5,0.0,1.1,-0.12,-0.02,0.06,-3.69,3.81,0.02,-0.0,-0.37,-0.06,-0.06,0.12,266.51,274.0,0.0,0.0,0.0,0.0
1776357875748232297,7001,0.0,0.3,0.0,0.1,0.02,0.0,0.06,-3.69,3.81,0.04,0.07,-0.38,0.12,-0.0,-0.12,266.51,276.0,0.0,0.0,0.0,0.0
1776357875846500353,7102,0.0,0.2,0.0,0.6,-0.06,-0.1,0.06,-3.69,3.81,0.03,0.04,-0.38,-0.12,0.06,-0.12,266.51,276.0,0.0,0.0,0.0,0.0
1776357875948905031,7202,0.0,0.2,0.0,1.1,0.06,0.0,0.06,-3.69,3.81,0.03,-0.01,-0.4,0.06,0.12,-0.12,266.51,277.0,0.0,0.0,0.0,0.0
1776357876051311294,7303,0.0,0.1,0.0,0.5,0.04,0.04,0.06,-3.69,3.81,0.03,0.03,-0.38,0.06,-0.06,0.0,267.54,268.0,0.0,0.0,0.0,0.0
1776357876149564978,7404,0.0,0.4,0.0,0.7,-0.04,-0.08,0.06,-3.69,3.81,0.03,0.05,-0.4,-0.06,-0.12,0.06,267.54,268.0,0.0,0.0,0.0,0.0
1776357876258067740,7504,0.0,0.3,0.0,0.7,-0.08,-0.04,0.06,-3.69,3.81,0.03,0.01,-0.4,-0.0,0.12,-0.06,271.83,274.0,0.0,0.0,0.0,0.0
1776357876350321471,7604,0.0,0.1,0.0,0.5,0.02,0.02,0.06,-3.69,3.81,0.02,0.04,-0.42,0.12,0.12,-0.25,266.51,274.0,0.0,0.0,0.0,0.0
1776357876448577693,7705,0.0,0.4,0.0,1.1,0.0,0.0,0.06,-3.69,3.81,0.03,-0.0,-0.35,0.06,-0.0,-0.06,266.51,274.0,0.0,0.0,0.0,0.0
1776357876551010481,7804,0.004,0.0,0.0,1.2,-0.14,-0.02,0.06,-3.69,3.81,0.04,-0.02,-0.39,0.06,-0.06,0.0,266.51,276.0,0.0,0.0,0.0,0.0
1776357876653414454,7905,0.0,0.2,0.0,0.3,-0.18,-0.02,0.06,-3.69,3.81,0.02,0.03,-0.4,-0.0,0.06,-0.06,266.51,276.0,0.0,0.0,0.0,0.0
1776357876751690713,8006,0.0,0.8,0.0,0.5,-0.04,0.06,0.06,-3.69,3.81,0.03,0.05,-0.38,-0.0,0.06,-0.06,267.54,274.0,0.0,0.0,0.0,0.0
1776357876854107482,8107,0.004,0.4,0.0,1.2,0.08,0.06,0.06,-3.69,3.81,0.03,-0.0,-0.39,-0.0,-0.0,-0.06,267.54,275.0,0.0,0.0,0.0,0.0
1776357876952413594,8207,0.0,1.0,0.0,0.3,0.12,0.1,0.06,-3.69,3.81,0.01,-0.02,-0.39,0.12,0.12,-0.12,267.54,275.0,0.0,0.0,0.0,0.0
1776357877054806186,8307,0.0,0.1,0.0,0.2,0.14,-0.14,0.06,-3.69,3.81,0.01,0.04,-0.37,-0.0,-0.06,0.06,266.51,273.0,0.0,0.0,0.0,0.0
1776357877163132866,8408,0.0,0.3,0.0,1.0,0.02,-0.14,0.06,-3.69,3.81,0.02,0.02,-0.39,-0.0,0.12,0.06,266.51,275.0,0.0,0.0,0.0,0.0
1776357877255512879,8509,0.0,0.3,0.0,1.0,0.02,0.04,0.06,-3.69,3.81,0.02,-0.0,-0.39,0.06,0.06,-0.12,267.54,275.0,0.0,0.0,0.0,0.0
1776357877353790601,8609,0.004,0.1,0.0,0.6,-0.1,0.0,0.06,-3.69,3.81,0.03,0.03,-0.38,-0.12,0.12,0.0,267.54,276.0,0.0,0.0,0.0,0.0
1776357877456229036,8709,0.0,0.6,0.0,0.5,-0.14,-0.04,0.06,-3.69,3.81,0.04,-0.0,-0.37,-0.06,-0.06,0.06,265.31,277.0,0.0,0.0,0.0,0.0
1776357877554490497,8809,0.004,0.2,0.0,0.2,-0.02,-0.04,0.06,-3.69,3.81,0.03,0.03,-0.39,0.06,-0.06,-0.06,266.68,277.0,0.0,0.0,0.0,0.0
1776357877656944136,8909,0.004,0.4,0.0,1.1,0.06,-0.04,0.06,-3.69,3.81,0.02,0.09,-0.37,-0.12,0.06,0.0,266.51,279.0,0.0,0.0,0.0,0.0
1776357877755231210,9009,0.0,0.3,0.0,0.5,0.04,-0.1,0.06,-3.69,3.81,0.03,-0.01,-0.37,-0.12,-0.0,0.0,267.54,279.0,0.0,0.0,0.0,0.0
1776357877857602143,9110,0.0,0.7,0.0,0.4,-0.08,-0.08,0.06,-3.69,3.81,0.02,-0.05,-0.4,-0.12,0.06,-0.06,266.51,277.0,0.0,0.0,0.0,0.0
1776357877955999757,9209,0.0,0.1,0.0,1.1,-0.02,0.08,0.06,-3.69,3.81,0.01,0.06,-0.41,-0.0,-0.12,0.12,267.71,273.0,0.0,0.0,0.0,0.0
1776357878058302384,9310,0.0,0.3,0.0,0.5,-0.02,0.0,0.06,-3.69,3.81,0.03,0.1,-0.4,-0.0,-0.5,0.25,267.71,273.0,0.0,0.0,0.0,0.0
1776357878156636700,9410,0.0,0.9,0.0,1.0,0.02,-0.06,0.06,-3.69,3.81,0.03,0.01,-0.42,0.12,0.37,-0.12,270.8,274.0,0.0,0.0,0.0,0.0
1776357878254926718,9509,0.0,0.4,0.0,1.2,0.04,-0.06,0.06,-3.69,3.81,0.01,0.01,-0.4,0.06,0.06,-0.12,271.83,273.0,0.0,0.0,0.0,0.0
1776357878357342910,9609,0.0,0.0,0.0,1.2,-0.04,0.02,0.06,-3.69,3.81,0.0,-0.03,-0.41,0.06,-0.25,0.19,270.8,273.0,0.0,0.0,0.0,0.0
1776357878455640946,9709,0.0,0.6,0.0,0.6,-0.04,0.0,0.06,-3.69,3.81,0.04,0.01,-0.4,-0.0,-0.25,0.25,266.68,274.0,0.0,0.0,0.0,0.0
1776357878553903556,9808,0.0,0.5,0.0,0.3,-0.06,-0.04,0.06,-3.69,3.81,0.0,0.06,-0.41,0.06,-0.37,0.06,267.71,275.0,0.0,0.0,0.0,0.0
1776357878656349527,9909,0.004,0.3,0.0,1.3,-0.14,-0.08,0.06,-3.69,3.81,0.03,0.06,-0.41,0.06,-0.19,0.06,271.83,275.0,0.0,0.0,0.0,0.0
1776357878758761478,10009,0.0,0.2,0.0,0.1,0.04,-0.02,0.06,-3.69,3.81,0.03,-0.0,-0.41,-0.06,-0.06,0.0,270.11,275.0,0.0,0.0,0.0,0.0
1776357878857046403,10109,0.0,0.6,0.0,0.7,0.14,-0.02,0.06,-3.69,3.81,0.03,0.02,-0.38,0.06,-0.25,0.19,270.28,272.0,0.0,0.0,0.0,0.0
1776357878959421279,10210,0.0,0.7,0.0,1.1,-0.12,0.0,0.06,-3.69,3.81,0.03,0.04,-0.39,0.06,-0.12,0.06,271.31,272.0,0.0,0.0,0.0,0.0
1776357879057746901,10311,0.004,0.1,0.0,0.9,-0.06,0.1,0.06,-3.69,3.81,0.01,0.04,-0.39,-0.0,-0.12,0.0,270.28,275.0,0.0,0.0,0.0,0.0
1776357879160205890,10411,0.0,0.9,0.004,0.1,0.02,0.02,0.06,-3.69,3.81,0.03,0.03,-0.4,-0.0,0.19,0.0,270.28,275.0,0.0,0.0,0.0,0.0
1776357879258455814,10511,0.0,0.1,0.0,1.1,-0.08,-0.02,0.06,-3.69,3.81,0.0,-0.0,-0.42,-0.0,-0.06,0.0,270.28,271.0,0.0,0.0,0.0,0.0
1776357879356708294,10611,0.004,0.5,0.0,0.3,0.1,-0.12,0.06,-3.69,3.81,0.07,0.01,-0.41,0.12,-0.06,0.19,270.8,279.0,0.0,0.0,0.0,0.0
1776357879459162245,10711,0.0,0.2,0.0,0.5,-0.12,-0.06,0.06,-3.69,3.81,0.03,0.04,-0.4,0.06,0.06,0.12,270.8,279.0,0.0,0.0,0.0,0.0
1776357879557467096,10811,0.004,0.2,0.0,1.2,-0.04,-0.08,0.06,-3.69,3.81,0.04,0.02,-0.39,-0.12,0.19,0.06,275.94,277.0,0.0,0.0,0.0,0.0
1776357879659868213,10910,0.0,0.2,0.0,1.1,-0.1,-0.06,0.06,-3.69,3.81,0.06,-0.01,-0.4,0.12,0.12,0.06,271.83,277.0,0.0,0.0,0.0,0.0
1776357879758168231,11010,0.0,0.0,0.0,1.2,-0.02,-0.12,0.06,-3.69,3.81,0.01,-0.0,-0.39,-0.06,-0.06,-0.06,271.83,277.0,0.0,0.0,0.0,0.0
1776357879856432137,11110,0.004,0.2,0.0,0.3,-0.02,-0.12,0.06,-3.69,3.81,0.05,0.02,-0.39,-0.0,-0.06,0.0,271.83,274.0,0.0,0.0,0.0,0.0
1776357879958879514,11209,0.0,0.1,0.0,0.9,-0.12,-0.04,0.06,-3.69,3.81,0.04,0.03,-0.39,-0.12,-0.0,-0.06,270.8,274.0,0.0,0.0,0.0,0.0
1776357880057166652,11309,0.008,0.5,0.0,0.8,-0.12,-0.06,0.06,-3.69,3.81,0.03,-0.01,-0.41,-0.06,0.06,-0.06,270.8,275.0,0.0,0.0,0.0,0.0
1776357880155450503,11409,0.0,0.2,0.0,0.8,-0.02,0.02,0.06,-3.69,3.81,0.01,0.01,-0.39,-0.06,-0.25,0.06,270.8,273.0,0.0,0.0,0.0,0.0
1776357880257874101,11508,0.004,0.4,0.0,0.8,0.08,-0.14,0.06,-3.69,3.81,0.05,0.01,-0.4,-0.06,-0.06,0.19,270.8,273.0,0.0,0.0,0.0,0.0
1776357880356181730,11608,0.0,0.1,0.0,0.6,0.0,-0.08,0.06,-3.69,3.81,0.02,0.02,-0.37,0.12,0.06,-0.06,266.68,271.0,0.0,0.0,0.0,0.0
1776357880454440154,11708,0.0,0.1,0.0,0.3,0.06,0.02,0.06,-3.69,3.81,0.03,0.02,-0.38,-0.0,0.12,-0.12,267.54,272.0,0.0,0.0,0.0,0.0
1776357880556847122,11807,0.0,0.1,0.0,0.6,-0.08,0.04,0.06,-3.69,3.81,0.02,-0.01,-0.37,-0.12,0.06,-0.06,266.51,272.0,0.0,0.0,0.0,0.0
1776357880655194642,11907,0.0,0.6,0.0,0.3,0.04,-0.18,0.06,-3.69,3.81,0.01,-0.01,-0.35,-0.06,0.12,0.0,267.71,273.0,0.0,0.0,0.0,0.0
1776357880757588869,12007,0.0,0.1,0.0,0.2,-0.02,-0.06,0.06,-3.69,3.81,0.02,0.03,-0.39,0.06,-0.06,0.06,267.71,271.0,0.0,0.0,0.0,0.0
1776357880855892628,12106,0.0,0.4,0.0,0.9,-0.06,0.08,0.06,-3.69,3.81,0.02,-0.0,-0.38,-0.06,-0.06,0.06,266.51,271.0,0.0,0.0,0.0,0.0
1776357880954190127,12206,0.004,0.3,0.0,0.3,0.04,0.0,0.06,-3.69,3.81,0.04,-0.0,-0.37,-0.0,-0.0,0.0,266.51,274.0,0.0,0.0,0.0,0.0
1776357881052425747,12306,0.0,1.1,0.0,0.4,0.0,-0.08,0.06,-3.69,3.81,0.02,0.02,-0.38,0.12,-0.19,0.0,266.51,272.0,0.0,0.0,0.0,0.0
1776357881154907568,12405,0.0,0.0,0.0,1.1,0.06,-0.1,0.06,-3.69,3.81,0.02,0.01,-0.39,0.06,-0.19,-0.06,271.83,272.0,0.0,0.0,0.0,0.0
1776357881253191308,12505,0.0,0.2,0.0,1.0,0.0,0.0,0.06,-3.69,3.81,0.03,-0.0,-0.41,-0.0,-0.12,0.06,270.63,271.0,0.0,0.0,0.0,0.0
1776357881355565331,12605,0.0,1.0,0.0,0.7,0.12,0.0,0.06,-3.69,3.81,0.02,0.01,-0.38,-0.06,-0.0,-0.06,270.63,271.0,0.0,0.0,0.0,0.0
1776357881453900202,12705,0.004,0.2,0.0,1.0,-0.02,0.0,0.06,-3.69,3.81,0.01,0.03,-0.39,0.06,0.19,-0.06,270.63,273.0,0.0,0.0,0.0,0.0
1776357881556300503,12805,0.0,0.3,0.0,0.8,0.04,-0.06,0.06,-3.69,3.81,0.02,0.01,-0.39,0.19,-0.06,-0.06,270.8,274.0,0.0,0.0,0.0,0.0
1776357881654635134,12906,0.0,0.2,0.0,0.3,-0.02,-0.04,0.06,-3.69,3.81,0.01,0.03,-0.36,-0.06,-0.0,-0.06,270.8,274.0,0.0,0.0,0.0,0.0
1776357881757019675,13005,0.0,0.4,0.0,0.5,0.02,-0.06,0.06,-3.69,3.81,0.04,0.01,-0.38,-0.12,-0.0,-0.06,270.11,274.0,0.0,0.0,0.0,0.0
1776357881855306749,13106,0.0,0.3,0.0,0.7,0.06,-0.04,0.06,-3.69,3.81,0.04,0.01,-0.38,-0.0,-0.19,0.0,271.66,274.0,0.0,0.0,0.0,0.0
1776357881957719809,13207,0.0,1.1,0.0,0.5,0.04,0.0,0.06,-3.69,3.81,0.01,-0.01,-0.41,-0.12,-0.12,0.06,270.8,274.0,0.0,0.0,0.0,0.0
1776357882055996207,13306,0.004,0.2,0.0,0.6,-0.02,0.02,0.06,-3.69,3.81,0.05,0.01,-0.36,0.19,-0.12,-0.12,270.63,269.0,0.0,0.0,0.0,0.0
1776357882164447363,13406,0.0,0.5,0.0,1.0,0.08,0.0,0.06,-3.69,3.81,0.02,-0.0,-0.4,-0.12,0.19,0.06,271.83,269.0,0.0,0.0,0.0,0.0
1776357882256742955,13506,0.008,0.0,0.0,0.6,-0.04,-0.06,0.06,-3.69,3.81,0.05,0.01,-0.39,0.06,0.12,0.0,270.63,276.0,0.0,0.0,0.0,0.0
1776357882355010417,13606,0.0,0.1,0.0,1.0,0.0,0.04,0.06,-3.69,3.81,0.04,0.01,-0.37,-0.06,-0.06,0.0,275.94,271.0,0.0,0.0,0.0,0.0
1776357882457422237,13706,0.0,0.1,0.0,0.9,-0.08,-0.02,0.06,-3.69,3.81,0.01,0.03,-0.37,0.12,-0.06,0.0,275.94,271.0,0.0,0.0,0.0,0.0
1776357882555703089,13806,0.0,0.3,0.0,0.3,-0.12,0.06,0.06,-3.69,3.81,0.03,0.01,-0.36,-0.19,-0.12,-0.06,275.94,272.0,0.0,0.0,0.0,0.0
1776357882664203154,13906,0.0,0.7,0.0,1.0,-0.08,-0.02,0.06,-3.69,3.81,0.02,0.03,-0.38,-0.19,-0.0,0.06,270.8,275.0,0.0,0.0,0.0,0.0
1776357882756432836,14006,0.004,0.3,0.0,1.2,-0.1,0.02,0.06,-3.69,3.81,0.03,0.02,-0.36,-0.12,-0.0,-0.06,271.66,275.0,0.0,0.0,0.0,0.0
1776357882858849526,14107,0.0,0.0,0.0,1.0,0.23,-0.06,0.06,-3.69,3.81,0.0,0.01,-0.37,-0.06,0.06,0.06,270.8,274.0,0.0,0.0,0.0,0.0
1776357882961447906,14208,0.0,0.3,0.0,1.2,0.06,-0.08,0.06,-3.69,3.81,0.03,0.03,-0.37,0.06,-0.06,-0.06,270.8,275.0,0.0,0.0,0.0,0.0
1776357883059520410,14309,0.0,0.3,0.0,0.8,-0.16,-0.02,0.06,-3.69,3.81,0.02,0.02,-0.36,0.06,-0.06,0.12,270.8,275.0,0.0,0.0,0.0,0.0
1776357883157811523,14409,0.0,0.5,0.0,1.2,0.0,0.06,0.06,-3.69,3.81,0.03,-0.0,-0.38,0.12,-0.0,0.0,270.8,276.0,0.0,0.0,0.0,0.0
1776357883260192657,14509,0.004,0.1,0.0,0.8,0.08,-0.08,0.06,-3.69,3.81,0.03,0.01,-0.36,-0.12,0.06,0.0,271.83,271.0,0.0,0.0,0.0,0.0
1776357883358487047,14609,0.0,0.4,0.0,0.5,-0.06,-0.16,0.06,-3.69,3.81,0.05,0.05,-0.39,-0.0,0.19,0.06,267.71,271.0,0.0,0.0,0.0,0.0
1776357883460954294,14709,0.004,0.4,0.0,0.4,-0.1,0.04,0.06,-3.69,3.81,0.04,0.01,-0.38,-0.06,-0.0,0.0,271.83,272.0,0.0,0.0,0.0,0.0
1776357883559241333,14809,0.0,0.0,0.0,1.0,0.04,-0.18,0.06,-3.69,3.81,0.02,0.03,-0.35,-0.06,0.06,0.0,267.54,272.0,0.0,0.0,0.0,0.0
1776357883657499463,14909,0.0,0.3,0.0,0.5,-0.02,-0.02,0.06,-3.69,3.81,0.03,0.01,-0.38,0.06,-0.06,-0.12,270.8,272.0,0.0,0.0,0.0,0.0
1776357883759907338,15008,0.0,0.4,0.0,0.8,0.02,0.08,0.06,-3.69,3.81,0.01,-0.0,-0.39,-0.0,-0.37,-0.06,270.8,275.0,0.0,0.0,0.0,0.0
1776357883858231859,15108,0.0,0.2,0.0,1.0,-0.02,-0.06,0.06,-3.69,3.81,0.04,0.05,-0.38,-0.0,-0.0,-0.12,271.83,275.0,0.0,0.0,0.0,0.0
1776357883960648623,15209,0.0,0.5,0.0,1.0,-0.1,0.04,0.06,-3.69,3.81,0.06,0.05,-0.36,-0.06,0.06,-0.12,270.8,271.0,0.0,0.0,0.0,0.0
1776357884058938599,15308,0.0,0.1,0.0,0.9,0.0,-0.06,0.06,-3.69,3.81,0.01,0.02,-0.35,-0.12,0.19,-0.19,270.63,274.0,0.0,0.0,0.0,0.0
1776357884161299622,15409,0.0,1.0,0.0,0.2,-0.18,-0.08,0.06,-3.69,3.81,0.03,-0.0,-0.4,-0.0,0.12,0.0,270.63,274.0,0.0,0.0,0.0,0.0
1776357884259635700,15509,0.0,1.0,0.0,0.8,0.08,-0.1,0.06,-3.69,3.81,0.04,-0.0,-0.39,0.06,-0.19,-0.06,270.11,276.0,0.0,0.0,0.0,0.0
1776357884362107781,15609,0.0,0.2,0.0,0.9,0.12,-0.02,0.06,-3.69,3.81,0.0,-0.0,-0.4,-0.19,-0.0,0.37,270.11,278.0,0.0,0.0,0.0,0.0
1776357884460355931,15710,0.0,0.2,0.0,0.3,0.02,0.06,0.06,-3.69,3.81,0.01,-0.1,-0.39,-0.0,0.75,-0.25,270.11,278.0,0.0,0.0,0.0,0.0
1776357884562746917,15810,0.0,-0.3,0.0,0.9,0.0,-0.06,0.06,-3.69,3.81,0.01,0.04,-0.35,0.19,-0.44,0.25,270.11,272.0,0.0,0.0,0.0,0.0
1776357884661050494,15909,0.004,0.3,0.004,0.6,-0.02,-0.08,0.06,-3.69,3.81,0.01,-0.04,-0.4,-0.0,0.19,0.06,271.14,272.0,0.0,0.0,0.0,0.0
1776357884763440833,16010,0.004,0.1,0.0,0.8,0.06,-0.04,0.06,-3.69,3.81,0.01,0.08,-0.36,-0.0,0.25,0.06,270.11,274.0,0.0,0.0,0.0,0.0
1776357884861747521,16111,0.004,0.4,0.0,0.9,0.0,-0.08,0.06,-3.69,3.81,0.01,0.1,-0.38,-0.0,-0.0,0.06,270.8,275.0,0.0,0.0,0.0,0.0
1776357884960055042,16210,0.0,0.3,0.0,0.5,0.02,-0.12,0.06,-3.69,3.81,0.03,-0.02,-0.37,-0.0,0.12,-0.06,270.11,275.0,0.0,0.0,0.0,0.0
1776357885062425130,16310,0.004,0.2,0.0,0.3,0.0,-0.04,0.06,-3.69,3.81,0.0,-0.0,-0.36,0.12,0.06,-0.19,270.11,274.0,0.0,0.0,0.0,0.0
1776357885160719561,16410,0.004,0.5,0.0,0.4,-0.04,0.06,0.06,-3.69,3.81,0.07,0.12,-0.38,0.12,-0.5,0.06,270.63,273.0,0.0,0.0,0.0,0.0
1776357885259025065,16509,0.0,0.3,0.0,0.3,0.0,0.0,0.06,-3.69,3.81,0.03,-0.04,-0.39,-0.06,0.25,0.06,270.63,273.0,0.0,0.0,0.0,0.0
1776357885361448646,16609,0.0,0.5,0.0,1.1,-0.1,0.08,0.06,-3.69,3.81,0.01,0.06,-0.38,-0.06,0.44,-0.31,270.8,275.0,0.0,0.0,0.0,0.0
1776357885459759965,16709,0.0,0.4,0.0,0.9,-0.06,-0.02,0.06,-3.69,3.81,0.03,0.07,-0.37,-0.06,-0.25,0.19,270.63,274.0,0.0,0.0,0.0,0.0
1776357885568135784,16808,0.0,0.3,0.0,0.8,0.04,-0.16,0.06,-3.69,3.81,0.02,-0.04,-0.39,0.12,0.06,0.06,270.63,274.0,0.0,0.0,0.0,0.0
1776357885660461124,16908,0.004,0.2,0.0,0.8,0.02,-0.12,0.06,-3.69,3.81,0.05,0.05,-0.39,-0.0,0.19,-0.06,266.51,279.0,0.0,0.0,0.0,0.0
1776357885758771073,17008,0.0,0.3,0.0,0.8,0.21,-0.06,0.06,-3.69,3.81,0.03,0.06,-0.36,0.12,0.06,0.06,266.51,279.0,0.0,0.0,0.0,0.0
1776357885861162023,17107,0.0,0.2,0.0,1.1,-0.06,0.02,0.06,-3.69,3.81,0.07,-0.0,-0.36,-0.0,0.06,0.06,271.83,275.0,0.0,0.0,0.0,0.0
1776357885959452120,17208,0.0,1.2,0.0,0.5,-0.04,0.0,0.06,-3.69,3.81,0.01,-0.01,-0.38,-0.12,0.06,-0.12,267.54,272.0,0.0,0.0,0.0,0.0
1776357886061848913,17308,0.004,0.3,0.0,0.7,0.08,-0.08,0.06,-3.69,3.81,0.02,0.04,-0.36,-0.0,-0.31,0.0,266.51,272.0,0.0,0.0,0.0,0.0
1776357886160143215,17408,0.0,0.4,0.0,0.7,-0.12,-0.02,0.06,-3.69,3.81,0.05,0.02,-0.36,-0.0,-0.12,0.0,270.63,274.0,0.0,0.0,0.0,0.0
1776357886258419443,17508,0.0,0.5,0.0,1.1,-0.08,-0.12,0.06,-3.69,3.81,0.05,0.02,-0.38,-0.06,0.25,-0.12,271.83,276.0,0.0,0.0,0.0,0.0
1776357886360875600,17607,0.0,0.3,0.0,0.6,-0.02,-0.02,0.06,-3.69,3.81,0.03,0.02,-0.38,-0.0,-0.0,0.12,270.8,276.0,0.0,0.0,0.0,0.0
1776357886459183088,17707,0.0,0.2,0.0,1.0,-0.14,-0.06,0.06,-3.69,3.81,0.11,0.07,-0.35,-0.06,-0.12,-0.06,271.83,273.0,0.0,0.0,0.0,0.0
1776357886561596003,17807,0.0,0.3,0.0,0.5,-0.08,-0.08,0.06,-3.69,3.81,0.05,-0.03,-0.4,-0.06,-0.25,0.0,274.91,275.0,0.0,0.0,0.0,0.0
1776357886659886324,17907,0.0,0.1,0.0,0.5,0.12,-0.02,0.06,-3.69,3.81,0.02,0.03,-0.39,-0.0,0.19,-0.06,275.94,275.0,0.0,0.0,0.0,0.0
1776357886762280220,18007,0.0,0.9,0.0,0.9,-0.02,-0.12,0.06,-3.69,3.81,0.02,0.08,-0.4,0.19,-0.12,0.12,275.94,273.0,0.0,0.0,0.0,0.0
1776357886860583226,18107,0.0,0.1,0.0,0.7,-0.08,-0.06,0.06,-3.69,3.81,0.02,0.01,-0.37,-0.0,-0.12,-0.06,275.26,273.0,0.0,0.0,0.0,0.0
1776357886958889232,18207,0.004,0.2,0.0,0.3,-0.21,-0.1,0.06,-3.69,3.81,0.03,0.02,-0.38,0.19,0.12,0.0,271.83,275.0,0.0,0.0,0.0,0.0
1776357887061256933,18307,0.004,0.2,0.0,0.8,-0.12,-0.1,0.06,-3.69,3.81,0.01,0.05,-0.38,-0.06,0.12,0.06,270.8,274.0,0.0,0.0,0.0,0.0
1776357887159583553,18407,0.0,0.4,0.0,0.1,-0.08,0.04,0.06,-3.69,3.81,0.05,0.05,-0.37,-0.0,0.12,-0.06,271.83,274.0,0.0,0.0,0.0,0.0
1776357887262007803,18508,0.0,0.4,0.0,1.0,0.04,-0.08,0.06,-3.69,3.81,0.03,0.01,-0.42,-0.19,0.06,-0.06,270.8,274.0,0.0,0.0,0.0,0.0
1776357887364382792,18609,0.0,0.2,0.0,1.0,-0.06,-0.06,0.06,-3.69,3.81,0.01,0.03,-0.39,-0.0,-0.06,-0.06,271.31,275.0,0.0,0.0,0.0,0.0
1776357887462698190,18710,0.0,0.4,0.0,0.8,0.06,-0.1,0.06,-3.69,3.81,0.02,0.01,-0.4,-0.12,-0.06,0.06,270.11,275.0,0.0,0.0,0.0,0.0
1776357887560983550,18809,0.0,0.2,0.0,0.3,0.06,-0.08,0.06,-3.69,3.81,0.02,-0.0,-0.38,-0.0,0.06,-0.12,270.11,270.0,0.0,0.0,0.0,0.0
1776357887663404411,18909,0.0,0.8,0.0,0.8,0.02,-0.1,0.06,-3.69,3.81,0.04,0.07,-0.36,0.06,-0.0,0.0,270.28,273.0,0.0,0.0,0.0,0.0
1776357887761743957,19010,0.004,0.3,0.0,1.1,-0.12,0.02,0.06,-3.69,3.81,0.02,0.01,-0.4,0.12,-0.31,0.12,270.28,273.0,0.0,0.0,0.0,0.0
1776357887864093094,19109,0.0,0.2,0.0,0.8,0.02,-0.12,0.06,-3.69,3.81,0.03,-0.01,-0.37,0.06,-0.0,-0.06,270.8,274.0,0.0,0.0,0.0,0.0
1776357887962374583,19209,0.0,0.6,0.0,0.7,-0.06,0.0,0.06,-3.69,3.81,0.03,0.05,-0.36,-0.0,-0.12,0.0,266.68,275.0,0.0,0.0,0.0,0.0
1776357888060730602,19309,0.0,0.3,0.0,0.1,-0.14,-0.08,0.06,-3.69,3.81,0.01,0.02,-0.38,0.06,-0.19,0.12,266.51,275.0,0.0,0.0,0.0,0.0
1776357888163098945,19408,0.0,0.2,0.0,1.0,-0.08,-0.02,0.06,-3.69,3.81,0.01,-0.01,-0.37,-0.06,0.12,-0.06,267.54,272.0,0.0,0.0,0.0,0.0
1776357888261406326,19508,0.0,0.3,0.0,0.8,-0.06,0.04,0.06,-3.69,3.81,0.02,0.05,-0.38,0.12,0.06,0.06,266.51,272.0,0.0,0.0,0.0,0.0
1776357888359676187,19608,0.0,0.0,0.0,0.9,-0.1,0.02,0.06,-3.69,3.81,0.02,0.05,-0.38,0.06,-0.37,0.19,270.8,272.0,0.0,0.0,0.0,0.0
1776357888462105310,19707,0.0,0.5,0.0,0.9,-0.08,0.02,0.06,-3.69,3.81,0.03,-0.0,-0.4,-0.0,0.12,0.0,271.83,276.0,0.0,0.0,0.0,0.0
1776357888560411005,19807,0.004,0.1,0.0,1.2,0.02,0.1,0.06,-3.69,3.81,0.01,0.1,-0.37,-0.12,0.5,-0.12,271.83,276.0,0.0,0.0,0.0,0.0
1776357888662854313,19907,0.0,0.2,0.0,1.3,0.0,-0.1,0.06,-3.69,3.81,0.01,-0.01,-0.4,0.12,-0.37,0.12,270.63,274.0,0.0,0.0,0.0,0.0
1776357888761110952,20006,0.0,0.3,0.0,1.0,-0.06,-0.2,0.06,-3.69,3.81,0.03,-0.0,-0.38,-0.0,0.19,-0.06,271.14,277.0,0.0,0.0,0.0,0.0
1776357888863511110,20107,0.0,0.2,0.0,0.3,-0.06,0.06,0.06,-3.69,3.81,0.05,0.1,-0.41,0.12,-0.31,0.06,276.11,277.0,0.0,0.0,0.0,0.0
1776357888961803010,20208,0.0,0.4,0.0,0.9,0.08,-0.06,0.06,-3.69,3.81,0.02,0.02,-0.39,0.06,-0.31,0.06,270.63,274.0,0.0,0.0,0.0,0.0
1776357889064218457,20307,0.0,0.3,0.0,1.0,-0.08,-0.06,0.06,-3.69,3.81,0.05,-0.01,-0.4,0.06,0.19,-0.12,274.74,275.0,0.0,0.0,0.0,0.0
1776357889162486024,20408,0.0,0.3,0.0,0.2,-0.04,-0.02,0.06,-3.69,3.81,0.01,0.03,-0.41,0.06,-0.06,-0.06,270.11,275.0,0.0,0.0,0.0,0.0
1776357889264940112,20508,0.0,0.4,0.0,1.0,-0.06,0.0,0.06,-3.69,3.81,0.06,0.03,-0.41,-0.12,-0.25,0.12,274.23,269.0,0.0,0.0,0.0,0.0
1776357889363217791,20609,0.0,1.0,0.0,0.6,-0.21,-0.06,0.06,-3.69,3.81,0.04,-0.01,-0.39,-0.06,0.19,0.0,270.11,269.0,0.0,0.0,0.0,0.0
1776357889461480099,20709,0.0,0.5,0.0,1.1,-0.06,-0.1,0.06,-3.69,3.81,0.04,0.05,-0.41,-0.12,0.12,0.06,270.63,273.0,0.0,0.0,0.0,0.0
1776357889563907760,20808,0.0,0.1,0.0,0.3,0.1,-0.12,0.06,-3.69,3.81,0.02,-0.0,-0.41,-0.06,-0.06,0.19,270.63,277.0,0.0,0.0,0.0,0.0
1776357889662232607,20908,0.0,0.5,0.0,0.7,-0.06,-0.14,0.06,-3.69,3.81,0.02,-0.0,-0.42,0.06,-0.0,-0.06,270.63,277.0,0.0,0.0,0.0,0.0
1776357889760503601,21008,0.0,0.0,0.0,0.9,-0.06,-0.04,0.06,-3.69,3.81,0.02,0.06,-0.37,-0.0,0.19,-0.12,270.63,269.0,0.0,0.0,0.0,0.0
1776357889862928003,21107,0.0,0.4,0.0,0.6,-0.06,-0.1,0.06,-3.69,3.81,0.01,0.06,-0.43,0.06,-0.0,-0.06,270.63,278.0,0.0,0.0,0.0,0.0
1776357889961207941,21207,0.0,0.7,0.0,0.6,-0.1,0.08,0.06,-3.69,3.81,0.02,0.04,-0.39,-0.0,0.12,0.19,271.83,278.0,0.0,0.0,0.0,0.0
1776357890063601668,21307,0.0,0.4,0.0,1.0,-0.08,-0.1,0.06,-3.69,3.81,0.06,-0.02,-0.4,-0.06,-0.0,-0.06,267.54,275.0,0.0,0.0,0.0,0.0
1776357890161902424,21407,0.004,0.3,0.0,0.9,0.02,-0.18,0.06,-3.69,3.81,0.03,0.05,-0.4,-0.06,0.06,0.0,271.83,269.0,0.0,0.0,0.0,0.0
1776357890264334662,21507,0.0,0.2,0.0,1.0,0.0,-0.02,0.06,-3.69,3.81,0.02,0.01,-0.4,-0.0,-0.12,0.0,266.51,269.0,0.0,0.0,0.0,0.0
1776357890362639011,21607,0.0,0.9,0.0,0.5,0.02,-0.1,0.06,-3.69,3.81,0.02,-0.0,-0.39,0.06,0.12,-0.19,271.66,276.0,0.0,0.0,0.0,0.0
1776357890460943656,21706,0.0,0.1,0.0,0.9,0.02,-0.04,0.06,-3.69,3.81,0.02,0.04,-0.36,0.06,-0.25,0.0,270.63,276.0,0.0,0.0,0.0,0.0
1776357890563337874,21806,0.0,1.0,0.0,0.7,0.0,-0.12,0.06,-3.69,3.81,0.05,-0.0,-0.35,0.12,-0.06,0.12,271.66,271.0,0.0,0.0,0.0,0.0
1776357890661644390,21906,0.0,0.9,0.0,0.9,0.16,0.04,0.06,-3.69,3.81,0.04,-0.0,-0.38,-0.19,0.12,0.06,271.66,272.0,0.0,0.0,0.0,0.0
1776357890759939721,22005,0.0,0.4,0.0,1.0,0.0,0.04,0.06,-3.69,3.81,0.02,0.03,-0.37,0.06,-0.0,0.0,270.63,272.0,0.0,0.0,0.0,0.0
1776357890862348661,22105,0.0,0.2,0.0,1.0,-0.08,-0.14,0.06,-3.69,3.81,0.02,-0.0,-0.38,-0.0,-0.19,0.0,267.54,274.0,0.0,0.0,0.0,0.0
1776357890960655289,22206,0.0,0.8,0.0,0.4,0.04,0.12,0.06,-3.69,3.81,0.01,-0.0,-0.4,-0.06,0.19,-0.12,267.71,272.0,0.0,0.0,0.0,0.0
1776357891063012552,22306,0.0,1.0,0.0,0.8,-0.1,-0.08,0.06,-3.69,3.81,0.0,-0.01,-0.39,-0.0,0.37,-0.19,267.54,272.0,0.0,0.0,0.0,0.0
1776357891161309719,22407,0.0,0.3,0.0,1.0,0.06,-0.16,0.06,-3.69,3.81,0.02,0.09,-0.35,-0.06,-0.19,0.19,266.68,276.0,0.0,0.0,0.0,0.0
1776357891263747959,22507,0.004,0.4,0.0,1.0,0.0,-0.1,0.06,-3.69,3.81,0.07,0.01,-0.36,0.19,-0.31,0.12,266.51,273.0,0.0,0.0,0.0,0.0
1776357891362061756,22606,0.004,0.5,0.0,0.5,-0.06,-0.1,0.06,-3.69,3.81,0.03,0.01,-0.37,-0.0,-0.0,0.06,267.54,273.0,0.0,0.0,0.0,0.0
1776357891464456698,22706,0.0,0.6,0.0,0.7,-0.1,-0.06,0.06,-3.69,3.81,0.04,0.06,-0.36,-0.06,-0.19,0.12,267.54,275.0,0.0,0.0,0.0,0.0
1776357891562763088,22806,0.0,0.3,0.0,0.3,0.0,0.02,0.06,-3.69,3.81,0.05,0.01,-0.37,-0.0,-0.06,0.06,267.54,275.0,0.0,0.0,0.0,0.0
1776357891661059125,22905,0.0,0.2,0.0,0.3,0.06,0.02,0.06,-3.69,3.81,0.02,0.01,-0.4,-0.0,-0.12,0.0,267.71,275.0,0.0,0.0,0.0,0.0
1776357891763455142,23005,0.0,0.7,0.0,1.0,-0.04,-0.08,0.06,-3.69,3.81,0.01,0.03,-0.38,0.06,-0.0,-0.12,270.63,271.0,0.0,0.0,0.0,0.0
1776357891861772680,23106,0.004,0.1,0.0,0.7,-0.04,-0.16,0.06,-3.69,3.81,0.0,0.01,-0.38,-0.0,-0.06,0.06,270.63,271.0,0.0,0.0,0.0,0.0
1776357891960008845,23205,0.0,0.6,0.0,0.3,0.06,-0.02,0.06,-3.69,3.81,0.06,0.01,-0.38,0.12,-0.06,-0.06,271.83,271.0,0.0,0.0,0.0,0.0
1776357892062457169,23306,0.0,0.4,0.0,1.0,-0.02,-0.06,0.06,-3.69,3.81,0.04,0.05,-0.38,0.06,-0.19,0.06,271.31,280.0,0.0,0.0,0.0,0.0
1776357892160771895,23406,0.0,0.2,0.0,0.2,0.04,-0.06,0.06,-3.69,3.81,0.03,0.01,-0.39,-0.0,-0.19,0.0,270.11,280.0,0.0,0.0,0.0,0.0
1776357892263200786,23505,0.0,0.4,0.0,0.5,0.02,-0.12,0.06,-3.69,3.81,0.04,0.03,-0.39,0.12,0.19,0.06,271.14,273.0,0.0,0.0,0.0,0.0
1776357892361477215,23605,0.0,0.2,0.0,1.0,0.1,-0.1,0.06,-3.69,3.81,0.02,0.01,-0.36,-0.0,-0.06,0.06,274.74,274.0,0.0,0.0,0.0,0.0
1776357892459766663,23705,0.0,0.0,0.0,0.6,0.04,0.02,0.06,-3.69,3.81,0.05,-0.0,-0.38,-0.06,-0.12,0.12,274.74,274.0,0.0,0.0,0.0,0.0
1776357892562171645,23804,0.004,0.0,0.0,0.8,-0.1,0.02,0.06,-3.69,3.81,0.05,0.01,-0.39,-0.0,0.12,0.0,275.94,275.0,0.0,0.0,0.0,0.0
1776357892660535465,23904,0.004,0.3,0.0,0.7,-0.02,-0.1,0.06,-3.69,3.81,0.02,-0.0,-0.38,-0.0,-0.0,0.0,273.2,276.0,0.0,0.0,0.0,0.0
1776357892758724651,24004,0.004,0.4,0.0,0.5,0.0,-0.16,0.06,-3.69,3.81,0.04,-0.0,-0.37,-0.0,-0.06,0.0,274.91,276.0,0.0,0.0,0.0,0.0
1776357892861175968,24103,0.0,0.4,0.0,0.5,-0.14,-0.08,0.06,-3.69,3.81,0.04,0.04,-0.38,0.06,0.06,-0.06,270.8,272.0,0.0,0.0,0.0,0.0
1776357892959489287,24203,0.0,0.9,0.0,0.7,0.08,-0.08,0.06,-3.69,3.81,0.03,0.06,-0.38,-0.06,0.19,0.06,271.31,272.0,0.0,0.0,0.0,0.0
1776357893061843596,24303,0.004,0.2,0.0,1.0,0.02,-0.14,0.06,-3.69,3.81,0.0,0.01,-0.39,-0.0,-0.12,0.12,271.31,276.0,0.0,0.0,0.0,0.0
1776357893160149140,24402,0.0,0.6,0.0,0.8,0.02,-0.08,0.06,-3.69,3.81,0.05,-0.03,-0.37,0.06,0.25,-0.12,271.31,278.0,0.0,0.0,0.0,0.0
1776357893258466129,24502,0.004,0.2,0.0,0.8,0.02,-0.16,0.06,-3.69,3.81,0.01,0.06,-0.38,-0.12,-0.12,0.0,270.8,278.0,0.0,0.0,0.0,0.0
1776357893360885189,24603,0.0,1.0,0.0,0.6,-0.06,-0.08,0.06,-3.69,3.81,0.02,-0.01,-0.35,-0.12,0.25,-0.12,270.8,273.0,0.0,0.0,0.0,0.0
1776357893469347574,24704,0.004,0.0,0.0,0.6,0.02,-0.08,0.06,-3.69,3.81,0.02,0.01,-0.39,-0.0,0.31,-0.12,270.63,275.0,0.0,0.0,0.0,0.0
1776357893561586237,24804,0.0,0.5,0.0,1.1,0.06,-0.02,0.06,-3.69,3.81,0.02,0.03,-0.41,-0.0,-0.06,0.12,270.8,275.0,0.0,0.0,0.0,0.0
1776357893659882429,24904,0.0,0.3,0.0,0.6,0.18,0.06,0.06,-3.69,3.81,0.02,-0.01,-0.38,-0.12,0.25,0.06,270.8,269.0,0.0,0.0,0.0,0.0
1776357893762321582,25004,0.0,0.2,0.0,1.1,-0.06,0.06,0.06,-3.69,3.81,0.0,0.04,-0.39,0.06,0.06,-0.06,274.91,269.0,0.0,0.0,0.0,0.0
1776357893860582700,25104,0.0,0.1,0.0,0.3,-0.02,-0.2,0.06,-3.69,3.81,0.04,0.04,-0.38,0.06,0.06,-0.06,270.8,274.0,0.0,0.0,0.0,0.0
1776357893962998167,25204,0.0,0.3,0.0,1.0,-0.02,-0.06,0.06,-3.69,3.81,0.03,-0.0,-0.37,0.06,-0.12,0.19,270.8,273.0,0.0,0.0,0.0,0.0
1776357894061291092,25305,0.0,0.3,0.0,1.2,0.02,0.0,0.06,-3.69,3.81,0.05,0.03,-0.37,0.12,0.06,-0.06,270.11,273.0,0.0,0.0,0.0,0.0
1776357894163697432,25405,0.004,0.3,0.0,0.8,-0.02,-0.12,0.06,-3.69,3.81,0.04,0.02,-0.37,0.06,-0.06,0.19,270.11,279.0,0.0,0.0,0.0,0.0
1776357894262017277,25504,0.004,0.2,0.0,1.0,-0.06,0.1,0.06,-3.69,3.81,0.04,-0.01,-0.39,0.06,0.19,-0.06,271.31,269.0,0.0,0.0,0.0,0.0
1776357894364396321,25605,0.0,1.0,0.008,0.3,0.08,-0.04,0.06,-3.69,3.81,0.03,0.05,-0.37,0.06,-0.19,-0.06,271.31,269.0,0.0,0.0,0.0,0.0
1776357894462699554,25705,0.0,0.3,0.0,0.7,0.02,0.06,0.06,-3.69,3.81,0.03,-0.0,-0.38,-0.12,0.06,0.06,270.11,274.0,0.0,0.0,0.0,0.0
1776357894560993898,25804,0.0,0.4,0.0,0.9,0.06,-0.02,0.06,-3.69,3.81,0.05,-0.0,-0.39,-0.12,0.12,-0.12,271.14,277.0,0.0,0.0,0.0,0.0
1776357894663408405,25905,0.0,0.2,0.0,0.2,-0.08,-0.2,0.06,-3.69,3.81,0.03,0.03,-0.36,-0.25,-0.06,-0.06,270.11,277.0,0.0,0.0,0.0,0.0
1776357894761712713,26005,0.0,0.2,0.0,0.8,0.06,0.08,0.06,-3.69,3.81,0.05,0.11,-0.34,-0.0,-0.25,0.06,270.11,274.0,0.0,0.0,0.0,0.0
1776357894864108460,26104,0.0,0.5,0.0,1.0,-0.12,-0.08,0.06,-3.69,3.81,0.02,0.01,-0.36,0.06,-0.31,0.06,270.11,273.0,0.0,0.0,0.0,0.0
1776357894962388008,26205,0.0,1.0,0.0,0.4,-0.02,-0.08,0.06,-3.69,3.81,0.03,0.01,-0.37,-0.06,-0.0,0.0,270.8,273.0,0.0,0.0,0.0,0.0
1776357895064810953,26305,0.0,0.7,0.0,0.3,-0.02,-0.04,0.06,-3.69,3.81,0.06,0.06,-0.34,-0.12,-0.19,0.12,274.74,274.0,0.0,0.0,0.0,0.0
1776357895163110857,26405,0.004,0.2,0.0,0.7,0.0,-0.04,0.06,-3.69,3.81,0.0,-0.0,-0.37,-0.0,-0.0,-0.06,274.91,274.0,0.0,0.0,0.0,0.0
1776357895265506793,26505,0.0,1.0,0.0,0.3,-0.12,-0.1,0.06,-3.69,3.81,0.04,-0.0,-0.37,0.06,0.19,-0.12,274.4,273.0,0.0,0.0,0.0,0.0
1776357895363806548,26606,0.0,1.0,0.0,0.3,0.04,-0.2,0.06,-3.69,3.81,0.02,0.05,-0.38,-0.0,-0.19,0.12,274.23,275.0,0.0,0.0,0.0,0.0
1776357895466211133,26706,0.0,0.6,0.0,1.1,-0.02,-0.02,0.06,-3.69,3.81,0.06,-0.0,-0.39,-0.0,-0.25,0.12,270.11,275.0,0.0,0.0,0.0,0.0
1776357895564518704,26806,0.004,0.1,0.0,0.3,-0.18,-0.02,0.06,-3.69,3.81,0.05,-0.01,-0.4,-0.0,0.19,-0.19,274.4,276.0,0.0,0.0,0.0,0.0
1776357895666923307,26907,0.0,0.3,0.0,0.8,-0.02,0.04,0.06,-3.69,3.81,0.01,0.06,-0.36,-0.0,-0.06,0.12,274.23,273.0,0.0,0.0,0.0,0.0
1776357895765222933,27008,0.004,0.4,0.0,1.1,0.06,-0.08,0.06,-3.69,3.81,0.05,-0.0,-0.38,-0.0,-0.06,0.0,270.11,273.0,0.0,0.0,0.0,0.0
1776357895867619480,27108,0.0,1.0,0.0,0.8,0.0,-0.02,0.06,-3.69,3.81,0.02,0.03,-0.34,-0.0,0.12,-0.12,274.4,276.0,0.0,0.0,0.0,0.0
1776357895970011879,27209,0.0,0.2,0.0,0.9,-0.08,0.02,0.06,-3.69,3.81,0.03,0.02,-0.38,-0.0,-0.12,0.06,274.23,278.0,0.0,0.0,0.0,0.0
1776357896068335941,27310,0.0,0.0,0.0,0.3,-0.04,-0.18,0.06,-3.69,3.81,0.03,0.01,-0.37,-0.06,0.25,0.0,270.11,278.0,0.0,0.0,0.0,0.0
1776357896170705603,27410,0.0,1.0,0.0,0.6,0.02,-0.06,0.06,-3.69,3.81,0.01,0.03,-0.39,-0.0,0.19,-0.12,270.28,276.0,0.0,0.0,0.0,0.0
1776357896269008714,27510,0.0,0.6,0.0,0.5,0.08,-0.08,0.06,-3.69,3.81,0.0,0.11,-0.38,-0.06,-0.06,0.06,270.11,276.0,0.0,0.0,0.0,0.0
1776357896371419006,27610,0.0,0.5,0.0,1.0,0.0,-0.06,0.06,-3.69,3.81,0.03,-0.02,-0.36,-0.06,-0.06,0.06,270.11,269.0,0.0,0.0,0.0,0.0
1776357896469715248,27711,0.004,0.4,0.0,0.9,-0.1,0.02,0.06,-3.69,3.81,0.02,-0.0,-0.39,-0.0,0.25,-0.06,270.11,271.0,0.0,0.0,0.0,0.0
1776357896572113521,27811,0.0,0.4,0.0,0.5,-0.02,-0.04,0.06,-3.69,3.81,0.01,0.06,-0.34,-0.0,-0.12,0.0,271.31,271.0,0.0,0.0,0.0,0.0
1776357896670355687,27912,0.0,0.6,0.0,1.0,-0.08,-0.02,0.06,-3.69,3.81,0.03,-0.01,-0.39,-0.12,0.12,-0.06,270.28,272.0,0.0,0.0,0.0,0.0
1776357896772837036,28013,0.0,0.1,0.0,1.1,-0.06,-0.18,0.06,-3.69,3.81,0.05,0.04,-0.39,-0.12,-0.0,0.12,270.63,270.0,0.0,0.0,0.0,0.0
1776357896871129462,28113,0.0,1.1,0.0,0.5,-0.08,0.02,0.06,-3.69,3.81,0.01,-0.09,-0.4,0.12,0.06,-0.25,270.8,270.0,0.0,0.0,0.0,0.0
1776357896973609015,28213,0.0,0.7,0.0,0.5,0.1,-0.08,0.06,-3.69,3.81,0.04,0.12,-0.38,-0.0,0.06,0.0,270.8,273.0,0.0,0.0,0.0,0.0
1776357897075913702,28314,0.0,0.2,0.0,0.3,-0.08,-0.06,0.06,-3.69,3.81,0.04,-0.0,-0.4,0.12,-0.12,0.12,270.8,273.0,0.0,0.0,0.0,0.0
1776357897174206614,28414,0.0,1.0,0.0,0.5,-0.08,-0.02,0.06,-3.69,3.81,0.06,-0.04,-0.38,-0.19,0.19,-0.12,270.63,273.0,0.0,0.0,0.0,0.0
1776357897276642300,28514,0.0,0.5,0.0,0.2,0.12,-0.14,0.06,-3.69,3.81,0.05,0.04,-0.4,-0.0,-0.06,0.06,270.63,278.0,0.0,0.0,0.0,0.0
1776357897374927323,28615,0.0,0.7,0.0,0.4,-0.16,-0.06,0.06,-3.69,3.81,0.03,0.01,-0.39,-0.0,-0.12,0.06,270.8,273.0,0.0,0.0,0.0,0.0
1776357897477367953,28716,0.0,0.2,0.0,0.3,0.06,0.04,0.06,-3.69,3.81,0.01,-0.04,-0.4,-0.0,0.12,0.0,270.63,273.0,0.0,0.0,0.0,0.0
1776357897575625439,28816,0.0,0.4,0.0,0.9,-0.1,0.0,0.06,-3.69,3.81,0.02,0.02,-0.39,0.06,0.37,-0.06,270.63,274.0,0.0,0.0,0.0,0.0
1776357897673908036,28916,0.004,0.0,0.0,0.9,0.02,-0.02,0.06,-3.69,3.81,0.06,0.05,-0.36,-0.0,-0.25,0.06,270.11,274.0,0.0,0.0,0.0,0.0
1776357897776329499,29016,0.0,0.0,0.0,0.3,0.1,-0.1,0.06,-3.69,3.81,0.03,-0.0,-0.4,0.06,0.19,0.0,270.11,276.0,0.0,0.0,0.0,0.0
1776357897878734239,29117,0.0,0.0,0.0,0.1,-0.06,-0.06,0.06,-3.69,3.81,0.05,0.02,-0.36,-0.12,0.19,0.06,271.14,275.0,0.0,0.0,0.0,0.0
1776357897977054448,29217,0.0,0.3,0.0,0.9,-0.08,0.0,0.06,-3.69,3.81,0.01,0.03,-0.36,0.06,-0.06,0.06,271.14,275.0,0.0,0.0,0.0,0.0
1776357898079456327,29318,0.004,0.5,0.0,0.3,0.04,0.06,0.06,-3.69,3.81,0.01,-0.0,-0.36,-0.12,0.06,0.06,271.14,272.0,0.0,0.0,0.0,0.0
1776357898177693705,29419,0.0,0.1,0.0,1.1,0.14,0.08,0.06,-3.69,3.81,0.01,0.04,-0.36,-0.12,-0.06,0.0,271.14,273.0,0.0,0.0,0.0,0.0
1776357898280118172,29519,0.0,0.1,0.0,1.2,-0.02,-0.04,0.06,-3.69,3.81,0.02,0.06,-0.4,-0.0,-0.06,0.06,271.31,273.0,0.0,0.0,0.0,0.0
1776357898382536435,29620,0.0,0.5,0.0,0.7,-0.14,-0.14,0.06,-3.69,3.81,0.07,-0.0,-0.37,-0.0,-0.0,0.0,271.14,275.0,0.0,0.0,0.0,0.0
1776357898480833871,29720,0.0,0.2,0.0,1.1,0.16,-0.08,0.06,-3.69,3.81,0.02,-0.0,-0.36,-0.0,0.06,-0.06,271.14,276.0,0.0,0.0,0.0,0.0
1776357898579154863,29819,0.0,0.6,0.0,1.0,-0.08,-0.18,0.06,-3.69,3.81,0.02,0.04,-0.4,0.12,-0.0,0.0,271.14,276.0,0.0,0.0,0.0,0.0
1776357898681564200,29919,0.0,0.1,0.0,1.0,-0.04,-0.02,0.06,-3.69,3.81,0.03,0.02,-0.36,-0.06,-0.0,-0.12,271.14,277.0,0.0,0.0,0.0,0.0
1776357898779846765,30020,0.004,0.3,0.0,1.3,-0.02,-0.04,0.06,-3.69,3.81,0.1,0.07,-0.4,0.06,-0.0,-0.06,271.83,277.0,0.0,0.0,0.0,0.0
1776357898882242823,30120,0.0,0.0,0.0,0.2,0.08,-0.04,0.06,-3.69,3.81,0.03,0.01,-0.38,-0.0,-0.25,0.19,271.83,277.0,0.0,0.0,0.0,0.0
1776357898980579612,30220,0.0,0.4,0.0,0.2,-0.04,-0.16,0.06,-3.69,3.81,-0.02,-0.03,-0.38,0.12,0.25,0.12,271.83,274.0,0.0,0.0,0.0,0.0
1776357899082939029,30321,0.0,0.9,0.0,0.7,0.1,-0.04,0.06,-3.69,3.81,0.02,0.08,-0.37,-0.12,0.25,-0.06,271.83,274.0,0.0,0.0,0.0,0.0
1776357899185343130,30422,0.0,0.3,0.0,0.7,0.16,0.02,0.06,-3.69,3.81,0.0,0.05,-0.4,-0.06,-0.0,0.12,276.11,275.0,0.0,0.0,0.0,0.0
1776357899283666645,30523,0.004,0.4,0.0,0.4,-0.1,-0.16,0.06,-3.69,3.81,0.03,0.01,-0.38,-0.0,0.06,0.0,271.14,272.0,0.0,0.0,0.0,0.0
1776357899386043060,30623,0.0,0.6,0.0,0.5,0.02,-0.06,0.06,-3.69,3.81,0.01,0.03,-0.38,0.06,0.12,0.0,271.14,272.0,0.0,0.0,0.0,0.0
1776357899484322796,30724,0.0,0.5,0.0,1.0,-0.06,-0.08,0.06,-3.69,3.81,0.05,0.06,-0.35,0.06,-0.25,0.06,271.31,279.0,0.0,0.0,0.0,0.0
1776357899586758749,30825,0.0,0.0,0.0,0.8,0.06,-0.08,0.06,-3.69,3.81,0.02,0.02,-0.37,0.06,0.12,0.0,275.94,275.0,0.0,0.0,0.0,0.0
1776357899685011614,30925,0.0,0.2,0.0,1.2,-0.08,-0.02,0.06,-3.69,3.81,0.02,0.02,-0.38,0.12,-0.0,0.06,274.4,275.0,0.0,0.0,0.0,0.0
1776357899787476161,31026,0.0,0.7,0.0,0.5,-0.02,-0.04,0.06,-3.69,3.81,0.03,0.02,-0.4,-0.0,-0.44,0.0,274.57,273.0,0.0,0.0,0.0,0.0
1776357899889859187,31127,0.0,0.0,0.0,0.9,-0.02,0.08,0.06,-3.69,3.81,0.03,-0.0,-0.39,0.06,-0.0,0.06,271.14,276.0,0.0,0.0,0.0,0.0
1776357899988153608,31227,0.004,0.3,0.0,0.2,-0.02,-0.1,0.06,-3.69,3.81,0.04,0.03,-0.37,0.06,-0.06,0.0,271.31,276.0,0.0,0.0,0.0,0.0
1776357900090545253,31328,0.0,0.4,0.0,0.7,-0.04,-0.1,0.06,-3.69,3.81,0.0,0.04,-0.35,-0.06,-0.25,0.12,271.31,275.0,0.0,0.0,0.0,0.0
1776357900192963136,31429,0.0,0.2,0.0,0.8,-0.18,-0.08,0.06,-3.69,3.81,0.0,-0.13,-0.4,-0.19,0.75,-0.25,271.14,275.0,0.0,0.0,0.0,0.0
1776357900291249989,31529,0.0,0.5,0.0,0.6,0.06,-0.02,0.06,-3.69,3.81,0.03,0.08,-0.38,-0.0,-0.19,0.19,271.31,271.0,0.0,0.0,0.0,0.0
1776357900393654427,31630,0.0,0.0,0.0,0.8,0.04,-0.1,0.06,-3.69,3.81,0.02,-0.0,-0.41,-0.0,-0.25,0.0,271.14,274.0,0.0,0.0,0.0,0.0
1776357900491955706,31730,0.0,-0.1,0.004,0.5,0.02,-0.16,0.06,-3.69,3.81,0.03,0.05,-0.35,-0.0,0.44,-0.12,271.14,274.0,0.0,0.0,0.0,0.0
1776357900594358662,31831,0.0,0.7,0.0,0.8,0.0,-0.06,0.06,-3.69,3.81,0.01,0.11,-0.35,-0.0,-0.25,0.19,271.31,271.0,0.0,0.0,0.0,0.0
1776357900692653442,31932,0.0,0.1,0.0,0.2,0.02,-0.02,0.06,-3.69,3.81,0.02,-0.07,-0.4,-0.06,0.12,-0.06,271.14,275.0,0.0,0.0,0.0,0.0
1776357900795067491,32032,0.0,0.5,0.0,1.3,0.04,-0.04,0.06,-3.69,3.81,0.03,0.02,-0.39,-0.06,0.25,-0.06,271.14,275.0,0.0,0.0,0.0,0.0
1776357900897465836,32133,0.0,0.3,0.0,0.8,0.0,0.08,0.06,-3.69,3.81,0.22,0.05,-0.38,-0.06,-0.44,0.31,271.31,276.0,0.0,0.0,0.0,0.0
1776357900995761764,32234,0.0,0.3,0.0,0.3,0.04,0.02,0.06,-3.69,3.81,-0.01,-0.13,-0.4,-0.31,0.5,-0.06,270.11,276.0,0.0,0.0,0.0,0.0
1776357901094017844,32333,0.0,1.1,0.0,0.6,-0.04,-0.14,0.06,-3.69,3.81,0.09,0.1,-0.36,-0.06,-0.06,0.06,270.11,276.0,0.0,0.0,0.0,0.0
1776357901196468937,32433,0.004,0.2,0.0,0.7,-0.16,-0.02,0.06,-3.69,3.81,-0.02,-0.08,-0.51,0.19,-0.25,-0.37,267.54,275.0,0.0,0.0,0.0,0.0
1776357901294757739,32533,0.0,0.1,0.0,0.8,0.06,-0.04,0.06,-3.69,3.81,0.02,-0.04,-0.31,-0.19,1.56,-0.5,271.14,275.0,0.0,0.0,0.0,0.0
1776357901393058950,32632,0.0,0.4,0.0,1.2,0.0,0.0,0.06,-3.69,3.81,0.01,-0.0,-0.45,-0.06,-0.19,0.0,270.11,274.0,0.0,0.0,0.0,0.0
1776357901495478967,32732,0.0,-0.1,0.0,0.6,-0.02,-0.06,0.06,-3.69,3.81,0.05,-0.04,-0.38,-0.0,-0.12,0.12,173.22,251.0,0.0,0.0,0.0,0.0
1776357901593737306,32833,0.0,0.4,0.0,1.1,0.08,-0.04,0.06,-3.69,3.81,0.05,0.15,-0.37,-0.0,0.37,0.0,180.93,251.0,0.0,0.0,0.0,0.0
1776357901696159305,32932,0.0,0.4,0.0,0.9,0.02,-0.12,0.06,-3.69,3.81,0.03,-0.02,-0.35,-0.0,0.81,-0.25,309.73,200.0,0.0,0.0,0.0,0.0
1776357901794471497,33033,0.004,0.3,0.0,0.3,-0.04,-0.08,0.06,-3.75,3.81,0.06,-0.05,-0.37,0.12,0.63,-0.19,198.94,214.0,0.0,0.0,0.0,0.0
1776357901896870792,33133,0.004,0.2,0.0,0.7,-0.04,0.04,0.06,-3.75,3.81,0.02,-0.03,-0.33,-0.19,-0.12,0.0,203.06,214.0,0.0,0.0,0.0,0.0
1776357901995155168,33232,0.004,0.5,0.0,0.5,0.02,-0.18,0.06,-3.75,3.81,-0.03,0.1,-0.4,-0.06,-0.19,0.19,233.07,223.0,0.0,0.0,0.0,0.0
1776357902097528413,33332,0.0,0.2,0.0,0.9,-0.04,-0.04,0.06,-3.75,3.81,0.05,0.18,-0.35,-0.0,0.37,-0.06,203.06,227.0,0.0,0.0,0.0,0.0
1776357902195876315,33432,0.004,0.5,0.0,1.2,0.08,0.04,0.06,-3.75,3.81,0.06,0.01,-0.42,0.25,0.63,-0.12,216.43,227.0,0.0,0.0,0.0,0.0
1776357902294180531,33532,0.0,0.3,0.0,1.1,-0.02,-0.08,0.06,-3.75,3.81,0.06,-0.02,-0.37,-0.0,0.25,0.0,206.83,227.0,0.0,0.0,0.0,0.0
1776357902396578405,33632,0.0,0.2,0.0,0.2,0.0,-0.1,0.06,-3.75,3.81,-0.01,0.01,-0.37,-0.06,0.31,0.06,194.65,230.0,0.0,0.0,0.0,0.0
1776357902494882158,33732,0.0,0.3,0.0,0.7,0.06,-0.06,0.06,-3.75,3.81,0.01,0.05,-0.37,0.12,-0.19,0.19,207.86,230.0,0.0,0.0,0.0,0.0
1776357902603236291,33831,0.0,0.4,0.0,0.5,-0.08,0.06,0.06,-3.75,3.81,0.04,0.17,-0.39,-0.12,0.56,-0.06,207.0,233.0,0.0,0.0,0.0,0.0
1776357902695583562,33932,0.0,0.2,0.0,0.9,0.12,0.0,0.06,-3.88,3.81,0.0,0.03,-0.37,0.06,1.0,-0.31,194.82,233.0,0.0,0.0,0.0,0.0
1776357902798008251,34033,0.0,0.7,0.0,0.3,-0.08,-0.06,0.06,-3.88,3.81,0.06,-0.1,-0.39,0.06,-0.12,-0.06,194.65,234.0,0.0,0.0,0.0,0.0
1776357902896274596,34132,0.0,0.2,0.0,0.5,0.06,0.0,0.06,-3.88,3.81,-0.01,0.21,-0.36,0.12,-0.19,0.12,193.62,235.0,0.0,0.0,0.0,0.0
1776357902998676821,34233,0.0,0.5,0.0,0.3,0.02,0.0,0.06,-3.88,3.81,0.01,0.1,-0.38,-0.0,0.56,-0.06,198.94,235.0,0.0,0.0,0.0,0.0
1776357903096949025,34333,0.0,0.4,0.0,0.2,-0.06,0.04,0.06,-3.94,3.81,0.03,0.02,-0.35,-0.0,0.25,-0.06,234.27,237.0,0.0,0.0,0.0,0.0
1776357903195329230,34433,0.0,0.7,0.0,0.8,0.02,-0.06,0.06,-3.94,3.81,0.02,0.01,-0.37,-0.0,0.06,0.19,241.99,240.0,0.0,0.0,0.0,0.0
1776357903297685126,34533,0.0,0.0,0.0,0.3,-0.08,-0.2,0.06,-3.94,3.81,0.04,0.1,-0.39,-0.0,0.19,0.0,243.19,240.0,0.0,0.0,0.0,0.0
1776357903400101617,34634,0.0,0.2,0.008,0.5,0.0,-0.08,0.06,-3.94,3.81,0.04,0.08,-0.36,-0.0,0.44,-0.19,251.76,240.0,0.0,0.0,0.0,0.0
1776357903498386930,34735,0.0,0.3,0.0,1.3,0.0,0.1,0.06,-3.94,3.81,0.04,-0.0,-0.38,0.06,-0.0,0.0,251.42,239.0,0.0,0.0,0.0,0.0
1776357903606752643,34835,0.0,0.2,0.0,0.3,0.0,-0.06,0.06,-3.94,3.81,0.0,0.13,-0.37,-0.0,-0.12,0.0,216.26,239.0,0.0,0.0,0.0,0.0
1776357903699092420,34934,0.004,0.1,0.0,0.3,-0.1,-0.04,0.06,-3.94,3.81,0.06,0.11,-0.37,-0.06,0.25,0.06,203.06,240.0,0.0,0.0,0.0,0.0
1776357903797433513,35034,0.0,0.3,0.0,0.4,-0.02,-0.12,0.06,-3.94,3.81,0.06,-0.04,-0.39,-0.06,0.12,-0.06,198.94,240.0,0.0,0.0,0.0,0.0
1776357903899807502,35134,0.004,0.2,0.0,0.8,-0.1,-0.06,0.06,-3.94,3.81,0.0,0.1,-0.38,-0.06,-0.19,0.06,197.91,240.0,0.0,0.0,0.0,0.0
1776357903998067630,35234,0.0,0.4,0.0,0.3,0.1,-0.12,0.06,-3.94,3.81,0.04,0.12,-0.38,-0.12,0.12,-0.06,221.06,239.0,0.0,0.0,0.0,0.0
1776357904100452478,35334,0.0,0.5,0.0,0.4,-0.04,-0.14,0.06,-3.94,3.81,0.03,-0.02,-0.38,-0.0,0.25,0.0,216.78,239.0,0.0,0.0,0.0,0.0
1776357904198797707,35434,0.004,0.5,0.0,0.5,-0.06,0.02,0.06,-3.94,3.81,0.02,0.09,-0.33,-0.19,-0.19,0.0,221.06,237.0,0.0,0.0,0.0,0.0
1776357904297105397,35533,0.004,0.2,0.0,0.9,-0.1,-0.14,0.06,-3.94,3.81,0.01,0.11,-0.36,-0.0,-0.06,0.0,198.43,234.0,0.0,0.0,0.0,0.0
1776357904399532023,35634,0.0,0.1,0.0,0.8,-0.02,-0.06,0.06,-3.94,3.81,0.04,0.03,-0.37,0.12,-0.19,-0.06,206.14,234.0,0.0,0.0,0.0,0.0
1776357904497797694,35734,0.0,0.3,0.0,1.2,-0.1,-0.16,0.06,-3.94,3.81,0.03,0.06,-0.38,0.06,0.06,0.06,197.91,230.0,0.0,0.0,0.0,0.0
1776357904600199856,35834,0.0,0.2,0.0,0.2,-0.06,-0.06,0.06,-3.94,3.81,0.01,0.04,-0.36,-0.0,-0.06,0.0,212.15,232.0,0.0,0.0,0.0,0.0
1776357904698492361,35934,0.0,0.7,0.0,0.3,-0.02,0.06,0.06,-3.94,3.81,0.03,0.08,-0.4,-0.06,0.06,0.0,254.68,232.0,0.0,0.0,0.0,0.0
1776357904800899413,36035,0.0,0.1,0.0,0.9,-0.06,-0.2,0.06,-3.94,3.81,0.0,0.03,-0.39,0.12,-0.12,0.0,216.78,236.0,0.0,0.0,0.0,0.0
1776357904899198603,36135,0.0,0.1,0.0,0.1,0.06,0.08,0.06,-3.94,3.81,0.05,0.04,-0.38,0.06,-0.0,-0.06,228.95,235.0,0.0,0.0,0.0,0.0
1776357905001628266,36236,0.0,0.4,0.0,0.2,0.02,0.0,0.06,-3.94,3.81,0.01,0.07,-0.41,-0.12,0.06,0.06,228.95,235.0,0.0,0.0,0.0,0.0
1776357905099862239,36336,0.0,1.0,0.0,0.8,0.02,0.02,0.06,-3.94,3.81,0.01,0.05,-0.42,-0.0,-0.19,0.06,225.69,236.0,0.0,0.0,0.0,0.0
1776357905202312704,36435,0.0,0.5,0.0,1.1,0.0,0.02,0.06,-3.94,3.81,0.04,0.06,-0.37,-0.0,-0.06,0.0,225.69,236.0,0.0,0.0,0.0,0.0
1776357905300581104,36536,0.0,0.2,0.0,1.2,-0.06,-0.12,0.06,-3.94,3.81,0.03,0.06,-0.4,0.06,-0.06,-0.06,229.98,235.0,0.0,0.0,0.0,0.0
1776357905403013421,36637,0.004,0.2,0.0,1.2,-0.06,0.02,0.06,-3.94,3.81,0.04,0.05,-0.41,-0.12,-0.19,0.0,220.89,237.0,0.0,0.0,0.0,0.0
1776357905501308469,36737,0.0,1.0,0.0,0.1,-0.04,-0.08,0.06,-3.94,3.81,0.01,0.08,-0.4,0.06,0.06,0.06,219.86,237.0,0.0,0.0,0.0,0.0
1776357905603735989,36837,0.0,0.2,0.0,1.0,-0.2,-0.02,0.06,-3.94,3.81,0.02,0.05,-0.38,0.12,-0.0,-0.06,233.07,236.0,0.0,0.0,0.0,0.0
1776357905702039297,36937,0.0,0.6,0.0,0.6,0.04,-0.1,0.06,-3.94,3.81,0.03,0.06,-0.43,0.06,-0.06,0.0,220.03,237.0,0.0,0.0,0.0,0.0
1776357905804450965,37038,0.0,0.1,0.0,0.3,0.0,0.02,0.06,-3.94,3.81,0.02,-0.0,-0.41,-0.0,-0.19,0.12,215.75,237.0,0.0,0.0,0.0,0.0
1776357905902683400,37138,0.0,0.9,0.0,0.9,-0.02,-0.14,0.06,-3.94,3.81,0.05,0.04,-0.39,0.12,-0.06,0.06,215.06,234.0,0.0,0.0,0.0,0.0
1776357906005119310,37237,0.0,0.3,0.0,0.2,0.02,0.1,0.06,-3.94,3.81,0.04,0.07,-0.36,-0.06,0.06,-0.06,206.83,231.0,0.0,0.0,0.0,0.0
1776357906103371289,37338,0.004,0.4,0.0,1.1,0.02,-0.06,0.06,-3.94,3.81,0.05,0.05,-0.4,-0.0,0.19,0.0,234.1,231.0,0.0,0.0,0.0,0.0
1776357906205834242,37439,0.0,0.5,0.0,0.6,0.0,-0.12,0.06,-3.94,3.81,0.03,0.06,-0.4,0.06,-0.06,0.12,259.14,229.0,0.0,0.0,0.0,0.0
1776357906304113889,37538,0.0,-0.1,0.0,1.1,-0.08,0.04,0.06,-3.94,3.81,0.05,0.09,-0.4,0.19,-0.19,0.12,221.06,229.0,0.0,0.0,0.0,0.0
1776357906406514137,37638,0.0,0.9,0.0,0.6,0.04,-0.08,0.06,-3.94,3.81,0.03,0.1,-0.4,-0.0,0.31,-0.19,210.94,231.0,0.0,0.0,0.0,0.0
1776357906504889619,37739,0.0,0.2,0.0,0.8,-0.12,0.1,0.06,-3.94,3.81,0.01,0.01,-0.4,-0.0,0.5,-0.12,219.86,230.0,0.0,0.0,0.0,0.0
1776357906603067448,37839,0.0,0.3,0.0,0.5,0.04,-0.06,0.06,-3.94,3.81,0.03,-0.0,-0.4,-0.06,-0.06,0.0,207.86,230.0,0.0,0.0,0.0,0.0
1776357906705535198,37939,0.004,0.3,0.0,1.1,-0.06,-0.06,0.06,-3.94,3.81,0.03,0.1,-0.42,0.06,-0.31,0.19,208.03,233.0,0.0,0.0,0.0,0.0
1776357906803820882,38039,0.0,0.1,0.0,0.9,-0.04,-0.02,0.06,-3.94,3.81,0.04,0.13,-0.4,0.06,0.12,0.0,219.18,231.0,0.0,0.0,0.0,0.0
1776357906906238982,38139,0.0,0.1,0.0,0.3,0.12,0.06,0.06,-3.94,3.81,0.04,-0.04,-0.42,-0.0,0.44,0.06,194.65,231.0,0.0,0.0,0.0,0.0
1776357907004503350,38239,0.004,0.3,0.0,1.0,-0.08,0.0,0.06,-3.94,3.81,0.02,-0.0,-0.4,-0.12,-0.37,0.12,222.44,232.0,0.0,0.0,0.0,0.0
1776357907106976550,38340,0.004,0.3,0.0,0.3,-0.04,-0.06,0.06,-3.94,3.81,0.01,0.19,-0.41,-0.0,-0.63,0.25,206.66,229.0,0.0,0.0,0.0,0.0
1776357907205241073,38439,0.0,0.1,0.0,0.8,-0.02,-0.14,0.06,-3.94,3.81,0.02,0.08,-0.41,-0.06,-0.06,-0.06,194.65,229.0,0.0,0.0,0.0,0.0
1776357907307641660,38539,0.004,0.4,0.0,1.1,0.02,-0.14,0.06,-3.94,3.81,0.03,-0.02,-0.39,0.19,-0.12,0.06,221.58,230.0,0.0,0.0,0.0,0.0
1776357907405939092,38639,0.004,0.2,0.0,1.0,0.08,-0.02,0.06,-3.94,3.81,0.02,0.09,-0.41,-0.0,-0.44,0.19,222.09,230.0,0.0,0.0,0.0,0.0
1776357907504235116,38738,0.0,0.0,0.0,0.0,0.02,-0.08,0.06,-3.94,3.81,0.03,0.09,-0.4,-0.19,0.12,-0.06,222.78,230.0,0.0,0.0,0.0,0.0
1776357907606628517,38839,0.004,0.4,0.0,1.2,-0.02,-0.06,0.06,-3.94,3.81,0.01,0.02,-0.41,-0.0,0.19,0.0,215.06,232.0,0.0,0.0,0.0,0.0
1776357907704953449,38939,0.0,0.3,0.004,0.8,0.08,-0.06,0.06,-3.94,3.81,0.05,0.05,-0.4,-0.06,-0.06,0.12,219.18,232.0,0.0,0.0,0.0,0.0
1776357907813276625,39038,0.004,1.0,0.0,0.2,-0.02,-0.02,0.06,-3.94,3.81,0.05,0.08,-0.39,0.12,-0.25,0.0,206.66,232.0,0.0,0.0,0.0,0.0
1776357907905637486,39138,0.0,0.5,0.0,0.3,-0.06,0.0,0.06,-3.94,3.81,0.03,0.06,-0.4,0.06,0.06,-0.12,202.54,233.0,0.0,0.0,0.0,0.0
1776357908003935214,39237,0.0,0.4,0.0,0.5,-0.06,-0.1,0.06,-3.94,3.81,0.04,-0.0,-0.38,0.12,-0.06,0.0,208.37,233.0,0.0,0.0,0.0,0.0
1776357908102211281,39336,0.004,0.2,0.0,1.1,-0.08,-0.02,0.06,-3.94,3.81,0.02,0.12,-0.38,0.06,-0.19,0.06,237.7,231.0,0.0,0.0,0.0,0.0
1776357908204641060,39436,0.0,0.2,0.0,0.2,0.02,-0.04,0.06,-3.94,3.81,-0.03,0.02,-0.36,-0.0,0.37,0.06,206.66,224.0,0.0,0.0,0.0,0.0
1776357908302955443,39536,0.004,0.3,0.0,1.1,0.0,-0.02,0.06,-3.94,3.81,0.04,0.11,-0.38,0.19,-0.06,0.06,203.06,224.0,0.0,0.0,0.0,0.0
1776357908401246714,39635,0.0,0.3,0.0,0.2,-0.06,-0.06,0.06,-3.94,3.81,0.05,0.1,-0.4,-0.12,-0.31,0.06,203.23,231.0,0.0,0.0,0.0,0.0
1776357908503656697,39735,0.0,0.1,0.0,0.2,0.04,0.0,0.06,-3.94,3.81,0.03,0.01,-0.38,-0.06,0.12,-0.06,207.86,231.0,0.0,0.0,0.0,0.0
1776357908601950468,39835,0.0,0.9,0.0,0.8,-0.08,-0.12,0.06,-3.94,3.81,0.02,0.04,-0.36,0.06,0.19,-0.12,206.83,232.0,0.0,0.0,0.0,0.0
1776357908704346728,39936,0.004,0.2,0.0,1.1,0.02,0.0,0.06,-3.94,3.81,0.01,0.07,-0.37,-0.0,-0.19,-0.06,215.23,232.0,0.0,0.0,0.0,0.0
1776357908806763377,40037,0.0,0.1,0.0,1.1,-0.02,-0.06,0.06,-3.94,3.81,-0.01,-0.14,-0.36,-0.12,-0.25,0.19,198.94,232.0,0.0,0.0,0.0,0.0
1776357908905054982,40137,0.004,0.2,0.0,1.0,0.0,0.0,0.06,-3.81,3.81,-0.03,0.23,-0.41,0.06,-0.81,0.25,203.06,231.0,0.0,0.0,0.0,0.0
1776357909003359994,40237,0.0,0.3,0.0,0.8,-0.04,-0.23,0.06,-3.81,3.81,0.1,0.06,-0.38,-0.0,-0.0,-0.19,219.86,233.0,0.0,0.0,0.0,0.0
1776357909105720019,40337,0.0,0.5,0.0,0.4,-0.06,0.06,0.06,-3.75,3.81,0.04,0.1,-0.34,-0.0,0.81,-0.37,223.98,233.0,0.0,0.0,0.0,0.0
1776357909204060742,40437,0.0,0.6,0.0,1.0,0.0,-0.06,0.06,-3.81,3.81,0.01,-0.12,-0.41,-0.0,0.44,0.0,288.12,237.0,0.0,0.0,0.0,0.0
1776357909306449453,40538,0.004,0.1,0.0,0.9,-0.08,-0.06,0.06,-3.81,3.81,0.03,-0.03,-0.35,0.06,-0.44,0.0,289.15,241.0,0.0,0.0,0.0,0.0
1776357909404756509,40638,0.0,0.3,0.0,0.5,-0.14,-0.08,0.06,-3.81,3.81,0.05,0.21,-0.35,0.19,-0.44,0.12,253.99,241.0,0.0,0.0,0.0,0.0
