timestamp_ns,time_ms,voltage_left,current_left_ma,voltage_right,current_right_ma,motor_current_left,motor_current_right,euler_x,euler_y,euler_z,acc_lin_x,acc_lin_y,acc_lin_z,gyro_x,gyro_y,gyro_z,sonar_mm,tof_mm,rpm_left,rpm_right,rotations_left,rotations_right
1776358443035133095,1904,0.0,0.9,0.0,1.1,0.04,-0.25,0.06,-3.06,3.44,0.02,0.02,-0.32,0.06,0.06,-0.12,11942.06,187.0,0.0,0.0,0.0,0.0
1776358443133346688,2004,0.004,0.1,0.0,0.9,-0.14,-0.2,0.06,-3.06,3.44,0.04,0.02,-0.36,-0.06,0.06,-0.06,11942.92,200.0,0.0,0.0,0.0,0.0
1776358443223780225,2104,0.056,0.1,0.0,0.5,0.02,-0.14,0.06,-3.06,3.44,0.02,0.04,-0.36,0.06,0.12,0.0,11943.95,190.0,0.0,0.0,0.0,0.0
1776358443328072021,2204,0.0,0.2,0.0,1.1,-0.12,-0.23,0.06,-3.06,3.44,0.02,0.02,-0.36,-0.06,-0.0,0.0,11941.37,190.0,0.0,0.0,0.0,0.0
1776358443426361725,2305,0.036,0.1,0.0,1.3,0.14,-0.12,0.06,-3.06,3.44,0.02,0.03,-0.37,0.12,-0.0,0.06,11941.37,198.0,0.0,0.0,0.0,0.0
1776358443534769614,2405,0.028,0.2,0.0,0.7,-0.1,-0.2,0.06,-3.06,3.44,0.02,0.01,-0.36,-0.0,-0.0,0.0,11940.17,200.0,0.0,0.0,0.0,0.0
1776358443627185780,2505,0.0,0.3,0.0,1.0,-0.04,-0.1,0.06,-3.06,3.44,0.0,0.02,-0.36,-0.0,0.06,-0.06,11941.72,200.0,0.0,0.0,0.0,0.0
1776358443839216780,2606,0.012,0.3,0.0,0.2,-0.02,-0.31,0.06,-3.06,3.44,0.02,-0.0,-0.35,0.06,-0.06,0.0,11941.2,209.0,0.0,0.0,0.0,0.0
1776358443851882373,2706,0.012,0.3,0.0,0.3,-0.04,-0.16,0.06,-3.06,3.44,0.02,0.03,-0.36,0.12,-0.06,-0.06,11941.2,206.0,0.0,0.0,0.0,0.0
1776358443930279169,2806,0.008,0.2,0.0,0.5,-0.06,-0.25,0.06,-3.06,3.44,0.02,-0.0,-0.36,-0.12,0.12,0.0,11943.95,206.0,0.0,0.0,0.0,0.0
1776358444038563447,2907,0.004,0.4,0.0,0.6,0.04,-0.04,0.06,-3.06,3.44,0.02,0.03,-0.36,0.06,0.06,0.06,11942.06,222.0,0.0,0.0,0.0,0.0
1776358444130995261,3007,0.008,0.2,0.0,0.6,0.12,-0.14,0.06,-3.06,3.44,0.02,-0.0,-0.37,-0.06,-0.0,-0.06,11940.69,222.0,0.0,0.0,0.0,0.0
1776358444229235002,3107,0.0,0.1,0.0,0.3,0.04,-0.16,0.06,-3.06,3.44,0.03,0.02,-0.37,0.12,-0.06,0.0,11942.57,200.0,0.0,0.0,0.0,0.0
1776358444329674576,3207,0.0,0.3,0.0,1.0,-0.06,-0.18,0.06,-3.06,3.44,0.03,0.01,-0.35,0.06,0.12,-0.06,11940.69,209.0,0.0,0.0,0.0,0.0
1776358444427908039,3307,0.0,0.0,0.0,0.9,0.04,-0.23,0.06,-3.06,3.44,0.03,0.02,-0.36,0.12,0.06,0.0,11943.95,209.0,0.0,0.0,0.0,0.0
1776358444532203187,3407,0.0,0.1,0.016,0.4,-0.14,-0.27,0.06,-3.06,3.44,0.01,0.03,-0.37,-0.0,-0.06,0.12,11942.57,201.0,0.0,0.0,0.0,0.0
1776358444630564446,3507,0.0,0.9,0.0,0.5,-0.08,-0.16,0.06,-3.06,3.44,0.03,0.02,-0.35,-0.12,-0.06,0.0,11941.72,195.0,0.0,0.0,0.0,0.0
1776358444733038650,3607,0.0,0.6,0.0,0.2,0.02,-0.2,0.06,-3.06,3.44,0.01,-0.0,-0.36,-0.12,-0.12,-0.06,11940.86,195.0,0.0,0.0,0.0,0.0
1776358444831304298,3707,0.0,0.1,0.0,1.0,-0.08,-0.27,0.06,-3.06,3.44,0.04,0.03,-0.36,0.12,-0.0,0.0,11941.2,212.0,0.0,0.0,0.0,0.0
1776358444929552742,3807,0.004,0.1,0.0,0.7,-0.1,-0.12,0.06,-3.06,3.44,0.03,0.02,-0.36,0.06,0.06,-0.12,11940.69,204.0,0.0,0.0,0.0,0.0
1776358445032062682,3907,0.004,0.5,0.0,0.8,-0.02,-0.16,0.06,-3.06,3.44,0.03,0.03,-0.34,0.06,0.12,-0.06,11941.72,204.0,0.0,0.0,0.0,0.0
1776358445130164626,4006,0.0,0.3,0.0,1.0,0.04,-0.1,0.06,-3.06,3.44,0.02,0.03,-0.36,0.12,0.06,0.06,11940.0,195.0,0.0,0.0,0.0,0.0
1776358445228545862,4106,0.056,0.3,0.0,0.7,-0.1,-0.31,0.06,-3.06,3.44,0.03,0.02,-0.35,-0.0,-0.0,0.0,11939.14,195.0,0.0,0.0,0.0,0.0
1776358445328845627,4206,0.04,0.2,0.0,0.9,-0.08,-0.25,0.06,-3.06,3.44,0.04,0.02,-0.38,-0.06,-0.06,0.06,11940.34,206.0,0.0,0.0,0.0,0.0
1776358445427070274,4306,0.032,0.2,0.032,0.6,0.04,-0.16,0.06,-3.06,3.44,0.03,0.03,-0.36,0.06,0.06,0.0,11940.0,207.0,0.0,0.0,0.0,0.0
1776358445529372221,4406,0.028,0.5,0.0,1.2,0.02,-0.25,0.06,-3.06,3.44,0.03,0.01,-0.35,-0.12,-0.0,0.0,11942.75,207.0,0.0,0.0,0.0,0.0
1776358445629575231,4506,0.016,0.3,0.0,0.3,0.06,-0.27,0.06,-3.06,3.44,0.02,-0.0,-0.36,0.12,0.12,0.0,11942.06,225.0,0.0,0.0,0.0,0.0
1776358445737917944,4606,0.012,0.3,0.0,0.7,0.04,-0.16,0.06,-3.06,3.44,0.03,0.03,-0.34,0.06,-0.12,0.0,11940.34,196.0,0.0,0.0,0.0,0.0
1776358445830235891,4706,0.012,0.4,0.0,0.9,-0.04,-0.21,0.06,-3.06,3.44,0.03,0.01,-0.35,0.12,0.19,0.06,11941.2,196.0,0.0,0.0,0.0,0.0
1776358446083216002,4806,0.004,0.2,0.0,0.9,-0.04,-0.29,0.06,-3.06,3.44,0.02,-0.0,-0.38,-0.06,-0.06,0.06,11941.2,200.0,0.0,0.0,0.0,0.0
1776358446118968175,4907,0.0,0.5,0.0,1.1,-0.14,-0.21,0.06,-3.06,3.44,0.02,0.03,-0.39,0.06,0.06,0.0,11939.32,201.0,0.0,0.0,0.0,0.0
1776358446131626394,5007,0.0,0.2,0.0,1.0,-0.18,-0.16,0.06,-3.06,3.44,0.02,0.01,-0.37,0.06,0.12,0.0,11940.0,201.0,0.0,0.0,0.0,0.0
1776358446231305336,5107,0.0,1.2,0.0,0.8,0.06,-0.2,0.06,-3.06,3.44,0.02,0.03,-0.37,0.06,-0.0,-0.06,11941.54,219.0,0.0,0.0,0.0,0.0
1776358446327614748,5208,0.0,0.6,0.0,1.1,-0.06,-0.2,0.06,-3.06,3.44,0.01,0.02,-0.35,-0.12,0.06,0.0,11941.03,219.0,0.0,0.0,0.0,0.0
1776358446429964583,5307,0.04,0.2,0.0,0.9,-0.1,-0.21,0.06,-3.06,3.44,0.04,0.02,-0.37,-0.0,-0.19,0.0,11940.34,198.0,0.0,0.0,0.0,0.0
1776358446530074740,5407,0.024,0.3,0.0,0.6,0.06,-0.2,0.06,-3.06,3.44,0.04,0.02,-0.35,-0.0,0.06,-0.06,11941.03,213.0,0.0,0.0,0.0,0.0
1776358446630523685,5507,0.0,0.4,0.0,0.9,0.18,-0.21,0.06,-3.06,3.44,0.0,-0.0,-0.38,0.06,-0.06,-0.12,11940.86,213.0,0.0,0.0,0.0,0.0
1776358446730695955,5607,0.012,0.1,0.0,0.5,0.0,-0.18,0.06,-3.06,3.44,0.02,0.01,-0.36,0.06,-0.0,-0.06,11943.43,197.0,0.0,0.0,0.0,0.0
1776358446871215132,5707,0.012,0.1,0.0,1.2,-0.08,-0.18,0.06,-3.06,3.44,0.02,0.03,-0.36,0.06,-0.06,-0.06,11942.4,203.0,0.0,0.0,0.0,0.0
1776358446937419038,5807,0.012,0.2,0.0,1.3,0.0,-0.12,0.06,-3.06,3.44,0.03,-0.0,-0.37,-0.0,-0.12,-0.06,11940.52,203.0,0.0,0.0,0.0,0.0
1776358447029784183,5907,0.0,0.3,0.0,0.9,-0.12,-0.29,0.06,-3.06,3.44,0.02,0.02,-0.36,-0.0,0.06,0.0,11940.17,214.0,0.0,0.0,0.0,0.0
1776358447138020580,6007,0.0,0.2,0.0,0.3,0.0,-0.1,0.06,-3.06,3.44,0.02,0.02,-0.37,0.06,-0.0,0.0,11938.46,215.0,0.0,0.0,0.0,0.0
1776358447236259391,6107,0.06,0.9,0.052,0.3,0.04,-0.25,0.06,-3.06,3.44,0.0,0.03,-0.38,-0.0,0.06,0.06,11940.52,215.0,0.0,0.0,0.0,0.0
1776358447330574035,6207,0.0,0.1,0.0,0.5,-0.06,-0.16,0.06,-3.06,3.44,0.02,0.02,-0.37,0.06,0.06,0.0,11938.8,196.0,0.0,0.0,0.0,0.0
1776358447428774403,6307,0.0,0.7,0.024,0.1,-0.2,-0.29,0.06,-3.06,3.44,0.03,0.03,-0.39,-0.06,0.06,0.06,11939.49,201.0,0.0,0.0,0.0,0.0
1776358447529132445,6407,0.0,0.0,0.0,0.7,-0.06,-0.21,0.06,-3.06,3.44,0.02,0.02,-0.36,0.06,-0.0,0.0,11940.34,201.0,0.0,0.0,0.0,0.0
1776358447637337914,6507,0.012,0.0,0.0,1.1,0.0,-0.18,0.06,-3.06,3.44,0.02,0.03,-0.36,0.12,-0.0,-0.06,11940.52,204.0,0.0,0.0,0.0,0.0
1776358447739870378,6607,0.0,0.5,0.0,0.6,-0.02,-0.21,0.06,-3.06,3.44,0.02,-0.0,-0.36,-0.06,-0.06,-0.19,11940.86,204.0,0.0,0.0,0.0,0.0
1776358447838010909,6708,0.004,0.4,0.0,0.2,-0.06,-0.33,0.06,-3.06,3.44,0.02,-0.0,-0.36,-0.0,0.12,-0.06,11943.43,217.0,0.0,0.0,0.0,0.0
1776358447940408094,6808,0.008,0.5,0.0,1.0,-0.06,-0.12,0.06,-3.06,3.44,0.01,0.03,-0.35,0.06,0.12,0.0,11941.03,207.0,0.0,0.0,0.0,0.0
1776358448038532546,6908,0.004,0.0,0.0,1.1,-0.04,-0.27,0.06,-3.06,3.44,0.02,0.02,-0.33,0.06,0.12,0.12,11941.72,207.0,0.0,0.0,0.0,0.0
1776358448130830101,7007,0.004,0.3,0.004,0.3,-0.06,-0.1,0.06,-3.06,3.44,0.02,0.02,-0.37,0.12,0.06,-0.06,11943.09,194.0,0.0,0.0,0.0,0.0
1776358448239122128,7107,0.0,0.3,0.0,0.5,0.04,-0.12,0.06,-3.06,3.44,0.04,0.03,-0.36,-0.19,-0.06,0.19,11943.77,198.0,0.0,0.0,0.0,0.0
1776358448329425985,7207,0.044,0.0,0.0,0.1,-0.02,-0.1,0.06,-3.06,3.44,0.02,0.01,-0.37,0.06,-0.06,0.0,11943.43,198.0,0.0,0.0,0.0,0.0
1776358448427755535,7307,0.036,0.3,0.0,1.2,0.0,-0.16,0.06,-3.06,3.44,0.01,0.02,-0.36,-0.0,-0.0,0.0,11943.6,202.0,0.0,0.0,0.0,0.0
1776358448532107623,7407,0.02,0.4,0.0,0.9,0.02,-0.1,0.06,-3.06,3.44,0.0,0.01,-0.37,-0.06,-0.0,0.0,11943.26,202.0,0.0,0.0,0.0,0.0
1776358448630315643,7507,0.0,0.1,0.0,0.6,0.0,-0.16,0.06,-3.06,3.44,0.03,0.01,-0.38,0.12,-0.12,-0.06,11941.2,222.0,0.0,0.0,0.0,0.0
1776358448732663427,7607,0.0,0.9,0.0,0.8,-0.02,-0.1,0.06,-3.06,3.44,0.03,0.03,-0.36,-0.06,0.06,0.06,11940.0,191.0,0.0,0.0,0.0,0.0
1776358448830970026,7707,0.0,0.4,0.0,0.6,0.0,-0.21,0.06,-3.06,3.44,0.04,-0.0,-0.36,-0.0,-0.0,-0.06,11942.06,191.0,0.0,0.0,0.0,0.0
1776358448939115553,7808,0.0,0.6,0.0,0.9,-0.08,-0.14,0.06,-3.06,3.44,0.03,0.02,-0.38,0.06,-0.0,0.0,11940.86,199.0,0.0,0.0,0.0,0.0
1776358449031495805,7908,0.0,-0.1,0.0,0.3,-0.12,-0.23,0.06,-3.06,3.44,0.01,-0.0,-0.36,0.06,0.06,-0.12,11940.34,202.0,0.0,0.0,0.0,0.0
1776358449133813885,8008,0.008,0.1,0.0,0.8,-0.1,-0.21,0.06,-3.06,3.44,0.01,0.01,-0.38,-0.0,-0.06,-0.06,11942.23,202.0,0.0,0.0,0.0,0.0
1776358449232001603,8109,0.0,0.3,0.0,1.1,-0.06,-0.12,0.06,-3.06,3.44,0.04,0.03,-0.36,-0.12,-0.0,0.0,11939.49,210.0,0.0,0.0,0.0,0.0
1776358449551206738,8209,0.044,0.3,0.0,1.1,0.06,-0.21,0.06,-3.06,3.44,0.01,0.03,-0.39,0.06,-0.06,0.06,11937.94,195.0,0.0,0.0,0.0,0.0
1776358449555653821,8309,0.028,0.3,0.0,0.1,-0.08,-0.21,0.06,-3.06,3.44,0.02,0.02,-0.37,-0.0,-0.06,0.0,11938.8,195.0,0.0,0.0,0.0,0.0
1776358449623081449,8410,0.0,0.4,0.012,0.2,-0.2,-0.14,0.06,-3.06,3.44,0.0,0.02,-0.4,-0.0,0.12,0.0,11938.46,195.0,0.0,0.0,0.0,0.0
1776358449634963518,8510,0.016,0.2,0.0,1.3,0.02,-0.12,0.06,-3.06,3.44,0.02,0.02,-0.39,0.06,0.06,-0.06,11938.63,194.0,0.0,0.0,0.0,0.0
1776358449735667361,8610,0.0,0.2,0.0,0.4,0.0,-0.33,0.06,-3.06,3.44,0.02,0.03,-0.37,-0.06,0.25,0.0,11942.06,194.0,0.0,0.0,0.0,0.0
1776358449947223084,8711,0.0,0.7,0.0,0.1,0.0,-0.23,0.06,-3.06,3.44,0.02,-0.0,-0.36,-0.12,0.19,0.0,11940.34,214.0,0.0,0.0,0.0,0.0
1776358449959948828,8811,0.0,-0.1,0.0,0.3,-0.04,-0.21,0.06,-3.06,3.44,0.01,0.02,-0.35,-0.0,-0.0,0.0,11941.03,214.0,0.0,0.0,0.0,0.0
1776358450034481810,8911,0.004,0.6,0.0,0.9,-0.08,-0.12,0.06,-3.06,3.44,0.02,0.03,-0.36,0.06,0.19,0.0,11938.63,210.0,0.0,0.0,0.0,0.0
1776358450136818036,9011,0.004,0.1,0.0,0.4,0.0,-0.18,0.06,-3.06,3.44,0.01,0.01,-0.36,-0.06,-0.0,0.06,11940.86,210.0,0.0,0.0,0.0,0.0
1776358450235182836,9111,0.056,0.2,0.0,0.9,-0.1,-0.14,0.06,-3.06,3.44,0.01,0.01,-0.37,-0.06,-0.0,-0.06,11939.49,210.0,0.0,0.0,0.0,0.0
1776358450335420455,9211,0.0,0.5,0.0,0.2,-0.04,-0.14,0.06,-3.06,3.44,0.02,0.01,-0.37,0.06,-0.19,0.0,11939.32,196.0,0.0,0.0,0.0,0.0
1776358450433720877,9311,0.028,0.1,0.0,0.2,0.02,-0.35,0.06,-3.06,3.44,0.02,0.01,-0.38,-0.0,-0.0,-0.06,11937.94,214.0,0.0,0.0,0.0,0.0
1776358450536041017,9411,0.02,0.0,0.0,0.5,0.1,-0.08,0.06,-3.06,3.44,0.03,0.02,-0.37,-0.0,-0.0,0.06,11939.66,214.0,0.0,0.0,0.0,0.0
1776358450636217700,9511,0.0,0.5,0.0,0.8,0.08,-0.18,0.06,-3.06,3.44,0.03,0.03,-0.37,0.12,0.06,0.0,11938.29,196.0,0.0,0.0,0.0,0.0
1776358450734577614,9611,0.008,0.3,0.0,1.1,-0.08,-0.21,0.06,-3.06,3.44,0.03,0.01,-0.38,0.06,-0.0,0.0,11938.46,202.0,0.0,0.0,0.0,0.0
1776358450834897882,9711,0.008,0.4,0.0,1.0,0.06,-0.27,0.06,-3.06,3.44,0.02,0.01,-0.38,-0.12,-0.06,0.0,11939.32,202.0,0.0,0.0,0.0,0.0
1776358450941113611,9811,0.004,-0.1,0.0,0.2,-0.06,-0.21,0.06,-3.06,3.44,0.01,0.03,-0.38,-0.0,0.12,-0.06,11938.97,209.0,0.0,0.0,0.0,0.0
1776358451043634526,9911,0.012,0.2,0.0,0.6,0.0,-0.29,0.06,-3.06,3.44,0.0,0.01,-0.36,-0.0,-0.0,0.06,11939.14,209.0,0.0,0.0,0.0,0.0
1776358451141811815,10011,0.0,0.3,0.0,0.6,0.08,-0.21,0.06,-3.06,3.44,0.02,0.03,-0.38,-0.06,0.19,0.12,11938.63,215.0,0.0,0.0,0.0,0.0
1776358451244280562,10112,0.052,0.1,0.0,1.0,-0.18,-0.27,0.06,-3.06,3.44,0.02,0.01,-0.37,0.06,-0.0,0.06,11937.77,217.0,0.0,0.0,0.0,0.0
1776358451334378263,10211,0.0,0.7,0.0,0.5,-0.06,-0.16,0.06,-3.06,3.44,0.02,0.01,-0.37,-0.0,-0.0,0.06,11940.17,217.0,0.0,0.0,0.0,0.0
1776358451432627578,10311,0.0,1.0,0.0,0.8,-0.1,-0.27,0.06,-3.06,3.44,0.02,0.02,-0.35,0.12,-0.06,0.12,11942.23,210.0,0.0,0.0,0.0,0.0
1776358451542951451,10412,0.028,0.2,0.0,0.3,-0.08,-0.21,0.06,-3.06,3.44,0.03,-0.0,-0.37,-0.06,-0.0,0.06,11939.14,200.0,0.0,0.0,0.0,0.0
1776358451679220601,10512,0.02,0.0,0.0,1.0,0.06,-0.21,0.06,-3.06,3.44,0.01,0.02,-0.37,-0.0,-0.0,0.0,11941.03,200.0,0.0,0.0,0.0,0.0
1776358451843207588,10612,0.004,0.1,0.0,0.5,0.08,-0.14,0.06,-3.06,3.44,0.0,0.02,-0.36,0.06,-0.06,0.12,11939.32,206.0,0.0,0.0,0.0,0.0
1776358451854808103,10712,0.008,0.2,0.0,0.3,0.02,-0.27,0.06,-3.06,3.44,0.04,0.01,-0.4,-0.0,-0.06,0.06,11941.72,206.0,0.0,0.0,0.0,0.0
1776358451944172220,10812,0.0,0.8,0.0,0.7,-0.02,-0.23,0.06,-3.06,3.44,0.02,0.03,-0.37,-0.06,-0.06,-0.06,11942.06,206.0,0.0,0.0,0.0,0.0
1776358452036415327,10912,0.0,0.2,0.0,0.3,-0.06,-0.16,0.06,-3.06,3.44,0.0,0.02,-0.37,0.19,-0.0,0.0,11940.69,211.0,0.0,0.0,0.0,0.0
1776358452144908316,11012,0.0,0.6,0.0,0.5,0.0,-0.27,0.06,-3.06,3.44,0.03,0.03,-0.38,-0.0,0.06,0.06,11941.2,211.0,0.0,0.0,0.0,0.0
1776358452237143395,11112,0.06,0.3,0.0,0.5,-0.18,-0.16,0.06,-3.06,3.44,0.04,0.01,-0.36,0.06,0.06,0.0,11941.03,183.0,0.0,0.0,0.0,0.0
1776358452333500591,11212,0.04,0.1,0.036,0.3,-0.12,-0.41,0.06,-3.06,3.44,0.04,0.03,-0.38,0.12,-0.0,0.0,11941.89,180.0,0.0,0.0,0.0,0.0
1776358452435696384,11312,0.0,0.3,0.0,0.8,-0.04,-0.23,0.06,-3.06,3.44,0.04,0.02,-0.39,-0.0,0.06,-0.06,11941.2,180.0,0.0,0.0,0.0,0.0
1776358452535916427,11412,0.02,-0.1,0.0,1.1,-0.08,-0.27,0.06,-3.06,3.44,0.02,0.03,-0.4,0.06,-0.06,0.06,11940.0,211.0,0.0,0.0,0.0,0.0
1776358452638354515,11512,0.016,0.3,0.0,1.2,-0.16,-0.1,0.06,-3.06,3.44,0.01,0.03,-0.38,-0.0,-0.0,0.06,11939.32,206.0,0.0,0.0,0.0,0.0
1776358452736713764,11612,0.012,0.2,0.0,1.2,0.12,-0.2,0.06,-3.06,3.44,0.03,0.01,-0.39,-0.0,-0.06,0.0,11940.0,206.0,0.0,0.0,0.0,0.0
1776358452845004813,11712,0.012,0.3,0.0,0.3,0.06,-0.18,0.06,-3.06,3.44,0.0,0.02,-0.38,-0.06,-0.0,0.0,11940.86,204.0,0.0,0.0,0.0,0.0
1776358452937237782,11812,0.0,0.1,0.0,1.3,0.04,-0.21,0.06,-3.06,3.44,0.02,0.01,-0.39,0.12,-0.0,-0.06,11940.69,202.0,0.0,0.0,0.0,0.0
1776358453035640186,11912,0.0,1.0,0.0,0.9,-0.04,-0.21,0.06,-3.06,3.44,0.04,0.03,-0.4,-0.0,0.06,0.06,11941.2,202.0,0.0,0.0,0.0,0.0
1776358453143751511,12012,0.0,0.2,0.0,1.1,0.0,-0.27,0.06,-3.06,3.44,0.02,0.02,-0.39,0.06,-0.06,0.06,11940.0,186.0,0.0,0.0,0.0,0.0
1776358453236219454,12112,0.056,0.6,0.04,0.3,-0.04,-0.21,0.06,-3.06,3.44,0.02,0.02,-0.39,-0.06,0.06,0.06,11939.83,186.0,0.0,0.0,0.0,0.0
1776358453336473537,12212,0.04,0.2,0.0,1.0,-0.06,-0.1,0.06,-3.06,3.44,0.02,0.02,-0.39,0.06,-0.0,0.06,11941.37,198.0,0.0,0.0,0.0,0.0
1776358453434708523,12312,0.0,0.5,0.0,1.0,0.04,-0.2,0.06,-3.06,3.44,0.0,0.01,-0.37,0.06,0.06,0.12,11939.66,194.0,0.0,0.0,0.0,0.0
1776358453655214869,12412,0.0,0.3,0.0,1.0,-0.23,-0.16,0.06,-3.06,3.44,0.02,0.02,-0.36,0.06,-0.0,0.06,11940.69,194.0,0.0,0.0,0.0,0.0
1776358453725448338,12511,0.008,0.3,0.016,0.5,0.1,-0.18,0.06,-3.06,3.44,0.0,0.03,-0.39,-0.0,0.12,0.06,11942.4,210.0,0.0,0.0,0.0,0.0
1776358453737896663,12611,0.0,0.4,0.0,1.3,0.14,-0.16,0.06,-3.06,3.44,0.02,0.01,-0.38,-0.0,-0.12,-0.06,11941.37,204.0,0.0,0.0,0.0,0.0
1776358453943221033,12711,0.004,0.2,0.0,0.3,0.0,-0.08,0.06,-3.06,3.44,0.03,0.01,-0.39,-0.06,-0.0,0.0,11942.23,204.0,0.0,0.0,0.0,0.0
1776358453955082610,12811,0.012,0.5,0.0,0.8,-0.04,-0.29,0.06,-3.06,3.44,0.02,0.03,-0.34,0.25,-0.06,-0.06,11941.72,206.0,0.0,0.0,0.0,0.0
1776358454044556630,12911,0.0,0.4,0.0,0.3,-0.16,-0.18,0.06,-3.06,3.44,0.03,0.02,-0.35,-0.0,-0.0,0.06,11941.03,200.0,0.0,0.0,0.0,0.0
1776358454136887898,13011,0.004,0.2,0.0,0.8,0.0,-0.25,0.06,-3.06,3.44,0.03,0.03,-0.36,-0.0,0.06,-0.12,11939.83,200.0,0.0,0.0,0.0,0.0
1776358454235208653,13110,0.052,0.2,0.0,0.9,-0.04,-0.29,0.06,-3.06,3.44,0.02,0.02,-0.35,-0.06,0.12,0.0,11941.37,207.0,0.0,0.0,0.0,0.0
1776358454335526577,13210,0.044,0.2,0.0,0.7,0.02,-0.23,0.06,-3.06,3.44,0.0,0.03,-0.38,-0.06,0.19,0.0,11942.75,202.0,0.0,0.0,0.0,0.0
1776358454439715379,13310,0.032,0.2,0.0,0.9,0.08,-0.14,0.06,-3.06,3.44,0.03,0.03,-0.36,-0.06,0.06,0.0,11942.23,202.0,0.0,0.0,0.0,0.0
1776358454534003958,13410,0.028,0.2,0.0,0.8,-0.08,-0.18,0.06,-3.06,3.44,0.02,0.02,-0.37,-0.0,0.06,0.06,11942.23,206.0,0.0,0.0,0.0,0.0
1776358454636527738,13510,0.008,0.1,0.0,0.4,-0.12,-0.14,0.06,-3.06,3.44,0.0,0.01,-0.34,0.06,0.06,-0.06,11941.54,206.0,0.0,0.0,0.0,0.0
1776358454734685345,13611,0.0,0.4,0.0,0.8,0.02,-0.14,0.06,-3.06,3.44,0.01,0.01,-0.37,-0.0,0.12,-0.06,11940.0,225.0,0.0,0.0,0.0,0.0
1776358454843060362,13711,0.012,0.9,0.004,0.2,-0.1,-0.08,0.06,-3.06,3.44,0.01,0.02,-0.35,0.06,0.12,0.06,11940.69,196.0,0.0,0.0,0.0,0.0
1776358454935399794,13811,0.0,0.0,0.0,0.8,-0.21,-0.02,0.06,-3.06,3.44,0.0,0.02,-0.35,-0.06,-0.0,-0.06,11942.75,196.0,0.0,0.0,0.0,0.0
1776358455043699367,13911,0.0,0.4,0.0,1.1,0.0,-0.29,0.06,-3.06,3.44,0.0,0.03,-0.36,-0.06,0.06,0.06,11942.57,213.0,0.0,0.0,0.0,0.0
1776358455135960485,14011,0.0,0.1,0.0,0.5,0.0,-0.18,0.06,-3.06,3.44,0.01,0.04,-0.37,0.12,0.06,-0.06,11941.2,194.0,0.0,0.0,0.0,0.0
1776358455347217125,14111,0.056,0.3,0.0,1.0,-0.14,-0.14,0.06,-3.06,3.44,0.01,0.01,-0.34,-0.0,0.19,0.0,11939.66,194.0,0.0,0.0,0.0,0.0
1776358455351221895,14212,0.0,0.2,0.0,1.0,-0.06,-0.2,0.06,-3.06,3.44,0.02,0.02,-0.36,-0.12,0.06,0.0,11939.66,195.0,0.0,0.0,0.0,0.0
1776358455436948129,14312,0.032,0.2,0.0,0.9,-0.02,-0.14,0.06,-3.06,3.44,0.03,0.02,-0.37,-0.12,-0.12,0.0,11940.86,195.0,0.0,0.0,0.0,0.0
1776358455541278967,14412,0.0,0.5,0.016,0.5,-0.04,-0.12,0.06,-3.06,3.44,0.0,-0.0,-0.33,0.06,-0.0,0.0,11938.97,207.0,0.0,0.0,0.0,0.0
1776358455645569170,14512,0.016,0.4,0.0,1.3,0.0,-0.12,0.06,-3.06,3.44,0.0,0.02,-0.36,-0.0,-0.0,0.06,11939.14,207.0,0.0,0.0,0.0,0.0
1776358455743850449,14612,0.012,0.3,0.0,1.1,0.0,-0.21,0.06,-3.06,3.44,0.03,0.01,-0.36,-0.0,0.12,-0.06,11940.17,207.0,0.0,0.0,0.0,0.0
1776358455836096016,14712,0.0,0.3,0.0,0.2,-0.02,-0.18,0.06,-3.06,3.44,0.0,0.02,-0.38,0.06,-0.0,0.0,11939.14,202.0,0.0,0.0,0.0,0.0
1776358455944507119,14812,0.004,1.0,0.0,0.3,0.08,-0.23,0.06,-3.06,3.44,0.02,0.02,-0.4,-0.06,0.06,0.06,11937.43,196.0,0.0,0.0,0.0,0.0
1776358456036847314,14912,0.0,0.5,0.0,0.3,0.04,-0.12,0.06,-3.06,3.44,0.03,0.01,-0.36,-0.06,-0.0,0.0,11937.94,196.0,0.0,0.0,0.0,0.0
1776358456135022781,15011,0.008,0.0,0.0,0.4,-0.18,-0.23,0.06,-3.06,3.44,0.01,0.02,-0.36,0.06,-0.06,0.0,11936.06,201.0,0.0,0.0,0.0,0.0
1776358456237398763,15111,0.056,0.3,0.0,1.1,0.0,-0.27,0.06,-3.06,3.44,0.03,0.03,-0.35,0.12,0.06,-0.12,11935.89,209.0,0.0,0.0,0.0,0.0
1776358456335703025,15211,0.036,0.4,0.0,0.9,-0.08,-0.16,0.06,-3.06,3.44,0.02,0.02,-0.35,-0.06,-0.19,-0.12,11937.09,209.0,0.0,0.0,0.0,0.0
1776358456436017127,15311,0.028,0.1,0.0,0.8,-0.04,-0.12,0.06,-3.06,3.44,0.05,0.01,-0.36,0.12,-0.06,0.0,11937.77,196.0,0.0,0.0,0.0,0.0
1776358456534327832,15411,0.0,0.2,0.0,1.0,-0.02,-0.18,0.06,-3.06,3.44,0.0,0.02,-0.38,0.06,0.06,0.06,11938.97,206.0,0.0,0.0,0.0,0.0
1776358456638637029,15511,0.0,0.9,0.016,0.9,0.04,-0.23,0.06,-3.06,3.44,0.01,0.03,-0.36,0.06,-0.06,-0.06,11938.29,206.0,0.0,0.0,0.0,0.0
1776358456736928221,15611,0.0,0.2,0.0,0.2,-0.04,-0.2,0.06,-3.06,3.44,0.01,0.02,-0.36,0.06,0.06,-0.12,11938.63,205.0,0.0,0.0,0.0,0.0
1776358456839343228,15711,0.0,0.9,0.012,0.1,-0.06,-0.16,0.06,-3.06,3.44,0.03,0.03,-0.36,0.12,-0.06,0.06,11940.34,205.0,0.0,0.0,0.0,0.0
1776358456937558443,15811,0.0,0.0,0.0,1.0,0.06,-0.27,0.06,-3.06,3.44,0.0,-0.0,-0.35,-0.0,-0.06,0.0,11940.34,194.0,0.0,0.0,0.0,0.0
1776358457035886162,15911,0.0,0.7,0.0,1.0,-0.02,-0.12,0.06,-3.06,3.44,0.02,0.01,-0.35,-0.0,-0.0,0.06,11939.49,217.0,0.0,0.0,0.0,0.0
1776358457144254731,16011,0.008,0.2,0.0,0.2,0.0,-0.16,0.06,-3.06,3.44,0.04,0.01,-0.35,-0.06,-0.0,0.0,11938.97,217.0,0.0,0.0,0.0,0.0
1776358457395224030,16110,0.0,1.0,0.0,0.8,-0.02,-0.25,0.06,-3.06,3.44,0.03,0.01,-0.35,-0.0,0.06,0.06,11941.54,197.0,0.0,0.0,0.0,0.0
1776358457422924256,16210,0.044,0.1,0.0,1.0,-0.06,-0.23,0.06,-3.06,3.44,0.03,0.01,-0.35,-0.06,-0.0,0.06,11940.0,207.0,0.0,0.0,0.0,0.0
1776358457435076551,16310,0.036,0.9,0.0,1.1,-0.1,-0.2,0.06,-3.06,3.44,0.01,0.03,-0.37,-0.0,-0.0,0.0,11939.66,207.0,0.0,0.0,0.0,0.0
1776358457539366177,16410,0.02,0.1,0.0,1.0,-0.04,-0.08,0.06,-3.06,3.44,0.03,0.02,-0.35,-0.0,0.06,-0.06,11941.03,194.0,0.0,0.0,0.0,0.0
1776358457643836957,16510,0.012,1.1,0.0,0.4,-0.1,-0.27,0.06,-3.06,3.44,0.01,0.02,-0.36,-0.0,0.25,0.12,11939.49,194.0,0.0,0.0,0.0,0.0
1776358457736023386,16610,0.0,0.4,0.0,0.9,0.0,-0.14,0.06,-3.06,3.44,0.0,0.01,-0.37,-0.0,0.06,0.0,11940.69,199.0,0.0,0.0,0.0,0.0
1776358457844432998,16710,0.008,0.2,0.0,1.1,0.04,-0.1,0.06,-3.06,3.44,0.01,0.01,-0.36,-0.0,0.06,0.12,11939.83,209.0,0.0,0.0,0.0,0.0
1776358457936768700,16811,0.008,0.2,0.0,1.1,0.0,-0.23,0.06,-3.06,3.44,0.02,0.01,-0.35,-0.0,0.12,0.06,11939.83,209.0,0.0,0.0,0.0,0.0
1776358458034879694,16910,0.008,0.2,0.0,0.2,-0.14,-0.14,0.06,-3.06,3.44,0.03,0.03,-0.35,-0.0,0.06,0.06,11939.83,204.0,0.0,0.0,0.0,0.0
1776358458137348252,17010,0.004,0.5,0.0,1.0,-0.1,-0.18,0.06,-3.06,3.44,0.01,0.01,-0.37,-0.0,0.12,0.0,11938.63,216.0,0.0,0.0,0.0,0.0
1776358458235768214,17111,0.0,0.3,0.0,0.8,-0.04,-0.27,0.06,-3.06,3.44,0.02,0.02,-0.37,0.06,-0.0,0.0,11940.0,216.0,0.0,0.0,0.0,0.0
1776358458337971082,17211,0.0,0.4,0.0,0.7,-0.02,-0.08,0.06,-3.06,3.44,0.03,0.01,-0.38,0.12,-0.0,-0.12,11939.32,207.0,0.0,0.0,0.0,0.0
1776358458434328663,17311,0.028,0.3,0.0,0.8,-0.04,-0.21,0.06,-3.06,3.44,0.01,0.01,-0.36,-0.06,0.12,0.06,11938.97,212.0,0.0,0.0,0.0,0.0
1776358458538539131,17411,0.028,0.2,0.0,0.9,-0.04,-0.08,0.06,-3.06,3.44,0.02,0.02,-0.38,-0.06,0.06,-0.06,11939.32,212.0,0.0,0.0,0.0,0.0
1776358458636953816,17511,0.0,0.6,0.004,1.0,0.06,-0.18,0.06,-3.06,3.44,0.01,0.02,-0.35,-0.12,-0.0,0.06,11937.09,189.0,0.0,0.0,0.0,0.0
1776358458745290952,17611,0.004,0.2,0.0,0.9,0.08,-0.21,0.06,-3.06,3.44,0.0,0.03,-0.39,0.06,0.12,0.06,11939.14,209.0,0.0,0.0,0.0,0.0
1776358458837660087,17711,0.008,0.2,0.0,0.8,0.04,-0.14,0.06,-3.06,3.44,0.02,0.01,-0.36,0.19,-0.06,-0.06,11941.03,209.0,0.0,0.0,0.0,0.0
1776358458945959271,17811,0.008,0.6,0.0,1.2,-0.06,-0.16,0.06,-3.06,3.44,0.0,0.02,-0.38,-0.19,-0.06,0.0,11939.66,199.0,0.0,0.0,0.0,0.0
1776358459044177406,17911,0.004,0.2,0.0,1.0,-0.16,-0.25,0.06,-3.06,3.44,0.01,0.03,-0.35,0.06,-0.0,0.06,11942.75,199.0,0.0,0.0,0.0,0.0
1776358459146540646,18012,0.016,0.2,0.0,0.7,-0.06,-0.16,0.06,-3.06,3.44,0.0,0.02,-0.36,0.06,-0.0,0.0,11942.06,201.0,0.0,0.0,0.0,0.0
1776358459244872404,18111,0.0,0.3,0.0,0.4,-0.06,-0.2,0.06,-3.06,3.44,0.01,0.03,-0.37,-0.0,-0.0,0.06,11941.54,204.0,0.0,0.0,0.0,0.0
1776358459337179896,18211,0.0,0.5,0.0,1.0,0.02,-0.04,0.06,-3.06,3.44,0.01,0.02,-0.35,-0.0,-0.0,-0.06,11940.69,204.0,0.0,0.0,0.0,0.0
1776358459445486645,18312,0.028,0.2,0.0,0.7,0.0,-0.2,0.06,-3.06,3.44,0.04,0.01,-0.37,-0.06,0.06,0.06,11940.69,202.0,0.0,0.0,0.0,0.0
1776358459535735666,18412,0.02,0.2,0.0,0.9,0.0,-0.14,0.06,-3.06,3.44,0.02,0.02,-0.37,-0.0,-0.06,0.0,11938.63,205.0,0.0,0.0,0.0,0.0
1776358459639916512,18512,0.024,0.4,0.0,0.9,0.0,-0.12,0.06,-3.06,3.44,0.01,0.02,-0.4,-0.06,0.12,0.06,11940.34,205.0,0.0,0.0,0.0,0.0
1776358459738275615,18613,0.012,0.1,0.0,0.7,-0.18,-0.14,0.06,-3.06,3.44,0.02,-0.0,-0.35,-0.06,-0.0,-0.06,11939.49,208.0,0.0,0.0,0.0,0.0
1776358459846786073,18713,0.0,0.2,0.0,0.2,0.04,-0.23,0.06,-3.06,3.44,0.01,0.01,-0.37,-0.0,0.06,0.0,11940.52,197.0,0.0,0.0,0.0,0.0
1776358459939119651,18813,0.0,0.4,0.004,0.3,0.08,-0.21,0.06,-3.06,3.44,0.02,0.01,-0.35,0.06,-0.0,0.19,11940.86,197.0,0.0,0.0,0.0,0.0
1776358460047458584,18913,0.0,0.2,0.0,0.8,0.0,-0.21,0.06,-3.06,3.44,0.02,-0.0,-0.37,0.06,-0.06,0.0,11938.46,203.0,0.0,0.0,0.0,0.0
1776358460145681613,19012,0.0,0.2,0.0,0.2,-0.02,-0.29,0.06,-3.06,3.44,0.01,0.01,-0.36,-0.06,-0.06,0.0,11939.66,203.0,0.0,0.0,0.0,0.0
1776358460237985999,19112,0.0,0.3,0.0,1.2,0.04,-0.16,0.06,-3.06,3.44,0.01,0.02,-0.36,0.06,-0.0,0.0,11938.46,188.0,0.0,0.0,0.0,0.0
1776358460346267802,19212,0.04,0.2,0.0,0.9,-0.08,-0.14,0.06,-3.06,3.44,0.01,0.01,-0.36,0.06,-0.19,-0.12,11938.63,194.0,0.0,0.0,0.0,0.0
1776358460436599554,19312,0.024,0.3,0.0,1.2,-0.16,-0.16,0.06,-3.06,3.44,0.04,0.02,-0.35,0.19,-0.0,0.0,11940.0,194.0,0.0,0.0,0.0,0.0
1776358460544946120,19412,0.02,0.4,0.0,0.5,-0.06,-0.25,0.06,-3.06,3.44,0.01,0.01,-0.36,-0.06,0.19,0.06,11939.66,209.0,0.0,0.0,0.0,0.0
1776358460639229120,19512,0.0,0.6,0.0,0.6,0.0,-0.27,0.06,-3.06,3.44,0.04,0.01,-0.36,0.06,0.06,0.06,11941.37,201.0,0.0,0.0,0.0,0.0
1776358460747696103,19612,0.012,0.3,0.0,0.9,-0.04,-0.18,0.06,-3.06,3.44,0.02,0.02,-0.36,0.12,-0.0,0.06,11942.92,201.0,0.0,0.0,0.0,0.0
1776358460839916934,19713,0.0,0.6,0.0,1.3,0.04,-0.21,0.06,-3.06,3.44,0.01,-0.0,-0.36,-0.06,0.12,0.06,11940.86,193.0,0.0,0.0,0.0,0.0
1776358460948214863,19813,0.0,1.0,0.0,0.9,-0.14,-0.14,0.06,-3.06,3.44,0.03,0.01,-0.36,-0.12,0.06,0.06,11942.23,204.0,0.0,0.0,0.0,0.0
1776358461040640136,19913,0.004,0.4,0.0,0.4,-0.06,-0.21,0.06,-3.06,3.44,0.02,0.02,-0.36,-0.06,-0.0,-0.06,11943.26,204.0,0.0,0.0,0.0,0.0
1776358461148917661,20014,0.0,0.4,0.0,0.2,0.0,-0.14,0.06,-3.06,3.44,0.02,0.02,-0.34,-0.06,-0.12,0.0,11938.97,197.0,0.0,0.0,0.0,0.0
1776358461241336863,20114,0.052,0.1,0.04,0.3,-0.02,-0.2,0.06,-3.06,3.44,0.0,0.02,-0.36,-0.06,-0.06,-0.06,11941.03,197.0,0.0,0.0,0.0,0.0
1776358461341551256,20214,0.0,0.5,0.04,0.3,0.04,-0.1,0.06,-3.06,3.44,0.02,0.02,-0.36,-0.06,0.06,-0.06,11940.34,193.0,0.0,0.0,0.0,0.0
1776358461439846677,20314,0.0,0.4,0.0,0.9,0.04,-0.23,0.06,-3.06,3.44,0.01,0.01,-0.35,-0.0,-0.06,0.06,11940.34,202.0,0.0,0.0,0.0,0.0
1776358461540135942,20414,0.024,0.4,0.0,1.0,0.1,-0.25,0.06,-3.06,3.44,0.01,0.03,-0.37,-0.06,-0.06,0.0,11940.0,202.0,0.0,0.0,0.0,0.0
1776358461755217795,20514,0.0,0.9,0.0,0.5,-0.02,-0.12,0.06,-3.06,3.44,0.0,0.03,-0.39,-0.0,0.12,0.06,11939.32,195.0,0.0,0.0,0.0,0.0
1776358461768193487,20614,0.0,0.0,0.0,0.8,0.0,-0.04,0.06,-3.06,3.44,0.05,0.02,-0.35,-0.06,-0.0,0.12,11939.32,189.0,0.0,0.0,0.0,0.0
1776358461843296998,20714,0.0,0.4,0.0,0.9,-0.1,-0.14,0.06,-3.06,3.44,0.03,-0.0,-0.36,-0.06,-0.0,-0.06,11939.32,189.0,0.0,0.0,0.0,0.0
1776358462331219238,20813,0.012,0.3,0.0,1.3,-0.06,-0.14,0.06,-3.06,3.44,0.0,0.02,-0.38,-0.12,0.06,0.06,11940.34,196.0,0.0,0.0,0.0,0.0
1776358462343610633,20913,0.0,0.6,0.0,0.9,0.16,-0.06,0.06,-3.06,3.44,0.01,0.03,-0.34,0.12,-0.0,0.06,11939.49,208.0,0.0,0.0,0.0,0.0
1776358462356329703,21013,0.0,0.2,0.0,0.5,-0.08,-0.27,0.06,-3.06,3.44,-0.01,0.02,-0.36,0.12,-0.0,-0.06,11939.83,208.0,0.0,0.0,0.0,0.0
1776358462368891211,21113,0.0,0.2,0.052,0.4,-0.14,-0.08,0.06,-3.06,3.44,0.01,0.02,-0.37,0.12,0.06,-0.06,11939.66,206.0,0.0,0.0,0.0,0.0
1776358462426752655,21213,0.044,0.5,0.0,1.1,0.04,-0.18,0.06,-3.06,3.44,0.01,0.03,-0.36,-0.12,-0.06,0.06,11942.57,206.0,0.0,0.0,0.0,0.0
1776358462439049569,21313,0.028,0.3,0.0,0.2,0.12,-0.25,0.06,-3.06,3.44,0.0,0.02,-0.37,-0.0,-0.06,0.0,11943.09,204.0,0.0,0.0,0.0,0.0
1776358462541364324,21413,0.028,0.1,0.0,1.0,0.04,-0.16,0.06,-3.06,3.44,0.01,0.01,-0.36,-0.12,0.12,-0.06,11939.66,203.0,0.0,0.0,0.0,0.0
1776358462647665208,21513,0.0,0.3,0.0,1.0,0.0,-0.21,0.06,-3.06,3.44,0.03,0.02,-0.36,-0.12,-0.19,0.0,11941.2,203.0,0.0,0.0,0.0,0.0
1776358462863220300,21613,0.004,0.2,0.0,0.9,0.0,-0.16,0.06,-3.06,3.44,0.03,0.02,-0.4,0.06,-0.12,-0.06,11940.17,206.0,0.0,0.0,0.0,0.0
1776358462930525667,21713,0.012,0.1,0.0,0.7,-0.18,-0.21,0.06,-3.06,3.44,0.02,-0.0,-0.38,-0.0,-0.31,-0.06,11940.34,186.0,0.0,0.0,0.0,0.0
1776358462943099840,21813,0.0,0.9,0.0,0.3,0.04,-0.21,0.06,-3.06,3.44,0.02,0.01,-0.38,-0.0,-0.06,0.06,11940.17,186.0,0.0,0.0,0.0,0.0
1776358463049079021,21913,0.0,0.4,0.0,0.3,-0.02,-0.21,0.06,-3.06,3.44,0.03,0.03,-0.38,-0.12,-0.0,0.06,11939.49,207.0,0.0,0.0,0.0,0.0
1776358463141335636,22013,0.0,0.4,0.0,1.2,-0.04,-0.14,0.06,-3.06,3.44,0.02,0.02,-0.38,-0.06,0.06,-0.06,11938.8,193.0,0.0,0.0,0.0,0.0
1776358463239718394,22113,0.06,0.2,0.052,0.3,0.02,-0.29,0.06,-3.06,3.44,0.02,0.03,-0.4,-0.06,0.06,-0.06,11939.66,193.0,0.0,0.0,0.0,0.0
1776358463341870170,22213,0.04,0.3,0.036,0.3,-0.12,-0.14,0.06,-3.06,3.44,0.02,0.03,-0.36,-0.06,-0.0,-0.06,11939.14,204.0,0.0,0.0,0.0,0.0
1776358463438242831,22313,0.0,0.7,0.012,0.0,-0.02,-0.16,0.06,-3.06,3.44,0.03,0.05,-0.37,0.06,-0.06,-0.12,11942.06,204.0,0.0,0.0,0.0,0.0
1776358463540572889,22413,0.0,-0.1,0.0,0.8,0.0,-0.12,0.06,-3.06,3.44,0.0,0.03,-0.37,-0.06,0.06,0.0,11943.6,191.0,0.0,0.0,0.0,0.0
1776358463640843563,22513,0.0,0.5,0.008,0.5,0.02,-0.14,0.06,-3.06,3.44,0.01,0.03,-0.37,-0.0,-0.12,0.0,11941.72,208.0,0.0,0.0,0.0,0.0
1776358463743285895,22614,0.012,0.0,0.0,1.2,0.0,-0.1,0.06,-3.06,3.44,0.0,0.02,-0.39,-0.06,0.12,0.0,11943.43,208.0,0.0,0.0,0.0,0.0
1776358463879222148,22714,0.008,0.2,0.0,1.0,0.0,-0.02,0.06,-3.06,3.44,0.01,0.02,-0.38,-0.12,0.06,0.12,11942.23,186.0,0.0,0.0,0.0,0.0
1776358463943944646,22814,0.0,0.2,0.0,0.9,0.0,-0.27,0.06,-3.06,3.44,0.0,-0.0,-0.36,-0.0,-0.06,0.0,11942.06,211.0,0.0,0.0,0.0,0.0
1776358464042239129,22914,0.004,0.1,0.0,0.5,-0.02,-0.18,0.06,-3.06,3.44,0.01,0.01,-0.36,-0.06,0.06,0.0,11940.69,211.0,0.0,0.0,0.0,0.0
1776358464144611015,23014,0.012,0.2,0.0,1.2,0.18,-0.23,0.06,-3.06,3.44,0.01,0.02,-0.39,0.12,-0.12,-0.06,11940.52,193.0,0.0,0.0,0.0,0.0
1776358464242884136,23114,0.048,0.2,0.044,0.7,-0.14,-0.27,0.06,-3.06,3.44,0.03,-0.0,-0.39,-0.12,-0.0,-0.12,11938.63,201.0,0.0,0.0,0.0,0.0
1776358464345387313,23214,0.04,0.2,0.0,0.8,0.1,-0.14,0.06,-3.06,3.44,0.0,0.01,-0.37,0.06,-0.0,-0.06,11940.17,201.0,0.0,0.0,0.0,0.0
1776358464441607747,23314,0.028,0.2,0.0,0.7,0.0,-0.16,0.06,-3.06,3.44,0.0,0.02,-0.39,0.06,-0.0,-0.06,11937.77,199.0,0.0,0.0,0.0,0.0
1776358464539747041,23414,0.02,0.2,0.0,1.1,0.14,-0.08,0.06,-3.06,3.44,0.02,0.02,-0.36,-0.0,0.19,0.06,11937.6,199.0,0.0,0.0,0.0,0.0
1776358464644195313,23515,0.0,0.7,0.0,0.8,-0.06,-0.14,0.06,-3.06,3.44,0.04,0.03,-0.4,-0.12,-0.0,0.0,11938.29,214.0,0.0,0.0,0.0,0.0
1776358464746580103,23615,0.012,0.2,0.0,1.0,-0.02,-0.27,0.06,-3.06,3.44,0.03,0.02,-0.38,-0.12,-0.12,0.0,11938.8,217.0,0.0,0.0,0.0,0.0
1776358464844857076,23715,0.004,0.4,0.0,0.1,-0.02,-0.31,0.06,-3.06,3.44,0.0,0.02,-0.39,-0.0,-0.06,0.06,11938.97,217.0,0.0,0.0,0.0,0.0
1776358464943026716,23815,0.0,0.4,0.0,0.3,0.02,-0.31,0.06,-3.06,3.44,0.02,0.01,-0.39,-0.0,-0.12,0.0,11938.8,191.0,0.0,0.0,0.0,0.0
1776358465051548300,23915,0.0,0.3,0.0,1.0,-0.12,-0.23,0.06,-3.06,3.44,0.01,0.03,-0.4,-0.06,-0.12,0.19,11937.43,211.0,0.0,0.0,0.0,0.0
1776358465143890781,24015,0.0,0.7,0.0,1.0,-0.1,-0.14,0.06,-3.06,3.44,0.01,0.03,-0.42,-0.12,-0.0,0.0,11936.91,211.0,0.0,0.0,0.0,0.0
1776358465252205871,24115,0.056,0.1,0.0,0.5,0.06,-0.2,0.06,-3.06,3.44,0.01,-0.0,-0.36,-0.12,0.06,0.12,11937.43,208.0,0.0,0.0,0.0,0.0
1776358465350472596,24215,0.04,0.3,0.024,0.2,0.04,-0.31,0.06,-3.06,3.44,0.02,0.02,-0.38,-0.12,-0.0,0.06,11937.6,208.0,0.0,0.0,0.0,0.0
1776358465440764255,24315,0.0,0.1,0.0,1.1,0.0,-0.18,0.06,-3.06,3.44,0.01,0.03,-0.39,0.06,-0.19,-0.06,11938.97,208.0,0.0,0.0,0.0,0.0
1776358465549107285,24415,0.016,0.3,0.012,0.2,0.06,-0.21,0.06,-3.06,3.44,0.0,0.03,-0.38,-0.06,-0.19,0.12,11938.63,205.0,0.0,0.0,0.0,0.0
1776358465643435543,24515,0.0,0.6,0.0,1.2,-0.06,-0.16,0.06,-3.06,3.44,0.04,0.02,-0.37,-0.06,-0.12,0.0,11939.14,198.0,0.0,0.0,0.0,0.0
1776358465751831619,24615,0.012,0.7,0.0,0.5,-0.02,-0.25,0.06,-3.06,3.44,0.01,0.02,-0.39,0.19,-0.19,-0.06,11939.66,198.0,0.0,0.0,0.0,0.0
1776358465844094835,24715,0.012,0.1,0.0,1.0,0.2,-0.14,0.06,-3.06,3.44,0.03,0.03,-0.36,0.06,-0.06,0.06,11938.63,205.0,0.0,0.0,0.0,0.0
1776358465952551438,24814,0.008,0.3,0.0,0.5,-0.02,-0.14,0.06,-3.06,3.44,0.03,-0.0,-0.39,0.06,-0.0,-0.06,11939.32,205.0,0.0,0.0,0.0,0.0
1776358466087219423,24914,0.0,0.3,0.0,0.3,-0.2,-0.18,0.06,-3.06,3.44,0.04,0.03,-0.35,0.06,-0.06,-0.12,11940.34,195.0,0.0,0.0,0.0,0.0
1776358466143040988,25014,0.0,0.0,0.0,1.3,-0.02,-0.18,0.06,-3.06,3.44,0.02,0.03,-0.36,0.06,-0.0,0.0,11937.77,193.0,0.0,0.0,0.0,0.0
1776358466251392729,25114,0.052,0.1,0.0,0.6,-0.08,-0.2,0.06,-3.06,3.44,0.03,0.03,-0.36,-0.06,-0.0,0.12,11939.32,193.0,0.0,0.0,0.0,0.0
1776358466343717981,25213,0.0,0.6,0.0,0.3,0.0,-0.27,0.06,-3.06,3.44,0.04,0.02,-0.36,-0.0,-0.0,0.06,11940.17,204.0,0.0,0.0,0.0,0.0
1776358466440018420,25313,0.0,0.5,0.0,0.7,-0.02,-0.31,0.06,-3.06,3.44,0.03,0.02,-0.35,0.06,-0.06,0.06,11939.32,199.0,0.0,0.0,0.0,0.0
1776358466542341260,25413,0.0,0.4,0.0,1.0,0.08,-0.18,0.06,-3.06,3.44,0.04,0.02,-0.36,-0.06,-0.19,0.0,11938.8,199.0,0.0,0.0,0.0,0.0
1776358466642602297,25513,0.016,0.3,0.0,1.1,-0.1,-0.29,0.06,-3.06,3.44,0.03,0.02,-0.38,-0.12,-0.06,-0.06,11937.6,223.0,0.0,0.0,0.0,0.0
1776358466751017492,25613,0.0,0.1,0.0,0.5,-0.06,-0.23,0.06,-3.06,3.44,0.03,0.01,-0.36,-0.06,0.06,0.0,11938.97,223.0,0.0,0.0,0.0,0.0
1776358467067217447,25713,0.0,0.9,0.0,0.9,-0.06,-0.2,0.06,-3.06,3.44,0.03,0.02,-0.37,-0.06,0.12,0.06,11940.34,208.0,0.0,0.0,0.0,0.0
1776358467132070634,25814,0.008,0.0,0.0,0.4,0.18,-0.16,0.06,-3.06,3.44,0.01,0.01,-0.37,0.06,0.06,0.0,11938.63,189.0,0.0,0.0,0.0,0.0
1776358467144659995,25914,0.0,0.3,0.0,0.6,-0.14,-0.14,0.06,-3.06,3.44,0.01,-0.0,-0.34,0.06,0.31,-0.06,11939.49,189.0,0.0,0.0,0.0,0.0
1776358467157212620,26014,0.0,0.5,0.012,0.3,0.0,-0.12,0.06,-3.06,3.44,0.02,-0.0,-0.38,0.06,-0.06,-0.06,11940.52,212.0,0.0,0.0,0.0,0.0
1776358467244595845,26115,0.056,0.1,0.0,1.1,-0.04,-0.43,0.06,-3.06,3.44,0.02,-0.0,-0.36,0.06,0.06,0.06,11938.63,213.0,0.0,0.0,0.0,0.0
1776358467345091280,26215,0.04,0.0,0.0,0.3,-0.12,-0.31,0.06,-3.06,3.44,0.03,0.03,-0.39,-0.0,-0.12,0.0,11941.54,213.0,0.0,0.0,0.0,0.0
1776358467443297202,26314,0.0,0.9,0.0,0.4,0.1,-0.23,0.06,-3.06,3.44,0.03,0.02,-0.38,0.06,0.06,0.0,11938.12,199.0,0.0,0.0,0.0,0.0
1776358467543459334,26414,0.02,0.2,0.0,0.9,-0.18,-0.21,0.06,-3.06,3.44,0.03,0.01,-0.37,-0.12,-0.0,0.12,11938.8,205.0,0.0,0.0,0.0,0.0
1776358467652106878,26514,0.0,0.6,0.0,0.1,-0.06,-0.14,0.06,-3.06,3.44,0.01,0.01,-0.35,0.06,-0.12,-0.06,11941.89,205.0,0.0,0.0,0.0,0.0
1776358467855221601,26614,0.0,0.9,0.008,0.8,0.14,-0.23,0.06,-3.06,3.44,0.02,0.01,-0.36,-0.0,0.06,0.0,11939.14,196.0,0.0,0.0,0.0,0.0
1776358467867980029,26714,0.0,-0.1,0.0,0.9,-0.08,-0.29,0.06,-3.06,3.44,0.0,-0.0,-0.37,-0.06,-0.0,0.06,11939.83,207.0,0.0,0.0,0.0,0.0
1776358467945030838,26814,0.004,0.2,0.0,0.8,-0.08,-0.14,0.06,-3.06,3.44,0.01,0.03,-0.36,0.12,-0.12,0.06,11938.63,207.0,0.0,0.0,0.0,0.0
1776358468043189470,26914,0.0,0.4,0.0,1.0,0.0,-0.23,0.06,-3.06,3.44,0.01,0.01,-0.37,0.12,-0.25,0.0,11938.12,200.0,0.0,0.0,0.0,0.0
1776358468145722144,27014,0.016,0.1,0.0,0.4,0.1,-0.27,0.06,-3.06,3.44,0.01,0.02,-0.36,-0.19,0.31,0.12,11941.54,200.0,0.0,0.0,0.0,0.0
1776358468243913864,27114,0.052,0.3,0.0,0.8,-0.04,-0.21,0.06,-3.06,3.44,0.01,0.02,-0.36,0.06,0.12,0.0,11940.17,212.0,0.0,0.0,0.0,0.0
1776358468344269933,27214,0.044,0.1,0.0,0.8,-0.1,-0.06,0.06,-3.06,3.44,0.01,0.01,-0.34,-0.06,0.12,0.0,11939.83,203.0,0.0,0.0,0.0,0.0
1776358468442528977,27314,0.0,0.6,0.0,1.3,-0.14,-0.27,0.06,-3.06,3.44,0.02,0.05,-0.37,-0.0,-0.0,0.06,11942.57,203.0,0.0,0.0,0.0,0.0
1776358468546773728,27414,0.02,0.0,0.0,1.1,0.1,-0.21,0.06,-3.06,3.44,0.0,0.03,-0.37,-0.12,0.06,0.0,11938.8,214.0,0.0,0.0,0.0,0.0
1776358468645234615,27514,0.02,0.5,0.0,0.8,-0.06,-0.27,0.06,-3.06,3.44,0.01,0.01,-0.36,-0.06,-0.12,-0.06,11937.6,204.0,0.0,0.0,0.0,0.0
1776358468743533376,27614,0.012,0.1,0.0,0.5,-0.06,-0.23,0.06,-3.06,3.44,0.01,0.01,-0.36,-0.06,-0.0,0.06,11940.52,204.0,0.0,0.0,0.0,0.0
1776358468887220826,27714,0.0,0.5,0.0,0.7,0.0,-0.21,0.06,-3.06,3.44,0.03,0.03,-0.37,-0.0,0.12,0.0,11939.49,196.0,0.0,0.0,0.0,0.0
1776358468944102884,27814,0.008,0.4,0.0,1.0,0.0,-0.18,0.06,-3.06,3.44,0.01,0.01,-0.38,0.06,-0.12,0.06,11937.26,196.0,0.0,0.0,0.0,0.0
1776358469052516034,27914,0.004,0.2,0.0,0.7,0.08,-0.16,0.06,-3.06,3.44,0.0,0.01,-0.38,-0.0,-0.06,0.0,11938.12,196.0,0.0,0.0,0.0,0.0
1776358469144870142,28014,0.016,0.0,0.016,0.5,0.0,-0.16,0.06,-3.06,3.44,0.02,0.02,-0.36,-0.0,0.25,-0.12,11936.57,197.0,0.0,0.0,0.0,0.0
1776358469243177013,28114,0.0,0.7,0.0,0.6,-0.04,-0.12,0.06,-3.06,3.44,0.0,0.04,-0.36,0.06,0.06,0.0,11938.97,197.0,0.0,0.0,0.0,0.0
1776358469351514358,28213,0.0,0.7,0.0,0.1,-0.06,-0.08,0.06,-3.06,3.44,0.01,0.03,-0.38,-0.06,0.06,-0.12,11937.6,210.0,0.0,0.0,0.0,0.0
1776358469441770664,28313,0.0,0.9,0.016,0.9,-0.08,-0.18,0.06,-3.06,3.44,0.0,0.03,-0.36,0.12,-0.0,-0.06,11940.17,221.0,0.0,0.0,0.0,0.0
1776358469655220459,28413,0.0,0.3,0.0,1.0,0.06,-0.14,0.06,-3.06,3.44,0.03,0.03,-0.36,0.06,-0.0,-0.06,11941.03,221.0,0.0,0.0,0.0,0.0
1776358469668870777,28513,0.016,0.2,0.008,0.3,-0.08,-0.23,0.06,-3.06,3.44,0.01,0.02,-0.34,-0.0,-0.0,0.06,11938.63,202.0,0.0,0.0,0.0,0.0
1776358469752866860,28613,0.008,0.2,0.0,0.1,0.02,-0.18,0.06,-3.06,3.44,0.02,0.02,-0.35,-0.12,-0.0,0.0,11937.77,196.0,0.0,0.0,0.0,0.0
1776358469851178360,28713,0.0,0.3,0.0,0.3,-0.02,-0.27,0.06,-3.06,3.44,0.01,0.01,-0.33,-0.12,-0.12,0.06,11940.52,196.0,0.0,0.0,0.0,0.0
1776358469943449201,28813,0.008,0.0,0.0,0.8,0.04,-0.23,0.06,-3.06,3.44,0.02,0.01,-0.36,0.06,-0.0,0.12,11937.94,205.0,0.0,0.0,0.0,0.0
1776358470051851928,28913,0.012,0.1,0.0,0.9,-0.06,-0.12,0.06,-3.06,3.44,0.03,-0.0,-0.34,-0.0,-0.0,0.12,11936.23,213.0,0.0,0.0,0.0,0.0
1776358470154343847,29014,0.02,-0.1,0.0,0.4,0.1,-0.18,0.06,-3.06,3.44,0.01,0.01,-0.37,0.12,0.12,-0.06,11938.8,213.0,0.0,0.0,0.0,0.0
1776358470252499443,29114,0.0,1.2,0.0,0.7,-0.08,-0.25,0.06,-3.06,3.44,0.01,0.02,-0.36,-0.0,-0.0,0.0,11938.29,214.0,0.0,0.0,0.0,0.0
1776358470346857742,29214,0.0,0.3,0.032,0.2,0.06,-0.21,0.06,-3.06,3.44,0.01,-0.0,-0.36,-0.0,-0.12,0.06,11938.63,214.0,0.0,0.0,0.0,0.0
1776358470445138729,29315,0.036,0.1,0.0,0.7,0.0,-0.14,0.06,-3.06,3.44,0.01,0.02,-0.37,-0.06,0.06,0.06,11939.14,221.0,0.0,0.0,0.0,0.0
1776358470543500818,29415,0.024,0.1,0.0,1.1,0.04,-0.18,0.06,-3.06,3.44,0.0,0.02,-0.36,-0.0,-0.0,0.12,11938.12,199.0,0.0,0.0,0.0,0.0
1776358470653745089,29515,0.012,0.9,0.0,0.5,0.0,-0.25,0.06,-3.06,3.44,0.04,-0.0,-0.37,-0.0,0.06,0.06,11937.94,199.0,0.0,0.0,0.0,0.0
1776358470746146552,29615,0.012,0.1,0.0,0.8,-0.02,-0.23,0.06,-3.06,3.44,0.01,0.01,-0.37,0.06,-0.06,-0.12,11939.32,199.0,0.0,0.0,0.0,0.0
1776358470854528828,29715,0.008,0.2,0.0,0.7,0.04,-0.14,0.06,-3.06,3.44,0.01,0.01,-0.37,-0.0,0.12,0.12,11937.6,206.0,0.0,0.0,0.0,0.0
1776358471059231309,29815,0.0,0.1,0.0,0.2,0.08,-0.14,0.06,-3.06,3.44,0.02,0.03,-0.36,0.06,-0.06,-0.06,11937.77,206.0,0.0,0.0,0.0,0.0
1776358471071640465,29915,0.0,0.2,0.0,1.2,-0.16,-0.18,0.06,-3.06,3.44,0.01,0.01,-0.38,-0.06,0.06,0.06,11935.89,201.0,0.0,0.0,0.0,0.0
1776358471147415532,30015,0.02,0.1,0.016,0.6,-0.04,-0.25,0.06,-3.06,3.44,0.03,-0.0,-0.37,-0.12,-0.06,-0.06,11938.8,205.0,0.0,0.0,0.0,0.0
1776358471247857984,30115,0.0,0.7,0.048,0.3,0.04,-0.12,0.06,-3.06,3.44,0.03,0.02,-0.36,-0.06,0.06,0.0,11940.34,205.0,0.0,0.0,0.0,0.0
1776358471346200047,30216,0.044,0.4,0.0,0.5,0.02,-0.16,0.06,-3.06,3.44,0.0,0.03,-0.35,0.06,-0.06,0.0,11937.94,202.0,0.0,0.0,0.0,0.0
1776358471448506175,30316,0.032,0.2,0.0,1.1,0.02,-0.21,0.06,-3.06,3.44,0.02,0.02,-0.36,-0.19,0.06,0.0,11939.83,202.0,0.0,0.0,0.0,0.0
1776358471548923408,30416,0.02,0.0,0.016,0.3,-0.08,-0.08,0.06,-3.06,3.44,0.0,0.02,-0.36,0.06,0.06,0.12,11940.86,202.0,0.0,0.0,0.0,0.0
1776358471647174925,30516,0.016,0.1,0.004,0.9,0.0,-0.12,0.06,-3.06,3.44,0.02,0.01,-0.37,-0.0,-0.06,0.06,11940.17,186.0,0.0,0.0,0.0,0.0
1776358471855217882,30616,0.016,0.0,0.0,1.3,-0.04,-0.21,0.06,-3.06,3.44,0.02,0.03,-0.35,0.25,-0.12,0.06,11940.52,186.0,0.0,0.0,0.0,0.0
1776358471867829275,30715,0.012,0.3,0.0,0.1,0.02,-0.25,0.06,-3.06,3.44,0.03,0.02,-0.33,-0.0,-0.06,-0.12,11941.54,195.0,0.0,0.0,0.0,0.0
1776358471946101038,30815,0.004,0.1,0.0,0.7,0.04,-0.12,0.06,-3.06,3.44,0.03,0.03,-0.37,-0.0,-0.12,0.12,11937.43,201.0,0.0,0.0,0.0,0.0
1776358472054474329,30915,0.0,0.2,0.0,1.1,-0.1,-0.23,0.06,-3.06,3.44,0.01,0.03,-0.35,-0.12,-0.06,0.0,11939.49,201.0,0.0,0.0,0.0,0.0
1776358472146770760,31015,0.0,0.3,0.0,0.3,-0.08,-0.1,0.06,-3.06,3.44,0.01,-0.0,-0.37,0.12,-0.0,0.06,11936.74,206.0,0.0,0.0,0.0,0.0
1776358472255110361,31115,0.0,0.2,0.036,0.8,0.06,-0.16,0.06,-3.06,3.44,0.03,0.02,-0.37,0.12,-0.0,-0.06,11939.83,205.0,0.0,0.0,0.0,0.0
1776358472353418796,31214,0.04,0.1,0.032,0.4,-0.02,-0.2,0.06,-3.06,3.44,0.01,0.02,-0.35,-0.06,0.06,0.06,11939.14,205.0,0.0,0.0,0.0,0.0
1776358472443783601,31313,0.0,0.2,0.0,1.1,0.02,-0.27,0.06,-3.06,3.44,0.02,0.02,-0.38,-0.0,-0.0,-0.06,11937.43,205.0,0.0,0.0,0.0,0.0
1776358472547959759,31413,0.0,1.0,0.0,0.6,-0.04,-0.31,0.06,-3.06,3.44,0.0,0.02,-0.36,0.12,0.06,0.06,11938.12,205.0,0.0,0.0,0.0,0.0
1776358472646281693,31512,0.0,0.1,0.0,1.0,0.06,-0.21,0.06,-3.06,3.44,0.02,0.02,-0.34,-0.0,-0.0,0.12,11940.0,198.0,0.0,0.0,0.0,0.0
1776358472744694728,31612,0.008,0.5,0.008,0.3,0.08,-0.04,0.06,-3.06,3.44,0.02,0.02,-0.36,0.06,-0.06,-0.06,11940.0,193.0,0.0,0.0,0.0,0.0
1776358472847063487,31712,0.0,0.9,0.0,0.8,0.0,-0.31,0.06,-3.06,3.44,0.02,0.03,-0.37,-0.06,-0.06,0.06,11938.97,193.0,0.0,0.0,0.0,0.0
1776358472945381514,31811,0.0,0.4,0.0,0.4,-0.23,-0.1,0.06,-3.06,3.44,0.01,0.02,-0.35,-0.12,-0.06,0.0,11939.14,206.0,0.0,0.0,0.0,0.0
1776358473043543107,31911,0.008,0.1,0.0,1.0,-0.02,-0.25,0.06,-3.06,3.44,0.03,0.03,-0.37,0.06,-0.0,0.0,11936.74,204.0,0.0,0.0,0.0,0.0
1776358473152204642,32011,0.012,0.3,0.0,0.1,-0.16,-0.16,0.06,-3.06,3.44,0.01,-0.0,-0.39,-0.0,-0.06,-0.06,11935.89,204.0,0.0,0.0,0.0,0.0
1776358473244242568,32111,0.056,-0.2,0.0,1.0,-0.25,-0.27,0.06,-3.06,3.44,0.03,0.02,-0.36,-0.0,-0.12,0.0,11936.74,207.0,0.0,0.0,0.0,0.0
1776358473342580343,32211,0.0,0.7,0.0,1.1,-0.06,-0.1,0.06,-3.06,3.44,0.02,-0.0,-0.35,0.06,-0.19,0.06,11936.91,202.0,0.0,0.0,0.0,0.0
1776358473442964506,32311,0.032,0.1,0.0,0.5,-0.02,-0.29,0.06,-3.06,3.44,0.02,0.02,-0.37,-0.06,-0.0,0.06,11935.89,202.0,0.0,0.0,0.0,0.0
1776358473547507751,32410,0.0,0.0,0.0,1.2,-0.12,-0.04,0.06,-3.06,3.44,0.02,0.02,-0.38,0.12,-0.0,-0.12,11935.54,209.0,0.0,0.0,0.0,0.0
1776358473641677130,32510,0.012,0.2,0.0,0.8,0.0,-0.21,0.06,-3.06,3.44,0.0,0.01,-0.37,0.12,-0.0,0.0,11936.23,209.0,0.0,0.0,0.0,0.0
1776358473750014568,32610,0.004,0.1,0.0,0.8,0.0,-0.31,0.06,-3.06,3.44,0.03,0.01,-0.38,0.06,-0.06,0.06,11937.77,204.0,0.0,0.0,0.0,0.0
1776358473852372643,32710,0.012,0.3,0.0,0.5,-0.08,-0.23,0.06,-3.06,3.44,0.0,-0.0,-0.37,-0.06,-0.19,0.06,11936.06,189.0,0.0,0.0,0.0,0.0
1776358474163261432,32811,0.0,0.4,0.0,1.2,0.06,-0.27,0.06,-3.06,3.44,0.01,-0.0,-0.37,-0.06,-0.0,-0.06,11936.06,189.0,0.0,0.0,0.0,0.0
1776358474233524708,32910,0.0,0.3,0.0,0.4,-0.04,-0.18,0.06,-3.06,3.44,0.03,0.02,-0.35,-0.0,-0.06,-0.06,11936.74,204.0,0.0,0.0,0.0,0.0
1776358474246329354,33010,0.016,0.2,0.0,1.1,-0.14,-0.21,0.06,-3.06,3.44,0.04,-0.0,-0.36,0.19,-0.06,-0.06,11936.06,232.0,0.0,0.0,0.0,0.0
1776358474258553982,33111,0.052,0.4,0.0,0.3,-0.02,-0.23,0.06,-3.06,3.44,0.03,0.01,-0.38,0.12,-0.06,0.06,11938.46,232.0,0.0,0.0,0.0,0.0
1776358474352007723,33211,0.0,1.2,0.0,0.2,-0.08,-0.2,0.06,-3.06,3.44,0.0,0.01,-0.38,-0.06,0.06,0.0,11937.6,205.0,0.0,0.0,0.0,0.0
1776358474442466357,33311,0.0,0.2,0.0,0.8,-0.08,-0.18,0.06,-3.06,3.44,0.0,0.01,-0.38,-0.0,0.06,0.12,11937.26,214.0,0.0,0.0,0.0,0.0
1776358474546671752,33411,0.0,0.3,0.0,1.0,0.04,0.02,0.06,-3.06,3.44,0.02,-0.0,-0.38,-0.0,-0.06,0.06,11938.12,214.0,0.0,0.0,0.0,0.0
1776358474644975407,33511,0.02,-0.1,0.0,0.5,-0.04,-0.29,0.06,-3.06,3.44,0.0,0.01,-0.38,0.06,-0.06,-0.06,11936.91,190.0,0.0,0.0,0.0,0.0
1776358474753356021,33611,0.012,0.2,0.0,0.8,0.06,-0.21,0.06,-3.06,3.44,0.02,-0.0,-0.36,-0.0,0.31,0.0,11939.49,190.0,0.0,0.0,0.0,0.0
1776358474951219194,33712,0.012,0.1,0.0,1.0,-0.02,-0.21,0.06,-3.06,3.44,0.03,0.03,-0.37,-0.0,-0.0,0.0,11937.94,217.0,0.0,0.0,0.0,0.0
1776358474963128795,33812,0.008,0.2,0.0,0.8,0.02,-0.18,0.06,-3.06,3.44,0.02,0.02,-0.38,-0.0,-0.06,0.06,11936.4,219.0,0.0,0.0,0.0,0.0
1776358475046508285,33912,0.008,0.3,0.0,0.2,-0.02,-0.16,0.06,-3.06,3.44,0.01,0.01,-0.37,0.12,0.06,0.06,11937.6,219.0,0.0,0.0,0.0,0.0
1776358475148697990,34013,0.0,0.1,0.0,0.5,-0.06,-0.2,0.06,-3.06,3.44,0.01,0.02,-0.39,0.06,-0.06,-0.06,11936.23,206.0,0.0,0.0,0.0,0.0
1776358475247082031,34113,0.0,0.4,0.0,0.1,0.04,-0.2,0.06,-3.06,3.44,0.0,0.02,-0.38,-0.0,-0.06,-0.06,11935.89,208.0,0.0,0.0,0.0,0.0
1776358475343278876,34213,0.0,0.3,0.028,1.3,0.08,-0.08,0.06,-3.06,3.44,0.02,-0.0,-0.38,-0.0,0.12,0.0,11938.8,208.0,0.0,0.0,0.0,0.0
1776358475445772036,34313,0.036,1.0,0.0,0.2,-0.1,-0.1,0.06,-3.06,3.44,0.03,0.01,-0.37,0.06,-0.0,0.06,11938.97,204.0,0.0,0.0,0.0,0.0
1776358475549971508,34413,0.024,0.1,0.0,1.2,-0.06,-0.27,0.06,-3.06,3.44,0.03,-0.0,-0.39,-0.12,0.06,0.12,11934.51,196.0,0.0,0.0,0.0,0.0
1776358475648492259,34513,0.0,0.6,0.0,0.6,0.02,-0.1,0.06,-3.06,3.44,0.03,-0.0,-0.38,0.06,0.06,0.0,11935.2,196.0,0.0,0.0,0.0,0.0
1776358475746673077,34612,0.0,0.6,0.0,0.9,-0.06,-0.21,0.06,-3.06,3.44,0.02,0.02,-0.36,0.12,-0.12,0.06,11935.37,198.0,0.0,0.0,0.0,0.0
1776358475879222326,34712,0.0,0.1,0.0,0.8,-0.12,-0.2,0.06,-3.06,3.44,0.02,0.03,-0.4,0.06,0.06,0.06,11938.29,198.0,0.0,0.0,0.0,0.0
1776358475947267155,34812,0.004,0.3,0.0,0.8,-0.06,-0.14,0.06,-3.06,3.44,0.02,0.02,-0.38,-0.0,-0.0,0.0,11937.09,205.0,0.0,0.0,0.0,0.0
1776358476045556160,34912,0.0,0.3,0.0,0.9,0.12,-0.18,0.06,-3.06,3.44,0.02,0.01,-0.4,-0.0,0.06,0.06,11937.6,202.0,0.0,0.0,0.0,0.0
1776358476154113772,35012,0.016,0.1,0.0,0.7,0.04,-0.33,0.06,-3.06,3.44,0.03,-0.0,-0.36,-0.12,0.06,0.0,11937.43,202.0,0.0,0.0,0.0,0.0
1776358476246236911,35112,0.056,0.4,0.0,1.2,0.18,-0.14,0.06,-3.06,3.44,0.02,0.02,-0.36,-0.0,-0.0,0.0,11940.52,197.0,0.0,0.0,0.0,0.0
1776358476351061017,35212,0.04,0.1,0.04,0.6,-0.06,0.02,0.06,-3.06,3.44,0.01,-0.0,-0.37,0.06,0.06,0.06,11940.69,189.0,0.0,0.0,0.0,0.0
1776358476445036317,35312,0.036,0.3,0.0,1.2,-0.08,-0.23,0.06,-3.06,3.44,0.02,0.03,-0.37,-0.0,-0.06,0.0,11942.4,189.0,0.0,0.0,0.0,0.0
1776358476543319576,35412,0.016,0.2,0.0,0.7,-0.06,-0.14,0.06,-3.06,3.44,0.03,0.02,-0.35,-0.0,-0.0,0.06,11940.52,199.0,0.0,0.0,0.0,0.0
1776358476653630469,35512,0.0,0.4,0.012,0.9,0.02,-0.16,0.06,-3.06,3.44,0.0,0.03,-0.41,-0.0,0.06,0.0,11939.14,215.0,0.0,0.0,0.0,0.0
1776358476746072377,35612,0.008,0.5,0.0,1.2,-0.06,-0.18,0.06,-3.06,3.44,0.01,0.01,-0.4,0.06,-0.0,0.06,11939.32,215.0,0.0,0.0,0.0,0.0
1776358476854361493,35713,0.008,0.0,0.0,0.8,-0.02,-0.08,0.06,-3.06,3.44,0.03,0.02,-0.36,0.12,-0.19,0.0,11938.46,194.0,0.0,0.0,0.0,0.0
1776358476956744357,35813,0.0,0.9,0.0,0.2,0.0,-0.08,0.06,-3.06,3.44,0.01,0.03,-0.36,0.12,-0.0,-0.06,11936.4,178.0,0.0,0.0,0.0,0.0
1776358477049149132,35913,0.0,0.7,0.0,0.9,0.02,-0.21,0.06,-3.06,3.44,0.03,0.01,-0.39,0.12,0.06,0.0,11936.57,178.0,0.0,0.0,0.0,0.0
1776358477157365795,36014,0.02,0.1,0.0,0.6,0.12,-0.2,0.06,-3.06,3.44,0.02,0.01,-0.4,-0.0,0.06,0.06,11935.2,207.0,0.0,0.0,0.0,0.0
1776358477249814403,36114,0.06,0.4,0.0,1.0,-0.12,-0.2,0.06,-3.06,3.44,0.01,-0.0,-0.36,-0.06,-0.0,0.0,11938.46,207.0,0.0,0.0,0.0,0.0
1776358477346113157,36214,0.04,0.1,0.0,0.3,-0.1,-0.35,0.06,-3.06,3.44,0.02,0.02,-0.38,-0.06,-0.06,0.06,11938.12,209.0,0.0,0.0,0.0,0.0
1776358477448391651,36314,0.0,0.7,0.0,1.0,0.1,-0.27,0.06,-3.06,3.44,0.0,0.02,-0.36,-0.12,-0.06,-0.06,11937.77,194.0,0.0,0.0,0.0,0.0
1776358477548666023,36414,0.0,0.6,0.0,1.2,-0.06,-0.25,0.06,-3.06,3.44,0.02,0.03,-0.36,-0.0,0.12,-0.06,11937.09,194.0,0.0,0.0,0.0,0.0
1776358477646966659,36513,0.008,0.5,0.008,0.2,-0.1,-0.2,0.06,-3.06,3.44,0.03,0.03,-0.36,-0.0,0.06,0.06,11941.03,174.0,0.0,0.0,0.0,0.0
1776358477749411195,36613,0.012,0.1,0.0,0.7,0.08,-0.31,0.06,-3.06,3.44,0.02,0.02,-0.37,-0.06,0.19,0.06,11937.09,196.0,0.0,0.0,0.0,0.0
1776358477847656057,36713,0.0,0.2,0.0,0.2,0.06,-0.14,0.06,-3.06,3.44,0.01,0.02,-0.36,-0.0,0.06,-0.06,11936.74,196.0,0.0,0.0,0.0,0.0
1776358477950080910,36813,0.0,0.9,0.0,0.6,0.04,-0.2,0.06,-3.06,3.44,0.01,0.03,-0.35,0.06,0.06,0.06,11936.4,182.0,0.0,0.0,0.0,0.0
1776358478048384868,36913,0.008,0.2,0.0,0.7,0.04,-0.18,0.06,-3.06,3.44,0.03,0.01,-0.36,-0.06,0.06,-0.06,11936.91,182.0,0.0,0.0,0.0,0.0
1776358478156753582,37013,0.0,0.1,0.02,0.5,-0.1,-0.1,0.06,-3.06,3.44,0.0,0.03,-0.36,-0.0,-0.0,0.06,11936.74,207.0,0.0,0.0,0.0,0.0
1776358478249071092,37113,0.048,0.1,0.0,1.0,-0.14,-0.25,0.06,-3.06,3.44,0.02,-0.0,-0.37,-0.0,0.12,0.0,11936.91,201.0,0.0,0.0,0.0,0.0
1776358478347336503,37213,0.0,0.5,0.0,1.3,-0.02,-0.1,0.06,-3.06,3.44,0.02,0.02,-0.36,0.06,0.12,0.06,11939.14,201.0,0.0,0.0,0.0,0.0
1776358478659217679,37313,0.024,0.4,0.0,1.1,0.04,-0.23,0.06,-3.06,3.44,0.0,0.02,-0.38,-0.06,0.12,-0.06,11939.66,204.0,0.0,0.0,0.0,0.0
1776358478662741238,37413,0.02,0.3,0.0,0.6,-0.08,-0.18,0.06,-3.06,3.44,0.0,0.02,-0.36,-0.06,-0.0,0.0,11937.26,201.0,0.0,0.0,0.0,0.0
1776358478677705058,37513,0.0,0.9,0.0,0.8,-0.08,-0.08,0.06,-3.06,3.44,0.01,0.02,-0.39,0.06,-0.19,0.06,11938.12,201.0,0.0,0.0,0.0,0.0
1776358478748620920,37613,0.012,0.6,0.0,0.9,-0.1,-0.37,0.06,-3.06,3.44,0.04,0.03,-0.38,-0.06,-0.12,0.0,11938.12,200.0,0.0,0.0,0.0,0.0
1776358478857147104,37713,0.008,0.3,0.0,1.0,0.06,-0.23,0.06,-3.06,3.44,0.03,0.01,-0.37,-0.0,-0.0,0.06,11937.26,212.0,0.0,0.0,0.0,0.0
1776358478955281969,37813,0.008,0.1,0.0,1.2,0.02,-0.16,0.06,-3.06,3.44,0.03,0.02,-0.39,0.12,-0.06,0.0,11939.66,212.0,0.0,0.0,0.0,0.0
1776358479057883295,37913,0.0,1.1,0.0,0.3,-0.02,-0.27,0.06,-3.06,3.44,0.01,0.02,-0.36,-0.0,0.06,0.12,11938.63,198.0,0.0,0.0,0.0,0.0
1776358479156051863,38013,0.024,0.1,0.0,0.7,-0.02,-0.2,0.06,-3.06,3.44,0.02,-0.0,-0.37,0.06,-0.0,0.12,11938.46,182.0,0.0,0.0,0.0,0.0
1776358479248490655,38113,0.0,0.2,0.04,0.5,0.06,-0.2,0.06,-3.06,3.44,0.02,0.01,-0.37,-0.0,0.06,0.0,11938.8,182.0,0.0,0.0,0.0,0.0
1776358479348764839,38212,0.0,0.3,0.032,0.3,-0.12,-0.25,0.06,-3.06,3.44,0.02,0.02,-0.38,0.12,-0.12,0.06,11938.8,204.0,0.0,0.0,0.0,0.0
1776358479447032974,38312,0.0,0.0,0.0,0.4,-0.1,-0.14,0.06,-3.06,3.44,0.03,0.02,-0.35,-0.0,0.06,0.06,11939.49,204.0,0.0,0.0,0.0,0.0
1776358479547260439,38412,0.024,0.2,0.0,1.1,-0.02,-0.14,0.06,-3.06,3.44,0.01,0.02,-0.36,-0.0,-0.06,0.06,11938.63,192.0,0.0,0.0,0.0,0.0
1776358479649770322,38512,0.016,0.1,0.0,1.1,0.18,-0.29,0.06,-3.06,3.44,0.02,0.01,-0.36,-0.06,-0.12,0.06,11939.66,178.0,0.0,0.0,0.0,0.0
1776358479748050493,38612,0.0,0.5,0.0,0.7,0.06,-0.12,0.06,-3.06,3.44,0.02,0.02,-0.35,-0.0,0.06,0.0,11941.03,178.0,0.0,0.0,0.0,0.0
1776358479850442348,38712,0.004,0.0,0.0,1.0,-0.06,-0.2,0.06,-3.06,3.44,0.01,0.01,-0.35,-0.0,-0.06,0.0,11940.86,214.0,0.0,0.0,0.0,0.0
1776358479948641432,38812,0.008,0.4,0.0,0.8,0.0,-0.21,0.06,-3.06,3.44,0.04,0.03,-0.36,-0.0,-0.19,-0.12,11940.52,203.0,0.0,0.0,0.0,0.0
1776358480051224460,38913,0.008,0.1,0.0,0.3,-0.18,-0.2,0.06,-3.06,3.44,0.02,0.01,-0.35,0.06,0.06,-0.06,11938.12,203.0,0.0,0.0,0.0,0.0
1776358480149312229,39013,0.024,0.2,0.0,1.0,0.04,-0.14,0.06,-3.06,3.44,0.01,0.01,-0.35,-0.06,-0.0,0.12,11938.46,194.0,0.0,0.0,0.0,0.0
1776358480251903266,39113,0.044,0.3,0.0,0.5,-0.04,-0.27,0.06,-3.06,3.44,0.0,0.01,-0.36,-0.12,0.19,-0.06,11938.46,194.0,0.0,0.0,0.0,0.0
1776358480349843471,39213,0.036,0.1,0.0,1.3,0.02,-0.23,0.06,-3.06,3.44,0.01,-0.0,-0.36,-0.06,-0.0,0.06,11939.49,190.0,0.0,0.0,0.0,0.0
1776358480450418747,39313,0.024,0.3,0.0,1.1,-0.08,-0.25,0.06,-3.06,3.44,0.01,0.03,-0.33,0.06,-0.06,0.0,11936.4,206.0,0.0,0.0,0.0,0.0
1776358480554754728,39413,0.0,0.1,0.0,0.9,0.0,-0.14,0.06,-3.06,3.44,0.0,0.03,-0.36,-0.0,0.12,0.06,11939.66,206.0,0.0,0.0,0.0,0.0
1776358480653113184,39514,0.0,0.3,0.004,0.4,-0.12,-0.21,0.06,-3.06,3.44,0.02,-0.0,-0.36,0.12,-0.0,0.0,11937.77,208.0,0.0,0.0,0.0,0.0
1776358480751354332,39614,0.0,0.2,0.0,1.1,-0.12,-0.16,0.06,-3.06,3.44,0.02,0.02,-0.36,-0.06,-0.12,0.12,11938.46,185.0,0.0,0.0,0.0,0.0
1776358480853933111,39714,0.0,0.6,0.0,0.7,-0.02,-0.18,0.06,-3.06,3.44,0.0,0.01,-0.38,-0.12,-0.0,0.0,11936.57,185.0,0.0,0.0,0.0,0.0
1776358480952036212,39815,0.0,0.1,0.004,0.3,0.14,-0.29,0.06,-3.06,3.44,0.02,0.03,-0.34,-0.06,0.12,0.0,11936.06,195.0,0.0,0.0,0.0,0.0
1776358481060539096,39915,0.004,0.3,0.0,0.4,-0.04,-0.25,0.06,-3.06,3.44,0.03,0.02,-0.35,0.12,-0.19,0.06,11937.09,189.0,0.0,0.0,0.0,0.0
1776358481152908618,40015,0.024,0.3,0.0,0.8,-0.14,-0.14,0.06,-3.06,3.44,0.01,0.01,-0.38,-0.06,0.06,0.0,11940.17,189.0,0.0,0.0,0.0,0.0
1776358481251125327,40115,0.0,0.9,0.048,0.2,0.1,-0.18,0.06,-3.06,3.44,0.02,0.01,-0.36,-0.06,0.06,0.06,11937.26,212.0,0.0,0.0,0.0,0.0
1776358481351504776,40215,0.04,0.2,0.0,0.6,-0.1,-0.18,0.06,-3.06,3.44,0.03,0.01,-0.34,-0.12,-0.0,-0.06,11938.97,201.0,0.0,0.0,0.0,0.0
1776358481449778315,40315,0.0,0.9,0.0,0.2,-0.02,-0.23,0.06,-3.06,3.44,0.01,0.01,-0.38,0.06,-0.0,-0.06,11938.63,201.0,0.0,0.0,0.0,0.0
1776358481558160600,40415,0.02,0.3,0.0,0.4,-0.06,-0.14,0.06,-3.06,3.44,0.02,-0.0,-0.36,-0.06,0.06,0.06,11933.83,198.0,0.0,0.0,0.0,0.0
1776358481652585814,40515,0.0,0.6,0.004,0.8,-0.02,-0.16,0.06,-3.06,3.44,0.01,0.02,-0.37,-0.06,0.06,0.19,11936.06,198.0,0.0,0.0,0.0,0.0
1776358481750777894,40615,0.0,0.1,0.0,1.2,-0.04,-0.12,0.06,-3.06,3.44,0.01,0.03,-0.36,-0.06,-0.06,0.0,11938.12,226.0,0.0,0.0,0.0,0.0
1776358481859193177,40715,0.008,0.5,0.0,1.0,-0.12,-0.2,0.06,-3.06,3.44,0.02,0.02,-0.37,0.06,-0.06,0.06,11939.14,204.0,0.0,0.0,0.0,0.0
1776358481953546562,40815,0.004,0.2,0.0,0.3,-0.02,-0.33,0.06,-3.06,3.44,0.02,0.03,-0.35,0.06,-0.06,-0.06,11940.34,204.0,0.0,0.0,0.0,0.0
1776358482059795135,40915,0.0,0.7,0.0,0.9,0.0,-0.16,0.06,-3.06,3.44,0.01,0.02,-0.35,-0.06,-0.06,0.0,11940.0,203.0,0.0,0.0,0.0,0.0
1776358482152159318,41015,0.0,0.7,0.024,0.2,-0.04,-0.18,0.06,-3.06,3.44,0.0,0.03,-0.33,-0.06,-0.12,0.0,11937.26,196.0,0.0,0.0,0.0,0.0
1776358482260546323,41115,0.056,0.1,0.0,1.0,0.1,-0.25,0.06,-3.06,3.44,0.01,0.01,-0.36,-0.12,-0.06,0.0,11937.6,196.0,0.0,0.0,0.0,0.0
1776358482354913134,41216,0.044,0.0,0.0,-0.1,-0.1,-0.33,0.06,-3.06,3.44,0.0,0.01,-0.35,0.06,0.12,0.06,11935.89,192.0,0.0,0.0,0.0,0.0
1776358482459204110,41316,0.0,0.1,0.0,1.0,0.14,-0.18,0.06,-3.06,3.44,0.03,0.01,-0.34,-0.25,-0.0,0.0,11936.23,198.0,0.0,0.0,0.0,0.0
1776358482553579884,41416,0.024,0.2,0.0,1.2,-0.02,-0.25,0.06,-3.06,3.44,0.0,0.03,-0.33,-0.12,0.06,0.0,11937.09,198.0,0.0,0.0,0.0,0.0
1776358482661911318,41517,0.0,1.0,0.008,0.7,0.0,-0.2,0.06,-3.06,3.44,0.03,-0.0,-0.37,0.12,-0.19,0.06,11936.91,194.0,0.0,0.0,0.0,0.0
1776358482754290278,41617,0.012,0.2,0.0,0.9,-0.08,-0.16,0.06,-3.06,3.44,0.0,0.03,-0.37,-0.0,-0.0,0.0,11937.77,194.0,0.0,0.0,0.0,0.0
1776358483407226489,41717,0.0,0.6,0.004,0.2,0.02,-0.25,0.06,-3.06,3.44,0.03,0.02,-0.36,0.06,-0.0,0.0,11937.6,206.0,0.0,0.0,0.0,0.0
1776358483444336424,41817,0.008,0.2,0.0,1.2,0.04,-0.14,0.06,-3.06,3.44,0.02,0.01,-0.36,-0.0,0.06,0.06,11933.48,201.0,0.0,0.0,0.0,0.0
1776358483448461280,41917,0.0,0.9,0.0,0.8,-0.02,0.02,0.06,-3.06,3.44,0.03,0.03,-0.38,-0.0,0.06,0.06,11938.97,201.0,0.0,0.0,0.0,0.0
1776358483452531048,42017,0.024,0.0,0.0,1.0,-0.12,-0.29,0.06,-3.06,3.44,0.0,0.01,-0.35,0.12,-0.0,-0.06,11936.57,201.0,0.0,0.0,0.0,0.0
1776358483460847962,42117,0.052,-0.1,0.0,1.1,-0.02,-0.21,0.06,-3.06,3.44,0.02,0.02,-0.37,-0.06,0.12,0.06,11938.97,201.0,0.0,0.0,0.0,0.0
1776358483464843140,42217,0.0,0.6,0.024,0.3,-0.02,-0.08,0.06,-3.06,3.44,0.01,-0.0,-0.36,0.12,-0.06,-0.06,11940.69,201.0,0.0,0.0,0.0,0.0
1776358483469060233,42316,0.0,0.6,0.0,1.0,-0.06,-0.06,0.06,-3.06,3.44,0.01,0.02,-0.34,0.06,0.06,0.0,11939.14,205.0,0.0,0.0,0.0,0.0
1776358483562972399,42416,0.024,0.0,0.0,1.0,0.0,-0.1,0.06,-3.06,3.44,0.0,0.03,-0.35,-0.0,-0.0,0.12,11935.37,221.0,0.0,0.0,0.0,0.0
1776358483661223282,42516,0.016,0.2,0.0,0.9,0.04,-0.23,0.06,-3.06,3.44,0.03,0.02,-0.37,0.06,-0.0,0.0,11937.94,221.0,0.0,0.0,0.0,0.0
1776358483753556735,42616,0.004,0.3,0.0,1.1,-0.08,-0.18,0.06,-3.06,3.44,0.02,0.02,-0.37,-0.0,-0.0,-0.12,11935.54,212.0,0.0,0.0,0.0,0.0
1776358483963227177,42716,0.0,0.6,0.0,0.4,-0.04,-0.14,0.06,-3.06,3.44,0.01,0.02,-0.34,-0.0,-0.06,-0.06,11937.43,212.0,0.0,0.0,0.0,0.0
1776358483976944455,42816,0.0,0.3,0.0,0.2,0.08,-0.08,0.06,-3.06,3.44,0.01,0.03,-0.35,0.12,0.06,0.06,11936.91,210.0,0.0,0.0,0.0,0.0
1776358484062717245,42916,0.004,0.3,0.0,0.6,-0.23,-0.21,0.06,-3.06,3.44,0.0,0.03,-0.36,-0.0,0.12,0.06,11936.74,187.0,0.0,0.0,0.0,0.0
1776358484160839105,43016,0.02,0.1,0.02,0.7,0.02,-0.2,0.06,-3.06,3.44,0.02,0.02,-0.34,-0.06,-0.0,0.0,11937.77,187.0,0.0,0.0,0.0,0.0
1776358484263294511,43116,0.056,0.2,0.044,0.2,-0.06,-0.21,0.06,-3.06,3.44,0.02,0.02,-0.39,-0.0,-0.0,0.0,11938.12,190.0,0.0,0.0,0.0,0.0
1776358484353575703,43216,0.0,0.1,0.028,0.4,-0.08,-0.21,0.06,-3.06,3.44,0.04,0.02,-0.36,-0.06,-0.06,0.0,11936.57,197.0,0.0,0.0,0.0,0.0
1776358484455977389,43316,0.0,0.9,0.0,0.4,0.06,-0.29,0.06,-3.06,3.44,0.02,0.01,-0.35,-0.0,0.12,0.0,11940.52,197.0,0.0,0.0,0.0,0.0
1776358484562149648,43416,0.024,0.1,0.0,1.0,-0.04,-0.27,0.06,-3.06,3.44,0.02,0.03,-0.36,-0.0,-0.06,0.06,11937.6,213.0,0.0,0.0,0.0,0.0
1776358484654479090,43516,0.016,0.1,0.0,0.9,-0.04,-0.39,0.06,-3.06,3.44,0.03,0.01,-0.37,-0.0,-0.0,0.0,11936.91,216.0,0.0,0.0,0.0,0.0
1776358484763010122,43616,0.016,0.4,0.0,0.7,0.04,-0.21,0.06,-3.06,3.44,0.01,0.03,-0.35,-0.06,-0.0,-0.12,11936.91,216.0,0.0,0.0,0.0,0.0
1776358484855279216,43716,0.0,0.4,0.0,0.6,0.0,-0.21,0.06,-3.06,3.44,0.03,-0.0,-0.36,-0.0,-0.06,0.0,11935.54,206.0,0.0,0.0,0.0,0.0
1776358484963768712,43816,0.008,0.2,0.0,1.4,0.1,-0.1,0.06,-3.06,3.44,0.02,0.03,-0.39,-0.0,-0.0,0.12,11935.03,206.0,0.0,0.0,0.0,0.0
1776358485055971398,43916,0.0,0.2,0.0,0.8,0.02,-0.2,0.06,-3.06,3.44,0.03,0.02,-0.37,-0.0,0.06,-0.06,11936.23,193.0,0.0,0.0,0.0,0.0
1776358485164357642,44016,0.028,0.2,0.0,0.6,-0.12,-0.33,0.06,-3.06,3.44,0.02,0.01,-0.36,0.06,0.06,0.0,11934.86,182.0,0.0,0.0,0.0,0.0
1776358485256645908,44116,0.0,0.1,0.0,1.3,-0.1,-0.21,0.06,-3.06,3.44,0.01,0.03,-0.38,0.06,-0.0,0.0,11935.54,182.0,0.0,0.0,0.0,0.0
1776358485353024652,44215,0.032,0.3,0.0,0.8,0.08,-0.21,0.06,-3.06,3.44,0.0,0.02,-0.36,-0.0,0.06,-0.06,11937.09,196.0,0.0,0.0,0.0,0.0
1776358485461301993,44315,0.028,0.1,0.0,1.0,-0.04,-0.21,0.06,-3.06,3.44,0.02,0.03,-0.35,0.06,0.06,0.0,11934.86,214.0,0.0,0.0,0.0,0.0
1776358485555680644,44416,0.0,0.7,0.0,0.9,-0.14,-0.16,0.06,-3.06,3.44,0.02,-0.0,-0.35,0.06,-0.0,0.0,11937.43,214.0,0.0,0.0,0.0,0.0
1776358485657933116,44516,0.012,0.2,0.0,0.3,-0.06,-0.14,0.06,-3.06,3.44,0.03,0.01,-0.38,0.19,-0.12,0.12,11935.54,203.0,0.0,0.0,0.0,0.0
1776358485756320507,44616,0.0,0.2,0.0,0.7,0.0,-0.18,0.06,-3.06,3.44,0.0,-0.0,-0.37,-0.0,0.06,0.06,11935.2,190.0,0.0,0.0,0.0,0.0
1776358485858802061,44716,0.008,0.5,0.0,0.7,0.04,-0.18,0.06,-3.06,3.44,0.0,0.04,-0.36,0.06,-0.0,-0.12,11937.94,190.0,0.0,0.0,0.0,0.0
1776358485957015812,44816,0.012,0.1,0.0,1.3,-0.02,-0.2,0.06,-3.06,3.44,0.0,-0.0,-0.34,-0.06,-0.12,0.06,11934.86,197.0,0.0,0.0,0.0,0.0
1776358486055298839,44916,0.004,0.4,0.0,1.2,0.02,-0.14,0.06,-3.06,3.44,0.02,-0.0,-0.38,0.06,-0.0,0.12,11937.43,213.0,0.0,0.0,0.0,0.0
1776358486163713599,45016,0.024,0.1,0.0,1.0,0.12,-0.29,0.06,-3.06,3.44,0.01,0.01,-0.35,-0.06,-0.0,0.0,11938.29,213.0,0.0,0.0,0.0,0.0
1776358486256003965,45116,0.056,0.1,0.0,0.3,0.02,-0.16,0.06,-3.06,3.44,0.02,0.01,-0.36,0.19,-0.06,0.0,11937.94,195.0,0.0,0.0,0.0,0.0
1776358486356341575,45216,0.0,0.2,0.0,1.1,0.04,-0.31,0.06,-3.06,3.44,0.01,-0.0,-0.4,0.12,0.12,0.0,11939.66,195.0,0.0,0.0,0.0,0.0
1776358486460639791,45317,0.016,0.1,0.0,0.3,-0.04,-0.33,0.06,-3.06,3.44,0.0,0.02,-0.4,-0.0,-0.0,0.0,11939.14,229.0,0.0,0.0,0.0,0.0
1776358486565105314,45417,0.0,0.6,0.0,0.2,-0.08,-0.23,0.06,-3.06,3.44,0.01,0.02,-0.36,0.06,-0.12,-0.12,11937.77,219.0,0.0,0.0,0.0,0.0
1776358486657471363,45517,0.016,0.2,0.0,1.1,-0.02,-0.2,0.06,-3.06,3.44,0.01,0.02,-0.37,-0.0,-0.0,-0.06,11938.46,219.0,0.0,0.0,0.0,0.0
1776358486765778460,45618,0.02,0.0,0.0,0.2,-0.04,-0.2,0.06,-3.06,3.44,0.03,0.01,-0.36,0.06,-0.0,0.06,11936.4,184.0,0.0,0.0,0.0,0.0
1776358486857962387,45718,0.0,0.9,0.0,0.7,-0.02,-0.21,0.06,-3.06,3.44,0.03,0.01,-0.37,0.06,-0.0,0.0,11934.86,175.0,0.0,0.0,0.0,0.0
1776358486958439176,45818,0.0,0.4,0.0,0.9,-0.08,-0.21,0.06,-3.06,3.44,0.03,0.03,-0.37,0.06,-0.0,0.0,11936.4,175.0,0.0,0.0,0.0,0.0
1776358487058750222,45919,0.004,0.0,0.0,0.2,0.1,-0.27,0.06,-3.06,3.44,0.02,0.02,-0.37,0.12,0.12,0.06,11936.4,220.0,0.0,0.0,0.0,0.0
1776358487167167479,46019,0.024,0.2,0.0,1.0,-0.18,-0.12,0.06,-3.06,3.44,0.03,0.03,-0.37,-0.0,-0.0,0.0,11938.12,220.0,0.0,0.0,0.0,0.0
1776358487259341230,46118,0.052,0.2,0.0,0.9,-0.16,-0.06,0.06,-3.06,3.44,0.0,0.02,-0.36,-0.12,-0.06,-0.12,11938.63,223.0,0.0,0.0,0.0,0.0
1776358487359775738,46218,0.04,0.0,0.0,0.3,0.0,-0.12,0.06,-3.06,3.44,0.0,0.01,-0.38,-0.06,0.12,0.06,11940.17,204.0,0.0,0.0,0.0,0.0
1776358487460028901,46318,0.0,0.4,0.0,1.1,-0.08,-0.04,0.06,-3.06,3.44,0.03,-0.0,-0.38,-0.06,0.12,0.0,11940.86,204.0,0.0,0.0,0.0,0.0
1776358487558418918,46418,0.0,0.4,0.024,0.3,-0.06,-0.18,0.06,-3.06,3.44,0.01,0.04,-0.37,-0.06,-0.0,0.0,11939.49,216.0,0.0,0.0,0.0,0.0
1776358487666799843,46518,0.016,0.2,0.0,1.2,0.14,-0.31,0.06,-3.06,3.44,0.02,-0.0,-0.34,0.06,0.06,0.0,11935.71,246.0,0.0,0.0,0.0,0.0
1776358487759103644,46618,0.0,0.7,0.0,0.8,-0.02,-0.16,0.06,-3.06,3.44,0.0,-0.0,-0.38,-0.06,-0.0,-0.06,11935.71,246.0,0.0,0.0,0.0,0.0
1776358487867518883,46718,0.0,0.4,0.0,0.4,0.04,-0.23,0.06,-3.06,3.44,0.03,0.03,-0.39,-0.12,-0.12,-0.06,11932.97,177.0,0.0,0.0,0.0,0.0
1776358487959810444,46818,0.0,0.3,0.0,1.0,-0.1,-0.21,0.06,-3.06,3.44,0.02,0.02,-0.36,-0.0,-0.06,0.0,11935.89,214.0,0.0,0.0,0.0,0.0
1776358488058139260,46918,0.0,0.2,0.0,0.4,-0.06,-0.27,0.06,-3.06,3.44,0.02,0.02,-0.37,-0.06,-0.12,0.0,11938.12,214.0,0.0,0.0,0.0,0.0
1776358488160509893,47019,0.028,0.2,0.0,0.3,0.1,-0.1,0.06,-3.06,3.44,0.0,0.03,-0.36,0.06,0.12,0.06,11937.94,224.0,0.0,0.0,0.0,0.0
1776358488268811634,47119,0.0,0.3,0.048,0.7,0.02,-0.06,0.06,-3.06,3.44,0.01,0.01,-0.37,-0.06,0.12,-0.06,11937.09,233.0,0.0,0.0,0.0,0.0
1776358488359238797,47219,0.04,0.3,0.0,0.5,0.06,-0.29,0.06,-3.06,3.44,0.02,0.02,-0.39,-0.19,0.06,0.06,11940.34,233.0,0.0,0.0,0.0,0.0
1776358488457473255,47319,0.024,-0.1,0.02,0.9,0.2,-0.06,0.06,-3.06,3.44,0.01,0.02,-0.36,-0.0,-0.0,0.06,11935.2,207.0,0.0,0.0,0.0,0.0
1776358488561915421,47419,0.0,0.2,0.0,0.4,0.0,-0.21,0.06,-3.06,3.44,0.03,0.02,-0.4,-0.0,-0.0,-0.12,11937.77,207.0,0.0,0.0,0.0,0.0
1776358488660199784,47519,0.008,0.0,0.0,0.6,0.0,-0.08,0.06,-3.06,3.44,0.02,0.01,-0.38,-0.0,-0.06,0.06,11938.12,237.0,0.0,0.0,0.0,0.0
1776358488762567918,47619,0.0,0.3,0.0,0.5,-0.02,-0.25,0.06,-3.06,3.44,0.02,0.01,-0.36,-0.06,-0.0,-0.06,11936.74,207.0,0.0,0.0,0.0,0.0
1776358488860934130,47719,0.004,0.2,0.0,0.2,0.08,-0.14,0.06,-3.06,3.44,0.02,0.02,-0.39,-0.06,-0.12,0.0,11937.26,207.0,0.0,0.0,0.0,0.0
1776358488969291554,47819,0.0,0.7,0.0,0.5,-0.04,-0.18,0.06,-3.06,3.44,0.0,0.01,-0.39,0.06,0.06,0.0,11941.37,240.0,0.0,0.0,0.0,0.0
1776358489061632743,47919,0.0,0.1,0.0,1.1,-0.02,-0.29,0.06,-3.06,3.44,0.01,0.03,-0.38,-0.0,-0.06,0.0,11938.97,172.0,0.0,0.0,0.0,0.0
1776358489159756939,48019,0.036,0.2,0.0,1.0,-0.06,-0.12,0.06,-3.06,3.44,0.02,0.01,-0.36,-0.06,-0.0,0.12,11938.29,172.0,0.0,0.0,0.0,0.0
1776358489268149805,48119,0.0,0.3,0.0,1.1,0.04,-0.31,0.06,-3.06,3.44,0.03,0.01,-0.39,-0.06,-0.12,0.06,11935.89,219.0,0.0,0.0,0.0,0.0
1776358489358535055,48219,0.04,0.3,0.0,1.0,0.0,-0.29,0.06,-3.06,3.44,0.03,0.03,-0.36,-0.0,0.12,-0.12,11936.57,219.0,0.0,0.0,0.0,0.0
1776358489466899941,48319,0.024,0.3,0.0,0.3,0.0,-0.16,0.06,-3.06,3.44,0.01,-0.0,-0.36,-0.0,-0.0,0.0,11937.6,197.0,0.0,0.0,0.0,0.0
1776358489567242335,48419,0.02,0.5,0.0,0.8,-0.04,-0.08,0.06,-3.06,3.44,0.0,0.02,-0.38,-0.06,0.06,0.0,11936.74,220.0,0.0,0.0,0.0,0.0
1776358489661597703,48519,0.02,0.4,0.008,0.3,0.02,-0.21,0.06,-3.06,3.44,0.03,-0.0,-0.38,-0.12,-0.0,-0.06,11939.14,220.0,0.0,0.0,0.0,0.0
1776358489767886052,48619,0.008,0.0,0.0,0.8,0.06,-0.1,0.06,-3.06,3.44,0.01,0.01,-0.37,-0.0,-0.12,-0.06,11939.66,195.0,0.0,0.0,0.0,0.0
1776358489860212770,48719,0.0,0.2,0.0,0.4,-0.08,-0.25,0.06,-3.06,3.44,0.03,0.02,-0.4,-0.0,-0.0,0.0,11936.57,185.0,0.0,0.0,0.0,0.0
1776358489968642135,48819,0.0,0.6,0.0,0.7,0.1,-0.2,0.06,-3.06,3.44,0.02,0.03,-0.4,-0.0,0.19,-0.06,11940.52,185.0,0.0,0.0,0.0,0.0
1776358490060859263,48919,0.004,0.3,0.0,0.8,0.1,-0.2,0.06,-3.06,3.44,0.03,0.03,-0.36,-0.06,0.06,0.06,11937.09,228.0,0.0,0.0,0.0,0.0
1776358490169283333,49019,0.032,0.2,0.0,1.1,-0.1,-0.1,0.06,-3.06,3.44,0.01,0.02,-0.39,0.12,-0.06,-0.06,11936.74,208.0,0.0,0.0,0.0,0.0
1776358490261659423,49119,0.0,0.7,0.0,0.5,-0.08,-0.21,0.06,-3.06,3.44,0.02,0.03,-0.39,0.06,0.12,0.06,11937.77,208.0,0.0,0.0,0.0,0.0
1776358490361979672,49219,0.0,0.7,0.0,0.2,-0.06,-0.21,0.06,-3.06,3.44,0.03,0.01,-0.36,-0.0,-0.12,0.06,11936.74,208.0,0.0,0.0,0.0,0.0
1776358490466188883,49319,0.0,0.7,0.0,0.9,0.04,-0.08,0.06,-3.06,3.44,0.0,0.02,-0.37,-0.0,-0.0,-0.06,11936.06,177.0,0.0,0.0,0.0,0.0
1776358490560573794,49419,0.0,0.3,0.0,1.1,0.08,-0.25,0.06,-3.06,3.44,0.0,0.01,-0.36,-0.0,0.06,0.06,11936.57,177.0,0.0,0.0,0.0,0.0
1776358490662984862,49519,0.016,0.1,0.0,0.9,0.0,-0.12,0.06,-3.06,3.44,0.02,0.02,-0.39,0.06,-0.06,0.0,11934.68,236.0,0.0,0.0,0.0,0.0
1776358490761377694,49619,0.0,0.6,0.0,0.8,-0.08,-0.1,0.06,-3.06,3.44,0.02,-0.0,-0.36,0.06,-0.0,0.06,11935.37,236.0,0.0,0.0,0.0,0.0
1776358490863549011,49719,0.012,0.4,0.0,0.7,-0.1,-0.06,0.06,-3.06,3.44,0.01,-0.0,-0.35,0.12,-0.12,-0.06,11939.14,183.0,0.0,0.0,0.0,0.0
1776358490961964398,49819,0.0,0.3,0.0,1.0,0.04,-0.25,0.06,-3.06,3.44,0.02,-0.0,-0.37,0.06,-0.06,0.0,11935.89,189.0,0.0,0.0,0.0,0.0
1776358491064437975,49920,0.0,0.5,0.0,0.8,0.02,-0.14,0.06,-3.06,3.44,0.03,0.02,-0.36,0.12,-0.0,-0.06,11936.4,189.0,0.0,0.0,0.0,0.0
1776358491162646074,50020,0.0,0.6,0.016,0.1,0.0,-0.25,0.06,-3.06,3.44,0.03,0.03,-0.36,-0.06,-0.06,0.06,11936.74,215.0,0.0,0.0,0.0,0.0
1776358491265077689,50120,0.052,0.0,0.0,1.2,0.06,-0.18,0.06,-3.06,3.44,0.02,-0.0,-0.36,-0.06,-0.0,0.0,11933.83,207.0,0.0,0.0,0.0,0.0
1776358491361340684,50220,0.028,0.2,0.0,1.0,-0.06,-0.25,0.06,-3.06,3.44,0.01,0.04,-0.37,-0.06,-0.0,0.0,11936.06,207.0,0.0,0.0,0.0,0.0
1776358491465544391,50320,0.024,0.3,0.0,0.7,-0.08,-0.25,0.06,-3.06,3.44,0.02,0.02,-0.35,0.06,0.06,-0.06,11937.26,183.0,0.0,0.0,0.0,0.0
1776358491564005742,50420,0.024,0.1,0.0,0.7,0.12,-0.33,0.06,-3.06,3.44,0.03,0.04,-0.35,-0.0,0.06,0.0,11937.6,221.0,0.0,0.0,0.0,0.0
1776358491662424668,50520,0.0,0.6,0.012,0.5,-0.08,-0.21,0.06,-3.06,3.44,0.01,-0.0,-0.36,0.06,-0.06,0.06,11937.26,221.0,0.0,0.0,0.0,0.0
1776358491770651176,50620,0.004,0.2,0.0,1.0,-0.02,-0.18,0.06,-3.06,3.44,0.02,0.02,-0.35,0.06,0.06,-0.06,11936.4,215.0,0.0,0.0,0.0,0.0
1776358491863110160,50719,0.008,0.2,0.0,0.6,-0.02,-0.2,0.06,-3.06,3.44,0.01,0.01,-0.36,-0.0,-0.12,-0.06,11935.71,215.0,0.0,0.0,0.0,0.0
1776358491971416590,50820,0.0,0.1,0.0,0.8,-0.02,-0.25,0.06,-3.06,3.44,0.02,0.02,-0.39,0.12,-0.06,-0.06,11934.68,222.0,0.0,0.0,0.0,0.0
1776358492069723632,50920,0.0,0.3,0.0,0.7,-0.1,-0.2,0.06,-3.06,3.44,0.0,0.02,-0.37,-0.0,0.06,-0.06,11933.66,209.0,0.0,0.0,0.0,0.0
1776358492164105185,51020,0.0,0.1,0.0,1.1,-0.04,-0.14,0.06,-3.06,3.44,0.0,0.01,-0.38,0.06,-0.0,0.0,11933.66,209.0,0.0,0.0,0.0,0.0
1776358492270356871,51121,0.052,-0.1,0.0,1.0,0.04,-0.16,0.06,-3.06,3.44,0.0,0.02,-0.38,0.06,-0.06,-0.06,11934.51,184.0,0.0,0.0,0.0,0.0
1776358492364760183,51221,0.032,-0.2,0.0,1.1,0.06,-0.04,0.06,-3.06,3.44,0.0,0.02,-0.36,0.06,-0.06,-0.12,11933.66,200.0,0.0,0.0,0.0,0.0
1776358492463070824,51321,0.0,0.6,0.032,0.2,0.0,-0.18,0.06,-3.06,3.44,0.02,0.03,-0.36,-0.0,0.06,0.06,11934.0,200.0,0.0,0.0,0.0,0.0
1776358492573495108,51422,0.0,0.6,0.0,0.4,0.0,-0.2,0.06,-3.06,3.44,0.01,-0.0,-0.36,-0.0,-0.06,0.06,11932.45,219.0,0.0,0.0,0.0,0.0
1776358492665781520,51522,0.0,0.2,0.0,0.9,-0.06,-0.27,0.06,-3.06,3.44,0.0,0.02,-0.37,-0.12,0.06,0.06,11934.17,182.0,0.0,0.0,0.0,0.0
1776358492774329137,51622,0.012,0.0,0.0,1.1,0.16,-0.23,0.06,-3.06,3.44,0.03,0.01,-0.37,-0.12,0.12,-0.06,11936.74,182.0,0.0,0.0,0.0,0.0
1776358492866446220,51722,0.008,0.1,0.0,1.2,-0.12,-0.25,0.06,-3.06,3.44,0.0,0.01,-0.36,0.12,-0.0,-0.06,11937.26,204.0,0.0,0.0,0.0,0.0
1776358492974956784,51822,0.008,0.2,0.004,0.7,-0.02,-0.1,0.06,-3.06,3.44,0.03,0.01,-0.35,0.06,-0.0,0.06,11937.09,204.0,0.0,0.0,0.0,0.0
1776358493067192425,51922,0.0,0.5,0.0,0.1,0.04,-0.23,0.06,-3.06,3.44,0.01,-0.0,-0.38,-0.06,0.06,0.06,11938.8,210.0,0.0,0.0,0.0,0.0
1776358493165464397,52022,0.0,0.5,0.028,0.3,0.12,-0.21,0.06,-3.06,3.44,0.0,0.03,-0.36,-0.0,-0.06,-0.12,11936.4,178.0,0.0,0.0,0.0,0.0
1776358493267950660,52122,0.056,0.6,0.0,1.1,0.1,-0.29,0.06,-3.06,3.44,0.02,-0.0,-0.4,-0.06,0.12,0.0,11935.37,178.0,0.0,0.0,0.0,0.0
1776358493364229501,52222,0.036,0.4,0.0,0.5,-0.06,-0.25,0.06,-3.06,3.44,0.0,0.02,-0.39,-0.0,0.19,0.06,11934.86,215.0,0.0,0.0,0.0,0.0
1776358493468408513,52322,0.0,0.3,0.0,0.6,-0.08,-0.23,0.06,-3.06,3.44,0.0,0.01,-0.36,0.12,-0.06,0.06,11932.8,214.0,0.0,0.0,0.0,0.0
1776358493566922552,52422,0.0,0.9,0.0,0.3,-0.16,-0.25,0.06,-3.06,3.44,0.0,0.03,-0.36,-0.0,0.12,0.06,11937.77,214.0,0.0,0.0,0.0,0.0
1776358493675197951,52523,0.0,0.4,0.0,0.9,0.04,-0.16,0.06,-3.06,3.44,0.01,0.03,-0.35,-0.06,0.19,0.0,11937.26,227.0,0.0,0.0,0.0,0.0
1776358493767472366,52623,0.004,0.0,0.0,0.8,0.06,-0.23,0.06,-3.06,3.44,0.01,0.03,-0.35,-0.12,-0.0,-0.06,11938.29,226.0,0.0,0.0,0.0,0.0
1776358493870009386,52723,0.012,0.1,0.0,0.9,-0.04,-0.27,0.06,-3.06,3.44,0.0,0.01,-0.36,-0.06,0.12,0.0,11937.43,226.0,0.0,0.0,0.0,0.0
1776358493968296098,52824,0.004,0.3,0.0,0.7,-0.16,-0.2,0.06,-3.06,3.44,0.0,0.02,-0.37,-0.12,-0.19,0.12,11936.23,220.0,0.0,0.0,0.0,0.0
1776358494070610390,52924,0.012,0.1,0.0,0.4,-0.12,-0.06,0.06,-3.06,3.44,0.0,0.03,-0.37,-0.12,-0.0,0.0,11937.94,220.0,0.0,0.0,0.0,0.0
1776358494168946844,53024,0.0,0.2,0.0,0.8,0.02,-0.27,0.06,-3.06,3.44,0.01,0.01,-0.36,-0.0,-0.0,0.06,11937.77,219.0,0.0,0.0,0.0,0.0
1776358494271332304,53124,0.052,0.1,0.0,1.0,0.0,-0.18,0.06,-3.06,3.44,0.02,0.01,-0.36,-1.06,-0.5,0.0,11937.6,184.0,0.0,0.0,0.0,0.0
1776358494367615997,53224,0.032,0.2,0.0,0.9,0.04,-0.21,0.06,-3.06,3.44,0.01,0.01,-0.32,0.12,-0.0,0.06,11935.54,184.0,0.0,0.0,0.0,0.0
1776358494471854595,53324,0.0,0.7,0.028,1.0,-0.1,-0.33,0.06,-3.06,3.44,0.03,0.04,-0.38,-0.06,0.12,0.0,11936.91,199.0,0.0,0.0,0.0,0.0
1776358494570343378,53424,0.0,0.1,0.0,0.5,-0.02,-0.06,0.06,-3.06,3.44,-0.01,0.03,-0.34,-0.0,-0.0,0.06,11933.83,205.0,0.0,0.0,0.0,0.0
1776358494668585502,53524,0.012,0.2,0.0,1.3,-0.14,-0.08,0.06,-3.06,3.44,0.02,0.03,-0.37,0.06,-0.0,-0.06,11938.46,205.0,0.0,0.0,0.0,0.0
1776358494771023443,53624,0.012,0.1,0.0,0.1,0.02,-0.21,0.06,-3.06,3.44,0.05,0.01,-0.38,0.12,-0.06,0.0,11937.26,197.0,0.0,0.0,0.0,0.0
1776358494875297039,53724,0.0,0.4,0.0,0.9,0.06,-0.18,0.06,-3.06,3.44,0.04,-0.0,-0.35,0.37,0.12,0.0,11938.12,197.0,0.0,0.0,0.0,0.0
1776358494977764850,53824,0.0,0.9,0.004,0.1,-0.06,-0.12,0.06,-3.06,3.44,0.02,-0.0,-0.35,-0.0,0.06,0.0,11937.09,197.0,0.0,0.0,0.0,0.0
1776358495070002122,53924,0.004,0.2,0.0,1.0,-0.02,-0.31,0.06,-3.06,3.44,0.0,-0.0,-0.36,-0.19,0.06,0.06,11937.94,194.0,0.0,0.0,0.0,0.0
1776358495178622171,54024,0.04,0.4,0.0,0.9,-0.1,-0.2,0.06,-3.06,3.44,0.01,0.02,-0.38,-0.06,0.06,0.0,11937.26,194.0,0.0,0.0,0.0,0.0
1776358496455221577,54124,0.052,0.0,0.0,1.1,-0.04,-0.06,0.06,-3.06,3.44,0.01,0.01,-0.35,-0.06,-0.0,0.12,11935.2,190.0,0.0,0.0,0.0,0.0
1776358496457326825,54223,0.04,0.3,0.0,0.8,-0.06,-0.18,0.06,-3.06,3.44,0.01,0.02,-0.36,-0.12,-0.0,0.06,11935.89,201.0,0.0,0.0,0.0,0.0
1776358496459484813,54323,0.028,0.3,0.0,1.1,0.0,-0.18,0.06,-3.06,3.44,0.02,0.02,-0.37,-0.06,-0.0,-0.06,11935.37,201.0,0.0,0.0,0.0,0.0
1776358496461493897,54423,0.02,-0.1,0.0,0.9,0.0,-0.27,0.06,-3.06,3.44,0.0,-0.0,-0.36,-0.0,0.06,0.0,11936.57,215.0,0.0,0.0,0.0,0.0
1776358496473153113,54523,0.0,0.3,0.0,0.2,0.02,-0.08,0.06,-3.06,3.44,0.02,0.01,-0.36,-0.0,0.19,0.06,11938.12,205.0,0.0,0.0,0.0,0.0
1776358496485945971,54623,0.0,0.6,0.0,1.0,-0.06,-0.18,0.06,-3.06,3.44,-0.01,0.02,-0.39,-0.12,-0.12,-0.06,11936.57,205.0,0.0,0.0,0.0,0.0
1776358496554765960,54723,0.012,0.2,0.0,0.9,0.02,-0.21,0.06,-3.06,3.44,0.0,0.01,-0.37,-0.06,0.06,0.06,11937.09,220.0,0.0,0.0,0.0,0.0
1776358496567315675,54823,0.004,0.2,0.0,0.2,-0.06,-0.2,0.06,-3.06,3.44,0.0,0.02,-0.34,0.06,-0.12,0.0,11934.34,205.0,0.0,0.0,0.0,0.0
1776358496579772039,54923,0.004,0.1,0.0,0.3,0.02,-0.18,0.06,-3.06,3.44,0.01,0.01,-0.36,-0.12,0.12,-0.06,11935.71,205.0,0.0,0.0,0.0,0.0
1776358496592845038,55023,0.0,0.6,0.0,1.1,0.06,-0.23,0.06,-3.06,3.44,0.03,0.02,-0.38,-0.0,-0.0,0.0,11936.23,234.0,0.0,0.0,0.0,0.0
1776358496657136427,55123,0.044,-0.1,0.04,1.0,-0.12,-0.25,0.06,-3.06,3.44,0.02,0.03,-0.35,-0.0,0.06,0.06,11939.49,234.0,0.0,0.0,0.0,0.0
1776358496670147168,55222,0.036,0.3,0.0,0.2,0.04,-0.18,0.06,-3.06,3.44,0.0,0.01,-0.33,-0.06,-0.12,0.0,11939.14,215.0,0.0,0.0,0.0,0.0
1776358496682715327,55322,0.0,0.8,0.0,0.8,0.02,-0.1,0.06,-3.06,3.44,0.03,0.01,-0.36,-0.12,-0.0,0.0,11936.57,175.0,0.0,0.0,0.0,0.0
1776358496695192191,55422,0.012,0.2,0.0,0.2,0.0,-0.21,0.06,-3.06,3.44,0.0,0.01,-0.37,-0.0,-0.12,0.0,11938.29,175.0,0.0,0.0,0.0,0.0
1776358496755420136,55522,0.016,0.5,0.0,0.9,-0.08,-0.1,0.06,-3.06,3.44,0.01,0.01,-0.37,0.12,-0.12,0.0,11936.23,211.0,0.0,0.0,0.0,0.0
1776358496768697333,55622,0.008,0.7,0.0,0.9,-0.04,-0.31,0.06,-3.06,3.44,0.01,0.01,-0.39,-0.0,0.06,-0.06,11934.0,209.0,0.0,0.0,0.0,0.0
1776358496868104516,55723,0.004,0.0,0.0,0.8,0.06,-0.31,0.06,-3.06,3.44,-0.01,0.03,-0.34,-0.06,-0.19,-0.06,11934.17,209.0,0.0,0.0,0.0,0.0
1776358496976498254,55823,0.0,0.3,0.0,0.0,-0.04,-0.18,0.06,-3.06,3.44,0.0,-0.0,-0.35,0.06,-0.06,0.0,11934.17,210.0,0.0,0.0,0.0,0.0
1776358497068708692,55923,0.0,0.9,0.0,0.8,0.0,-0.12,0.06,-3.06,3.44,0.01,0.01,-0.36,-0.0,-0.0,-0.06,11934.0,240.0,0.0,0.0,0.0,0.0
1776358497177196638,56024,0.04,0.3,0.0,0.8,-0.06,-0.23,0.06,-3.06,3.44,0.01,0.02,-0.36,-0.0,0.12,0.06,11935.2,240.0,0.0,0.0,0.0,0.0
1776358497271469886,56124,0.0,0.2,0.0,0.7,0.0,-0.18,0.06,-3.06,3.44,0.0,0.03,-0.35,0.12,-0.06,-0.12,11932.63,209.0,0.0,0.0,0.0,0.0
1776358497369752197,56224,0.0,0.9,0.028,0.5,-0.06,-0.23,0.06,-3.06,3.44,0.02,-0.0,-0.37,0.12,0.12,0.12,11934.0,204.0,0.0,0.0,0.0,0.0
1776358497468056007,56324,0.0,0.7,0.016,0.3,-0.02,-0.21,0.06,-3.06,3.44,0.0,0.02,-0.37,0.12,0.06,0.06,11937.43,204.0,0.0,0.0,0.0,0.0
1776358497578511299,56424,0.0,0.2,0.008,0.3,-0.08,-0.08,0.06,-3.06,3.44,0.03,0.02,-0.34,-0.06,0.06,0.0,11937.09,184.0,0.0,0.0,0.0,0.0
1776358497670903736,56524,0.0,0.5,0.004,0.2,-0.12,-0.14,0.06,-3.06,3.44,0.0,0.02,-0.37,-0.12,-0.12,0.0,11938.46,184.0,0.0,0.0,0.0,0.0
1776358497779256258,56625,0.012,0.1,0.0,0.3,-0.1,-0.14,0.06,-3.06,3.44,0.01,0.01,-0.36,0.12,0.06,0.0,11938.63,230.0,0.0,0.0,0.0,0.0
1776358498203222314,56725,0.0,0.1,0.0,0.6,-0.2,0.02,0.06,-3.06,3.44,0.0,-0.0,-0.35,0.12,0.06,-0.12,11936.4,206.0,0.0,0.0,0.0,0.0
1776358498262767512,56825,0.008,0.3,0.0,1.0,0.02,-0.21,0.06,-3.06,3.44,0.03,-0.0,-0.36,0.06,0.06,0.0,11937.09,206.0,0.0,0.0,0.0,0.0
1776358498275341131,56926,0.004,0.1,0.0,0.3,-0.08,0.0,0.06,-3.06,3.44,0.0,-0.0,-0.38,-0.19,0.12,0.12,11936.57,209.0,0.0,0.0,0.0,0.0
1776358498288142116,57026,0.0,0.2,0.0,0.3,-0.08,-0.18,0.06,-3.06,3.44,0.01,-0.0,-0.35,-0.12,0.06,0.0,11936.57,221.0,0.0,0.0,0.0,0.0
1776358498291731211,57126,0.052,0.3,0.0,0.8,-0.08,-0.18,0.06,-3.06,3.44,0.01,0.01,-0.36,0.06,0.12,0.0,11936.74,221.0,0.0,0.0,0.0,0.0
1776358498369276993,57225,0.0,0.2,0.0,1.2,-0.08,-0.2,0.06,-3.06,3.44,0.02,-0.0,-0.37,-0.0,-0.0,-0.06,11935.37,220.0,0.0,0.0,0.0,0.0
1776358498471518356,57325,0.032,0.2,0.0,1.1,-0.06,-0.21,0.06,-3.06,3.44,0.0,-0.0,-0.37,-0.19,-0.0,0.0,11937.77,220.0,0.0,0.0,0.0,0.0
1776358498571843313,57425,0.02,0.1,0.0,0.7,0.04,-0.12,0.06,-3.06,3.44,0.0,-0.0,-0.39,-0.0,0.06,-0.06,11935.89,205.0,0.0,0.0,0.0,0.0
1776358498674251321,57525,0.016,0.3,0.0,0.8,-0.04,-0.37,0.06,-3.06,3.44,0.02,0.02,-0.38,0.06,-0.12,-0.06,11936.06,207.0,0.0,0.0,0.0,0.0
1776358498772620835,57625,0.012,0.1,0.0,1.2,-0.04,-0.04,0.06,-3.06,3.44,0.01,-0.0,-0.36,-0.12,0.06,-0.06,11937.77,207.0,0.0,0.0,0.0,0.0
1776358498874971862,57725,0.004,0.3,0.004,0.2,0.06,-0.21,0.06,-3.06,3.44,0.0,0.02,-0.38,-0.0,-0.12,0.06,11938.63,195.0,0.0,0.0,0.0,0.0
1776358499083223982,57825,0.0,0.4,0.0,0.7,-0.06,-0.12,0.06,-3.06,3.44,0.0,-0.0,-0.39,0.06,-0.19,0.0,11936.91,201.0,0.0,0.0,0.0,0.0
1776358499095387384,57925,0.0,0.5,0.0,0.1,-0.04,-0.2,0.06,-3.06,3.44,0.0,0.01,-0.35,0.19,-0.12,0.12,11939.83,201.0,0.0,0.0,0.0,0.0
1776358499173990947,58025,0.0,0.3,0.0,0.3,0.04,-0.23,0.06,-3.06,3.44,0.03,0.01,-0.35,-0.06,-0.0,0.0,11936.4,210.0,0.0,0.0,0.0,0.0
1776358499274319011,58125,0.048,0.0,0.0,1.0,-0.12,-0.21,0.06,-3.06,3.44,0.0,0.01,-0.39,0.19,-0.06,0.06,11936.91,235.0,0.0,0.0,0.0,0.0
1776358499372636778,58225,0.036,0.1,0.0,0.9,-0.12,-0.04,0.06,-3.06,3.44,0.02,-0.0,-0.37,0.12,-0.0,0.0,11939.32,235.0,0.0,0.0,0.0,0.0
1776358499470963083,58326,0.0,0.1,0.0,1.1,-0.04,-0.06,0.06,-3.06,3.44,0.01,0.01,-0.36,-0.0,0.06,0.0,11936.4,198.0,0.0,0.0,0.0,0.0
1776358499581338921,58426,0.016,0.2,0.0,1.1,0.0,-0.25,0.06,-3.06,3.44,0.01,0.01,-0.34,-0.06,0.12,0.0,11935.03,205.0,0.0,0.0,0.0,0.0
1776358499683843259,58526,0.016,0.3,0.0,0.7,-0.04,-0.18,0.06,-3.06,3.44,0.0,-0.0,-0.35,0.12,-0.0,-0.12,11936.74,205.0,0.0,0.0,0.0,0.0
1776358499776036660,58627,0.008,0.4,0.008,0.0,0.12,-0.1,0.06,-3.06,3.44,0.0,0.01,-0.37,-0.0,-0.06,0.0,11935.2,206.0,0.0,0.0,0.0,0.0
1776358499874388853,58727,0.0,0.2,0.0,1.0,0.06,-0.1,0.06,-3.06,3.44,0.02,0.02,-0.35,0.12,0.06,0.0,11937.26,206.0,0.0,0.0,0.0,0.0
1776358500079222398,58826,0.0,0.1,0.0,1.3,0.02,-0.27,0.06,-3.06,3.44,0.02,-0.0,-0.36,-0.06,0.19,0.0,11936.06,205.0,0.0,0.0,0.0,0.0
1776358500091856102,58926,0.004,0.2,0.0,1.0,0.06,-0.12,0.06,-3.06,3.44,0.03,-0.0,-0.37,-0.0,0.12,0.0,11935.54,218.0,0.0,0.0,0.0,0.0
1776358500173436483,59026,0.0,0.9,0.04,0.3,0.0,-0.29,0.06,-3.06,3.44,0.01,-0.0,-0.37,-0.0,0.06,0.0,11936.23,218.0,0.0,0.0,0.0,0.0
1776358500281686469,59125,0.0,0.7,0.0,0.9,0.1,0.0,0.06,-3.06,3.44,0.03,-0.0,-0.36,-0.06,0.19,0.06,11938.8,177.0,0.0,0.0,0.0,0.0
1776358500371974975,59225,0.036,0.1,0.0,0.5,0.08,-0.2,0.06,-3.06,3.44,0.02,0.02,-0.35,0.19,-0.0,-0.06,11938.29,212.0,0.0,0.0,0.0,0.0
1776358500476233957,59325,0.0,0.5,0.0,1.0,0.02,-0.21,0.06,-3.06,3.44,0.02,0.03,-0.36,0.12,-0.0,0.0,11937.43,212.0,0.0,0.0,0.0,0.0
1776358500574592969,59425,0.02,0.1,0.012,0.3,0.06,-0.21,0.06,-3.06,3.44,-0.01,0.01,-0.39,0.25,-0.12,0.06,11934.68,215.0,0.0,0.0,0.0,0.0
1776358500673117071,59525,0.008,0.0,0.0,1.0,0.06,-0.21,0.06,-3.06,3.44,0.01,-0.0,-0.37,-0.0,-0.06,-0.06,11935.54,215.0,0.0,0.0,0.0,0.0
1776358500775413032,59625,0.008,0.1,0.0,0.8,-0.08,-0.25,0.06,-3.06,3.44,0.0,-0.0,-0.37,-0.0,0.06,-0.06,11934.86,219.0,0.0,0.0,0.0,0.0
1776358500873708823,59725,0.0,0.3,0.0,0.3,0.06,-0.14,0.06,-3.06,3.44,0.01,-0.0,-0.36,0.06,0.06,0.19,11934.86,196.0,0.0,0.0,0.0,0.0
1776358501079216516,59825,0.0,0.0,0.0,0.9,-0.08,-0.33,0.06,-3.06,3.44,0.02,0.02,-0.38,-0.25,0.19,0.0,11936.23,196.0,0.0,0.0,0.0,0.0
1776358501093528762,59925,0.0,0.3,0.0,0.6,0.02,-0.18,0.06,-3.06,3.44,0.02,-0.0,-0.39,0.06,-0.19,0.0,11935.71,236.0,0.0,0.0,0.0,0.0
1776358501176806038,60025,0.044,0.1,0.0,0.3,-0.06,-0.14,0.06,-3.06,3.44,0.0,0.02,-0.4,-0.0,-0.0,-0.06,11936.23,204.0,0.0,0.0,0.0,0.0
1776358501273083248,60125,0.0,0.2,0.04,0.6,0.1,-0.1,0.06,-3.06,3.44,0.01,0.01,-0.37,-0.06,0.06,0.06,11937.43,204.0,0.0,0.0,0.0,0.0
1776358501375433913,60225,0.04,0.0,0.0,0.5,-0.04,-0.12,0.06,-3.06,3.44,0.01,0.01,-0.38,0.12,-0.12,0.0,11937.6,211.0,0.0,0.0,0.0,0.0
1776358501473887494,60325,0.0,0.4,0.0,0.6,0.0,-0.08,0.06,-3.06,3.44,0.01,0.03,-0.38,-0.12,-0.0,-0.06,11935.89,185.0,0.0,0.0,0.0,0.0
1776358501574149768,60425,0.0,0.9,0.0,0.8,-0.02,-0.18,0.06,-3.06,3.44,0.01,-0.01,-0.38,-0.0,0.19,0.0,11937.6,185.0,0.0,0.0,0.0,0.0
1776358501682386670,60525,0.0,0.1,0.0,0.9,0.16,-0.16,0.06,-3.06,3.44,0.0,0.02,-0.36,0.06,0.12,-0.06,11936.23,247.0,0.0,0.0,0.0,0.0
1776358501774772500,60625,0.008,0.2,0.0,1.2,0.06,-0.21,0.06,-3.06,3.44,0.0,0.02,-0.37,-0.06,0.12,0.06,11937.43,199.0,0.0,0.0,0.0,0.0
1776358501873210637,60725,0.0,1.1,0.0,0.9,0.04,-0.2,0.06,-3.06,3.44,0.03,0.01,-0.39,0.12,-0.06,0.0,11937.09,199.0,0.0,0.0,0.0,0.0
1776358501981496056,60825,0.008,0.2,0.0,0.8,0.08,-0.23,0.06,-3.06,3.44,0.03,0.01,-0.38,0.06,-0.12,-0.06,11936.4,223.0,0.0,0.0,0.0,0.0
1776358502071766991,60925,0.004,0.2,0.0,0.6,0.06,-0.35,0.06,-3.06,3.44,0.02,0.01,-0.37,0.19,-0.12,0.06,11937.6,223.0,0.0,0.0,0.0,0.0
1776358502182116231,61025,0.0,0.8,0.0,1.2,-0.1,-0.14,0.06,-3.06,3.44,0.0,0.01,-0.4,-0.0,0.06,0.0,11937.09,197.0,0.0,0.0,0.0,0.0
1776358502272455965,61125,0.052,1.0,0.0,0.5,0.04,-0.12,0.06,-3.06,3.44,0.01,0.02,-0.39,0.06,-0.06,-0.12,11936.06,202.0,0.0,0.0,0.0,0.0
1776358502374835457,61225,0.0,0.1,0.0,1.1,0.02,-0.2,0.06,-3.06,3.44,0.0,0.01,-0.4,0.06,-0.0,0.06,11939.83,202.0,0.0,0.0,0.0,0.0
1776358502475236480,61325,0.024,0.1,0.0,1.1,0.04,-0.14,0.06,-3.06,3.44,0.0,-0.01,-0.37,0.25,0.06,0.0,11940.86,198.0,0.0,0.0,0.0,0.0
1776358502583576270,61425,0.02,0.4,0.0,0.2,0.02,-0.2,0.06,-3.06,3.44,0.01,0.02,-0.4,-0.06,-0.06,-0.06,11938.29,200.0,0.0,0.0,0.0,0.0
1776358502675978824,61526,0.012,0.1,0.0,0.3,0.04,-0.2,0.06,-3.06,3.44,0.01,-0.0,-0.38,-0.0,0.06,-0.06,11936.74,200.0,0.0,0.0,0.0,0.0
1776358502784264169,61626,0.008,0.3,0.004,0.3,-0.02,-0.12,0.06,-3.06,3.44,0.01,0.01,-0.37,0.06,-0.06,0.06,11936.91,197.0,0.0,0.0,0.0,0.0
1776358502876581928,61726,0.0,0.4,0.0,1.3,0.0,-0.1,0.06,-3.06,3.44,0.02,0.01,-0.39,-0.0,0.19,0.0,11936.74,189.0,0.0,0.0,0.0,0.0
1776358503139222613,61826,0.008,0.3,0.0,1.1,-0.02,-0.14,0.06,-3.06,3.44,0.01,0.01,-0.36,-0.0,-0.06,0.06,11937.43,189.0,0.0,0.0,0.0,0.0
1776358503165374253,61926,0.0,0.2,0.0,1.1,-0.1,-0.18,0.06,-3.06,3.44,0.0,0.01,-0.37,-0.06,0.12,-0.06,11936.57,212.0,0.0,0.0,0.0,0.0
1776358503178185512,62026,0.04,0.1,0.0,1.0,0.1,-0.06,0.06,-3.06,3.44,0.01,0.01,-0.37,-0.12,-0.12,0.0,11937.6,212.0,0.0,0.0,0.0,0.0
1776358503275949189,62127,0.0,0.4,0.036,0.6,0.06,-0.27,0.06,-3.06,3.44,0.03,-0.0,-0.35,-0.0,0.06,0.06,11937.94,198.0,0.0,0.0,0.0,0.0
1776358503374237265,62227,0.0,0.4,0.0,1.3,-0.02,-0.14,0.06,-3.06,3.44,0.0,0.01,-0.37,-0.0,-0.0,-0.06,11933.83,187.0,0.0,0.0,0.0,0.0
1776358503478641661,62327,0.0,0.1,0.0,0.7,-0.12,-0.23,0.06,-3.06,3.44,0.0,0.04,-0.36,-0.19,0.12,0.0,11936.57,187.0,0.0,0.0,0.0,0.0
1776358503587056942,62428,0.024,0.1,0.008,0.6,-0.14,-0.21,0.06,-3.06,3.44,0.0,0.03,-0.34,-0.19,0.12,-0.06,11934.51,201.0,0.0,0.0,0.0,0.0
1776358503679394790,62528,0.0,0.7,0.0,0.8,-0.08,-0.14,0.06,-3.06,3.44,0.03,0.02,-0.35,-0.19,-0.0,0.06,11935.71,206.0,0.0,0.0,0.0,0.0
1776358503777574331,62628,0.012,0.1,0.0,0.9,-0.06,-0.18,0.06,-3.06,3.44,0.04,-0.03,-0.38,-0.0,0.06,0.06,11936.57,206.0,0.0,0.0,0.0,0.0
1776358503879942016,62728,0.0,0.1,0.0,0.9,0.02,-0.29,0.06,-3.06,3.44,0.04,-0.0,-0.35,-0.06,-0.12,-0.12,11936.91,201.0,0.0,0.0,0.0,0.0
1776358503988404426,62828,0.0,0.1,0.0,0.2,0.04,-0.21,0.06,-3.06,3.44,0.01,0.01,-0.37,-0.12,0.06,0.12,11938.12,214.0,0.0,0.0,0.0,0.0
1776358504080823269,62928,0.0,0.4,0.0,1.5,0.0,-0.08,0.06,-3.06,3.44,0.0,0.01,-0.35,0.06,-0.06,0.0,11938.29,214.0,0.0,0.0,0.0,0.0
1776358504178991825,63027,0.048,0.2,0.0,1.1,-0.12,-0.31,0.06,-3.06,3.44,0.02,0.02,-0.4,-0.06,-0.06,-0.06,11935.89,202.0,0.0,0.0,0.0,0.0
1776358504279351629,63127,0.048,0.2,0.0,0.3,0.02,-0.14,0.06,-3.06,3.44,0.01,0.03,-0.36,0.12,-0.0,0.0,11936.91,202.0,0.0,0.0,0.0,0.0
1776358504383663805,63227,0.0,0.3,0.0,1.0,-0.1,-0.25,0.06,-3.06,3.44,0.03,0.01,-0.35,-0.06,0.12,-0.12,11935.37,203.0,0.0,0.0,0.0,0.0
1776358504483948092,63327,0.024,0.2,0.0,0.2,-0.1,-0.14,0.06,-3.06,3.44,0.0,0.01,-0.38,0.06,-0.06,0.0,11935.89,201.0,0.0,0.0,0.0,0.0
1776358504687221350,63427,0.0,0.9,0.0,0.9,-0.06,-0.18,0.06,-3.06,3.44,0.01,0.03,-0.37,0.06,-0.0,0.0,11936.23,201.0,0.0,0.0,0.0,0.0
1776358504699339464,63527,0.0,0.7,0.008,0.3,0.0,-0.06,0.06,-3.06,3.44,0.01,0.01,-0.36,-0.0,-0.12,-0.06,11936.4,235.0,0.0,0.0,0.0,0.0
1776358504887222265,63627,0.0,0.8,0.0,0.2,0.1,-0.18,0.06,-3.06,3.44,0.01,-0.0,-0.36,-0.12,-0.12,-0.06,11936.4,223.0,0.0,0.0,0.0,0.0
1776358504899736835,63727,0.0,0.3,0.0,1.3,-0.04,-0.23,0.06,-3.06,3.44,0.01,0.02,-0.35,0.06,-0.12,0.0,11936.06,223.0,0.0,0.0,0.0,0.0
1776358504977682759,63827,0.0,1.0,0.0,0.9,0.04,-0.18,0.06,-3.06,3.44,0.01,0.01,-0.35,-0.06,-0.0,0.06,11936.91,194.0,0.0,0.0,0.0,0.0
1776358505086137468,63927,0.0,0.9,0.0,1.1,-0.02,-0.1,0.06,-3.06,3.44,0.01,0.01,-0.38,-0.12,-0.19,0.0,11936.4,216.0,0.0,0.0,0.0,0.0
1776358505178502459,64027,0.044,0.0,0.04,0.3,-0.04,-0.33,0.06,-3.06,3.44,0.0,0.02,-0.34,0.06,0.19,0.06,11935.89,216.0,0.0,0.0,0.0,0.0
1776358505274747456,64126,0.0,0.1,0.044,0.1,0.0,-0.25,0.06,-3.06,3.44,0.0,0.01,-0.37,-0.0,-0.0,0.06,11936.91,214.0,0.0,0.0,0.0,0.0
1776358505377037746,64226,0.04,0.4,0.0,1.0,-0.06,-0.31,0.06,-3.06,3.44,-0.01,0.01,-0.35,0.06,0.12,0.0,11937.26,214.0,0.0,0.0,0.0,0.0
1776358505477391636,64326,0.024,0.2,0.0,1.1,0.02,-0.23,0.06,-3.06,3.44,0.0,0.03,-0.38,-0.06,-0.0,0.0,11938.12,217.0,0.0,0.0,0.0,0.0
1776358505579791295,64427,0.0,0.2,0.0,0.9,0.0,-0.27,0.06,-3.06,3.44,0.01,0.03,-0.34,-0.12,0.12,0.0,11935.2,186.0,0.0,0.0,0.0,0.0
1776358505688290803,64527,0.0,0.8,0.0,0.3,0.0,-0.18,0.06,-3.06,3.44,0.02,0.01,-0.35,0.19,-0.0,-0.06,11937.43,186.0,0.0,0.0,0.0,0.0
1776358505891221776,64627,0.012,-0.1,0.0,1.0,0.02,-0.16,0.06,-3.06,3.44,0.02,-0.0,-0.35,0.12,0.06,-0.06,11935.71,205.0,0.0,0.0,0.0,0.0
1776358505903535360,64727,0.004,0.1,0.0,1.2,-0.16,-0.23,0.06,-3.06,3.44,0.01,0.01,-0.37,-0.06,-0.0,-0.12,11936.4,214.0,0.0,0.0,0.0,0.0
1776358505981182149,64827,0.008,0.3,0.0,0.3,0.02,-0.25,0.06,-3.06,3.44,0.01,0.02,-0.38,-0.0,-0.12,-0.06,11936.57,214.0,0.0,0.0,0.0,0.0
1776358506079459421,64927,0.0,0.3,0.0,0.2,-0.1,-0.27,0.06,-3.06,3.44,0.03,0.02,-0.35,-0.12,0.12,0.06,11935.89,196.0,0.0,0.0,0.0,0.0
1776358506181858699,65027,0.0,0.5,0.0,0.8,-0.18,-0.18,0.06,-3.06,3.44,0.01,-0.0,-0.35,-0.0,0.06,0.06,11937.26,203.0,0.0,0.0,0.0,0.0
1776358506278171606,65127,0.048,0.1,0.0,1.1,0.0,-0.29,0.06,-3.06,3.44,0.0,-0.0,-0.34,-0.0,0.06,0.0,11935.54,203.0,0.0,0.0,0.0,0.0
1776358506376525617,65227,0.04,0.2,0.0,0.0,-0.1,-0.14,0.06,-3.06,3.44,0.0,-0.0,-0.34,0.12,0.06,0.0,11934.17,205.0,0.0,0.0,0.0,0.0
1776358506480796706,65327,0.028,0.3,0.016,0.5,0.02,-0.21,0.06,-3.06,3.44,0.0,0.01,-0.36,-0.0,-0.06,0.06,11935.89,205.0,0.0,0.0,0.0,0.0
1776358506579242420,65427,0.0,0.4,0.0,0.1,0.06,-0.16,0.06,-3.06,3.44,0.01,0.01,-0.36,-0.0,-0.06,-0.06,11935.03,195.0,0.0,0.0,0.0,0.0
1776358506787219142,65527,0.0,1.0,0.016,0.6,0.04,-0.16,0.06,-3.06,3.44,0.0,-0.01,-0.34,-0.12,0.06,0.12,11936.57,207.0,0.0,0.0,0.0,0.0
1776358506801937726,65627,0.0,0.2,0.0,0.2,0.04,-0.2,0.06,-3.06,3.44,0.0,0.01,-0.34,-0.06,-0.12,0.0,11937.6,207.0,0.0,0.0,0.0,0.0
1776358506888303473,65727,0.012,0.6,0.0,0.7,0.1,-0.04,0.06,-3.06,3.44,0.01,0.01,-0.35,-0.06,-0.06,0.06,11936.4,203.0,0.0,0.0,0.0,0.0
1776358506980583427,65827,0.0,0.4,0.0,0.9,0.06,-0.08,0.06,-3.06,3.44,-0.01,0.02,-0.36,0.06,-0.0,-0.06,11934.0,191.0,0.0,0.0,0.0,0.0
1776358507078945233,65927,0.0,0.1,0.0,0.9,0.0,-0.2,0.06,-3.06,3.44,0.01,0.03,-0.35,0.06,-0.06,0.06,11934.0,191.0,0.0,0.0,0.0,0.0
1776358507187284817,66027,0.0,0.6,0.0,0.8,-0.04,-0.18,0.06,-3.06,3.44,0.02,0.03,-0.35,0.06,-0.0,0.0,11933.31,218.0,0.0,0.0,0.0,0.0
1776358507277545326,66126,0.052,0.4,0.0,0.5,0.04,-0.12,0.06,-3.06,3.44,0.0,0.01,-0.36,-0.0,0.06,0.0,11933.66,188.0,0.0,0.0,0.0,0.0
1776358507379876089,66226,0.04,0.2,0.0,1.2,-0.06,-0.14,0.06,-3.06,3.44,0.01,0.02,-0.36,-0.0,0.19,0.0,11936.06,188.0,0.0,0.0,0.0,0.0
1776358507480172096,66326,0.028,0.4,0.0,0.9,-0.02,-0.14,0.06,-3.06,3.44,0.0,0.01,-0.34,-0.0,0.12,0.0,11935.03,198.0,0.0,0.0,0.0,0.0
1776358507580597158,66426,0.02,0.3,0.0,0.4,-0.12,-0.16,0.06,-3.06,3.44,-0.01,0.02,-0.37,-0.0,0.06,0.0,11935.71,198.0,0.0,0.0,0.0,0.0
1776358507680969072,66527,0.0,0.4,0.0,0.3,-0.16,-0.18,0.06,-3.06,3.44,0.03,-0.0,-0.36,0.06,-0.0,0.0,11935.89,204.0,0.0,0.0,0.0,0.0
1776358507789343341,66627,0.0,0.6,0.0,0.2,-0.06,-0.16,0.06,-3.06,3.44,0.01,0.02,-0.35,-0.0,-0.0,0.06,11934.68,165.0,0.0,0.0,0.0,0.0
1776358507991222749,66727,0.0,0.3,0.0,0.5,-0.18,-0.16,0.06,-3.06,3.44,0.02,0.02,-0.35,-0.0,-0.06,0.0,11937.77,165.0,0.0,0.0,0.0,0.0
1776358508003763665,66827,0.0,0.2,0.0,0.9,0.04,-0.27,0.06,-3.06,3.44,0.01,-0.0,-0.35,0.12,0.06,0.06,11936.23,227.0,0.0,0.0,0.0,0.0
1776358508088242260,66927,0.0,0.7,0.0,0.9,-0.08,-0.16,0.06,-3.06,3.44,0.01,0.03,-0.37,-0.0,-0.06,0.0,11935.89,208.0,0.0,0.0,0.0,0.0
1776358508180696605,67027,0.044,0.4,0.036,0.3,-0.04,-0.23,0.06,-3.06,3.44,0.0,0.01,-0.35,-0.12,-0.0,0.0,11936.74,208.0,0.0,0.0,0.0,0.0
1776358508288282107,67127,0.0,0.2,0.0,0.9,0.04,-0.12,0.06,-3.06,3.44,0.01,0.02,-0.37,-0.06,-0.0,0.06,11935.54,254.0,0.0,0.0,0.0,0.0
1776358508379297266,67227,0.0,0.2,0.028,1.0,-0.08,-0.16,0.06,-3.06,3.44,0.02,0.02,-0.35,0.06,0.06,0.0,11935.37,204.0,0.0,0.0,0.0,0.0
1776358508481666803,67328,0.0,0.9,0.0,0.7,-0.04,-0.18,0.06,-3.06,3.44,0.0,-0.0,-0.35,0.06,-0.06,0.06,11937.26,204.0,0.0,0.0,0.0,0.0
1776358508587975307,67428,0.024,0.1,0.0,0.5,-0.08,-0.1,0.06,-3.06,3.44,0.0,0.01,-0.34,-0.0,-0.0,0.06,11931.25,214.0,0.0,0.0,0.0,0.0
1776358508682423296,67528,0.0,0.4,0.0,0.2,-0.18,-0.27,0.06,-3.06,3.44,0.0,0.03,-0.35,-0.0,-0.12,-0.19,11937.94,214.0,0.0,0.0,0.0,0.0
1776358508782740974,67629,0.016,0.9,0.004,0.5,0.06,-0.21,0.06,-3.06,3.44,0.01,0.01,-0.35,-0.12,0.06,-0.12,11936.74,170.0,0.0,0.0,0.0,0.0
1776358508891175547,67729,0.0,0.2,0.0,0.7,0.08,-0.08,0.06,-3.06,3.44,0.0,0.02,-0.37,-0.06,0.06,-0.06,11937.77,195.0,0.0,0.0,0.0,0.0
1776358508983517783,67829,0.008,0.5,0.0,1.0,0.06,-0.21,0.06,-3.06,3.44,0.0,0.01,-0.37,-0.0,-0.0,0.0,11937.77,195.0,0.0,0.0,0.0,0.0
1776358509091943330,67930,0.0,0.3,0.0,0.2,-0.02,-0.31,0.06,-3.06,3.44,-0.01,0.02,-0.35,-0.0,0.06,-0.06,11938.63,191.0,0.0,0.0,0.0,0.0
1776358509184324542,68030,0.052,0.2,0.0,0.8,-0.12,-0.23,0.06,-3.06,3.44,0.01,0.02,-0.37,0.12,-0.0,-0.06,11936.91,183.0,0.0,0.0,0.0,0.0
1776358509284761013,68130,0.0,0.5,0.0,1.3,-0.06,-0.2,0.06,-3.06,3.44,0.01,0.02,-0.36,0.06,0.06,0.12,11936.4,183.0,0.0,0.0,0.0,0.0
1776358509383111487,68230,0.028,0.2,0.0,1.0,-0.1,-0.12,0.06,-3.06,3.44,0.0,0.01,-0.33,-0.0,-0.06,0.0,11937.77,210.0,0.0,0.0,0.0,0.0
1776358509487474296,68330,0.024,0.7,0.004,0.5,-0.16,-0.29,0.06,-3.06,3.44,0.01,0.03,-0.33,0.12,0.12,0.06,11935.54,213.0,0.0,0.0,0.0,0.0
1776358509592073492,68430,0.0,0.7,0.0,0.1,0.0,-0.14,0.06,-3.06,3.44,0.03,0.03,-0.37,0.06,-0.12,0.0,11937.26,213.0,0.0,0.0,0.0,0.0
1776358509694513042,68531,0.012,0.1,0.0,0.6,0.04,-0.2,0.06,-3.06,3.44,0.03,0.01,-0.35,0.06,0.06,0.0,11934.51,240.0,0.0,0.0,0.0,0.0
1776358509792913871,68631,0.0,0.3,0.0,0.7,0.0,-0.1,0.06,-3.06,3.44,0.0,0.02,-0.36,-0.0,-0.0,0.0,11938.29,240.0,0.0,0.0,0.0,0.0
1776358509885220395,68731,0.0,0.0,0.0,0.5,0.02,-0.25,0.06,-3.06,3.44,0.03,-0.01,-0.37,-0.0,-0.06,0.12,11936.74,209.0,0.0,0.0,0.0,0.0
1776358509993645610,68831,0.0,0.4,0.0,0.3,-0.1,-0.41,0.06,-3.06,3.44,0.03,-0.0,-0.37,-0.06,0.06,0.0,11937.26,215.0,0.0,0.0,0.0,0.0
1776358510086183550,68931,0.0,0.2,0.0,1.2,0.02,-0.25,0.06,-3.06,3.44,0.02,0.01,-0.37,-0.12,0.06,0.19,11937.77,215.0,0.0,0.0,0.0,0.0
1776358510194620317,69031,0.048,0.2,0.0,1.0,0.08,-0.31,0.06,-3.06,3.44,0.02,-0.0,-0.37,0.06,-0.06,0.19,11938.12,196.0,0.0,0.0,0.0,0.0
1776358510423220995,69131,0.0,0.2,0.0,0.3,-0.1,-0.21,0.06,-3.06,3.44,0.01,0.02,-0.35,-0.06,-0.12,0.0,11937.26,178.0,0.0,0.0,0.0,0.0
1776358510477573415,69231,0.0,0.5,0.0,0.1,0.0,-0.1,0.06,-3.06,3.44,0.02,0.01,-0.38,-0.0,-0.06,0.06,11939.14,178.0,0.0,0.0,0.0,0.0
1776358510485809099,69331,0.028,0.0,0.0,0.3,0.02,-0.16,0.06,-3.06,3.44,0.04,0.02,-0.35,-0.06,0.06,0.0,11937.09,214.0,0.0,0.0,0.0,0.0
1776358510586052270,69431,0.0,0.3,0.0,1.1,-0.06,-0.14,0.06,-3.06,3.44,0.03,0.01,-0.35,-0.06,-0.12,-0.06,11936.06,164.0,0.0,0.0,0.0,0.0
1776358510694606719,69531,0.012,0.3,0.0,0.2,0.14,-0.12,0.06,-3.06,3.44,0.01,0.02,-0.36,-0.06,0.12,0.0,11940.0,164.0,0.0,0.0,0.0,0.0
1776358510787061877,69630,0.008,0.1,0.0,1.3,-0.04,-0.31,0.06,-3.06,3.44,0.0,-0.0,-0.35,-0.0,0.06,-0.06,11937.43,208.0,0.0,0.0,0.0,0.0
1776358510931226621,69730,0.0,0.9,0.0,0.7,-0.04,-0.18,0.06,-3.06,3.44,0.0,0.01,-0.36,0.06,-0.06,0.0,11937.94,216.0,0.0,0.0,0.0,0.0
1776358510987998337,69830,0.0,0.1,0.0,1.3,-0.06,-0.12,0.06,-3.06,3.44,0.01,-0.01,-0.36,0.12,-0.06,-0.19,11936.91,216.0,0.0,0.0,0.0,0.0
1776358511096329307,69931,0.0,1.0,0.0,0.9,0.0,-0.21,0.06,-3.06,3.44,0.0,0.03,-0.35,-0.0,-0.06,-0.12,11936.91,217.0,0.0,0.0,0.0,0.0
1776358511188937789,70031,0.0,0.0,0.0,1.2,0.06,-0.12,0.06,-3.06,3.44,0.0,0.01,-0.37,-0.06,0.12,0.12,11936.57,217.0,0.0,0.0,0.0,0.0
1776358511286945101,70131,0.044,0.2,0.0,1.1,0.14,-0.18,0.06,-3.06,3.44,0.0,0.03,-0.37,0.06,0.06,0.06,11935.89,218.0,0.0,0.0,0.0,0.0
1776358511387573028,70231,0.036,0.2,0.0,1.1,0.02,-0.35,0.06,-3.06,3.44,0.0,0.03,-0.37,-0.06,0.06,0.06,11935.54,225.0,0.0,0.0,0.0,0.0
1776358511491973772,70331,0.032,0.0,0.0,0.3,-0.06,-0.21,0.06,-3.06,3.44,0.0,-0.0,-0.38,0.06,-0.12,0.0,11935.71,225.0,0.0,0.0,0.0,0.0
1776358511590339625,70431,0.0,0.3,0.0,1.0,-0.1,-0.14,0.06,-3.06,3.44,0.02,-0.0,-0.37,-0.12,-0.0,0.06,11940.17,216.0,0.0,0.0,0.0,0.0
1776358511688648974,70531,0.016,0.2,0.0,0.3,0.04,-0.21,0.06,-3.06,3.44,0.0,0.02,-0.37,-0.0,-0.06,0.0,11938.46,196.0,0.0,0.0,0.0,0.0
1776358511895228491,70631,0.0,0.2,0.004,0.3,-0.02,-0.12,0.06,-3.06,3.44,0.0,-0.0,-0.32,-0.0,-0.12,0.0,11937.6,196.0,0.0,0.0,0.0,0.0
1776358511908474972,70730,0.0,0.7,0.0,0.7,-0.04,-0.27,0.06,-3.06,3.44,0.01,0.02,-0.37,-0.06,-0.06,-0.06,11934.86,206.0,0.0,0.0,0.0,0.0
1776358511993900644,70830,0.008,0.1,0.0,0.7,0.06,-0.14,0.06,-3.06,3.44,0.0,-0.0,-0.37,0.12,-0.12,0.06,11939.66,206.0,0.0,0.0,0.0,0.0
1776358512096483235,70930,0.004,0.1,0.0,0.9,-0.12,-0.12,0.06,-3.06,3.44,0.0,0.03,-0.4,-0.06,-0.06,0.06,11938.8,176.0,0.0,0.0,0.0,0.0
1776358512194822127,71030,0.0,0.1,0.0,1.0,-0.04,-0.14,0.06,-3.06,3.44,0.0,-0.0,-0.37,0.06,-0.0,-0.06,11937.26,196.0,0.0,0.0,0.0,0.0
1776358512297430375,71130,0.052,0.2,0.0,1.3,0.02,-0.16,0.06,-3.06,3.44,0.01,0.01,-0.36,-0.12,0.12,0.0,11936.91,196.0,0.0,0.0,0.0,0.0
1776358512387664091,71230,0.036,0.1,0.0,1.1,0.0,-0.18,0.06,-3.06,3.44,0.02,0.01,-0.37,-0.0,-0.06,0.0,11935.54,188.0,0.0,0.0,0.0,0.0
1776358512491985343,71330,0.024,0.2,0.0,0.8,-0.16,-0.23,0.06,-3.06,3.44,0.0,0.03,-0.37,-0.06,-0.12,0.06,11934.51,186.0,0.0,0.0,0.0,0.0
1776358512596679382,71430,0.02,0.1,0.0,1.0,0.04,-0.14,0.06,-3.06,3.44,0.0,0.03,-0.37,-0.0,0.25,0.12,11939.32,186.0,0.0,0.0,0.0,0.0
1776358512688896407,71530,0.012,0.4,0.0,0.4,0.08,-0.04,0.06,-3.06,3.44,0.0,0.01,-0.35,-0.0,0.19,0.12,11937.43,191.0,0.0,0.0,0.0,0.0
1776358512787277349,71629,0.0,0.7,0.0,0.3,-0.06,-0.18,0.06,-3.06,3.44,0.0,0.02,-0.35,0.06,-0.0,0.06,11938.63,211.0,0.0,0.0,0.0,0.0
1776358512889814564,71729,0.0,0.1,0.0,0.9,-0.2,-0.2,0.06,-3.06,3.44,0.0,0.02,-0.37,0.06,-0.0,0.0,11935.71,211.0,0.0,0.0,0.0,0.0
1776358512988101846,71828,0.008,0.1,0.0,1.0,0.06,-0.21,0.06,-3.06,3.44,0.02,0.01,-0.38,-0.0,-0.0,0.0,11935.37,211.0,0.0,0.0,0.0,0.0
1776358513090569345,71928,0.004,0.0,0.0,1.0,-0.14,-0.16,0.06,-3.06,3.44,0.02,0.02,-0.36,0.06,-0.19,-0.06,11935.2,213.0,0.0,0.0,0.0,0.0
1776358513189025978,72028,0.048,0.2,0.0,0.6,-0.02,-0.16,0.06,-3.06,3.44,0.0,0.01,-0.39,-0.0,-0.0,-0.06,11936.23,213.0,0.0,0.0,0.0,0.0
1776358513287315180,72128,0.052,0.1,0.0,1.2,-0.06,-0.23,0.06,-3.06,3.44,0.0,0.02,-0.38,0.06,-0.0,0.0,11935.2,216.0,0.0,0.0,0.0,0.0
1776358513387751452,72228,0.032,0.4,0.0,1.0,-0.02,-0.14,0.06,-3.06,3.44,0.0,0.03,-0.4,0.06,-0.0,0.06,11935.54,216.0,0.0,0.0,0.0,0.0
1776358513492113719,72328,0.024,0.3,0.0,1.1,0.06,-0.33,0.06,-3.06,3.44,0.0,0.02,-0.38,-0.0,0.06,0.0,11936.74,205.0,0.0,0.0,0.0,0.0
1776358513596569198,72428,0.016,0.1,0.0,1.3,0.06,-0.16,0.06,-3.06,3.44,0.0,-0.0,-0.37,-0.06,0.12,0.0,11932.28,197.0,0.0,0.0,0.0,0.0
1776358513689081190,72528,0.0,0.4,0.004,0.2,-0.1,-0.31,0.06,-3.06,3.44,0.01,0.02,-0.38,-0.0,0.06,0.0,11934.0,197.0,0.0,0.0,0.0,0.0
1776358513951228258,72628,0.0,0.3,0.0,0.9,-0.02,-0.14,0.06,-3.06,3.44,0.01,0.02,-0.36,0.25,0.06,0.06,11935.03,195.0,0.0,0.0,0.0,0.0
1776358513978064918,72728,0.004,0.1,0.0,0.9,-0.06,-0.29,0.06,-3.06,3.44,0.0,0.01,-0.37,-0.0,0.06,0.06,11934.17,208.0,0.0,0.0,0.0,0.0
1776358513990890057,72828,0.0,0.3,0.0,1.1,0.0,-0.23,0.06,-3.06,3.44,0.01,0.02,-0.41,0.12,-0.06,0.06,11935.71,208.0,0.0,0.0,0.0,0.0
1776358514096613961,72928,0.0,0.2,0.0,0.4,-0.08,-0.2,0.06,-3.06,3.44,0.0,0.01,-0.4,-0.12,0.06,0.0,11935.54,192.0,0.0,0.0,0.0,0.0
1776358514189103101,73028,0.0,0.6,0.0,0.2,0.08,-0.16,0.06,-3.06,3.44,0.01,0.03,-0.39,0.12,-0.12,0.06,11936.4,192.0,0.0,0.0,0.0,0.0
1776358514289470542,73128,0.048,0.4,0.0,0.5,-0.04,-0.2,0.06,-3.06,3.44,0.02,0.01,-0.38,-0.0,0.12,0.0,11936.57,205.0,0.0,0.0,0.0,0.0
1776358514387793931,73228,0.032,0.1,0.0,0.9,-0.08,-0.27,0.06,-3.06,3.44,0.0,-0.0,-0.37,-0.0,-0.0,0.06,11934.68,186.0,0.0,0.0,0.0,0.0
1776358514490290148,73328,0.024,0.4,0.0,0.1,-0.1,-0.31,0.06,-3.06,3.44,0.02,0.01,-0.37,-0.0,-0.06,-0.06,11938.12,186.0,0.0,0.0,0.0,0.0
1776358514590664983,73428,0.0,0.4,0.0,0.8,0.0,-0.2,0.06,-3.06,3.44,0.01,0.02,-0.39,-0.0,-0.12,0.06,11939.14,197.0,0.0,0.0,0.0,0.0
1776358514689037758,73528,0.02,0.1,0.0,0.3,0.0,-0.16,0.06,-3.06,3.44,0.01,0.03,-0.37,0.06,-0.0,0.12,11937.6,199.0,0.0,0.0,0.0,0.0
1776358514791607043,73628,0.0,0.5,0.0,1.0,-0.08,-0.16,0.06,-3.06,3.44,0.03,-0.0,-0.38,-0.0,0.12,0.0,11937.6,199.0,0.0,0.0,0.0,0.0
1776358514889884290,73729,0.008,0.6,0.0,1.1,0.06,-0.23,0.06,-3.06,3.44,0.02,-0.0,-0.34,-0.06,-0.25,-0.06,11935.54,198.0,0.0,0.0,0.0,0.0
1776358514992376579,73829,0.0,0.2,0.0,0.3,-0.12,-0.21,0.06,-3.06,3.44,0.0,0.02,-0.35,-0.0,-0.06,0.0,11934.68,205.0,0.0,0.0,0.0,0.0
1776358515090788004,73929,0.0,0.2,0.0,1.0,-0.12,-0.16,0.06,-3.06,3.44,0.02,0.02,-0.38,-0.0,-0.0,0.06,11936.57,205.0,0.0,0.0,0.0,0.0
1776358515193180428,74030,0.0,0.4,0.0,1.2,0.04,-0.18,0.06,-3.06,3.44,0.01,0.01,-0.36,0.06,0.12,0.06,11936.06,220.0,0.0,0.0,0.0,0.0
1776358515301621561,74130,0.048,0.5,0.0,1.1,-0.04,-0.23,0.06,-3.06,3.44,0.0,0.03,-0.38,0.06,-0.0,0.06,11935.71,203.0,0.0,0.0,0.0,0.0
1776358515391983461,74230,0.0,0.1,0.0,0.9,-0.08,-0.06,0.06,-3.06,3.44,0.03,0.02,-0.33,0.12,-0.0,0.0,11936.74,203.0,0.0,0.0,0.0,0.0
1776358515500454225,74331,0.0,0.1,0.0,1.1,-0.06,-0.14,0.06,-3.06,3.44,0.02,-0.0,-0.37,-0.0,-0.0,0.06,11937.6,216.0,0.0,0.0,0.0,0.0
1776358515594871520,74431,0.02,0.1,0.0,0.8,0.06,-0.25,0.06,-3.06,3.44,0.03,0.02,-0.37,-0.06,0.06,0.12,11937.09,216.0,0.0,0.0,0.0,0.0
1776358515693234343,74530,0.0,0.5,0.0,1.1,0.02,-0.23,0.06,-3.06,3.44,0.02,0.02,-0.37,0.06,-0.12,0.0,11936.23,213.0,0.0,0.0,0.0,0.0
1776358515795674261,74630,0.0,0.6,0.0,0.9,-0.12,-0.31,0.06,-3.06,3.44,0.01,0.02,-0.37,0.06,0.12,0.0,11935.89,169.0,0.0,0.0,0.0,0.0
1776358515894140003,74730,0.008,0.4,0.0,0.9,0.02,-0.23,0.06,-3.06,3.44,0.01,0.01,-0.34,-0.0,0.06,-0.06,11936.57,169.0,0.0,0.0,0.0,0.0
1776358515996500535,74829,0.008,0.6,0.0,0.9,-0.18,-0.21,0.06,-3.06,3.44,0.0,0.02,-0.37,-0.06,0.06,0.0,11937.09,226.0,0.0,0.0,0.0,0.0
1776358516311210125,74929,0.0,0.4,0.0,0.3,0.12,-0.18,0.06,-3.06,3.44,-0.01,0.01,-0.37,0.06,-0.06,-0.12,11936.91,203.0,0.0,0.0,0.0,0.0
1776358516379778692,75029,0.0,0.6,0.0,1.3,0.02,-0.21,0.06,-3.06,3.44,0.02,0.01,-0.37,0.06,0.06,-0.06,11936.74,203.0,0.0,0.0,0.0,0.0
1776358516383895425,75129,0.0,1.0,0.0,0.9,-0.04,-0.2,0.06,-3.06,3.44,0.01,0.02,-0.37,0.06,-0.12,-0.06,11937.94,199.0,0.0,0.0,0.0,0.0
1776358516392052286,75229,0.036,0.1,0.0,0.9,-0.06,-0.23,0.06,-3.06,3.44,0.01,0.01,-0.38,-0.06,-0.0,0.06,11939.32,199.0,0.0,0.0,0.0,0.0
1776358516490368319,75328,0.0,0.0,0.0,1.3,0.0,-0.23,0.06,-3.06,3.44,0.0,-0.0,-0.37,0.06,0.06,0.12,11940.34,218.0,0.0,0.0,0.0,0.0
1776358516590689398,75428,0.0,0.6,0.02,0.9,0.1,-0.06,0.06,-3.06,3.44,0.0,0.03,-0.36,-0.06,0.06,0.06,11935.89,201.0,0.0,0.0,0.0,0.0
1776358516699217481,75528,0.0,0.5,0.0,0.3,-0.04,-0.21,0.06,-3.06,3.44,0.02,0.03,-0.36,-0.0,-0.12,-0.12,11937.77,201.0,0.0,0.0,0.0,0.0
1776358516903223648,75628,0.0,0.1,0.0,0.7,0.02,-0.18,0.06,-3.06,3.44,0.01,0.01,-0.35,0.06,0.06,0.12,11936.57,217.0,0.0,0.0,0.0,0.0
1776358516915800287,75728,0.004,0.2,0.0,0.8,0.02,-0.1,0.06,-3.06,3.44,0.03,0.01,-0.35,-0.0,0.12,0.0,11937.09,206.0,0.0,0.0,0.0,0.0
1776358516992425707,75828,0.0,0.5,0.0,1.2,0.16,-0.18,0.06,-3.06,3.44,0.0,0.02,-0.36,0.06,-0.0,0.06,11937.94,206.0,0.0,0.0,0.0,0.0
1776358517100859159,75928,0.004,0.5,0.0,0.5,0.14,-0.18,0.06,-3.06,3.44,0.0,-0.0,-0.37,-0.19,0.06,0.0,11936.23,224.0,0.0,0.0,0.0,0.0
1776358517193243992,76028,0.048,0.2,0.0,0.3,-0.1,-0.21,0.06,-3.06,3.44,0.02,-0.0,-0.34,-0.06,-0.06,0.06,11936.4,233.0,0.0,0.0,0.0,0.0
1776358517301709674,76128,0.0,0.2,0.0,1.2,0.08,-0.2,0.06,-3.06,3.44,0.01,0.01,-0.37,-0.0,-0.0,0.0,11936.06,233.0,0.0,0.0,0.0,0.0
1776358517392115291,76228,0.0,0.7,0.0,0.9,-0.12,-0.18,0.06,-3.06,3.44,0.01,0.01,-0.36,-0.0,0.12,0.0,11935.54,199.0,0.0,0.0,0.0,0.0
1776358517496367548,76328,0.028,0.3,0.0,0.9,0.0,-0.21,0.06,-3.06,3.44,0.01,0.02,-0.36,-0.0,0.06,-0.06,11936.23,209.0,0.0,0.0,0.0,0.0
1776358517594937370,76428,0.016,0.2,0.0,0.9,-0.14,-0.29,0.06,-3.06,3.44,0.01,0.01,-0.37,0.06,0.12,-0.06,11936.57,209.0,0.0,0.0,0.0,0.0
1776358517703275880,76528,0.0,0.5,0.0,0.2,0.08,-0.23,0.06,-3.06,3.44,0.02,0.01,-0.35,0.06,-0.0,0.06,11935.37,204.0,0.0,0.0,0.0,0.0
1776358517795801264,76628,0.0,0.6,0.0,0.3,-0.12,-0.06,0.06,-3.06,3.44,0.0,-0.0,-0.36,-0.06,-0.0,0.06,11936.57,204.0,0.0,0.0,0.0,0.0
1776358517894088002,76728,0.0,0.6,0.0,0.5,-0.06,-0.16,0.06,-3.06,3.44,0.02,-0.0,-0.37,-0.0,-0.06,-0.06,11938.46,187.0,0.0,0.0,0.0,0.0
1776358517996545546,76828,0.0,0.3,0.0,0.9,-0.02,-0.12,0.06,-3.06,3.44,0.02,0.01,-0.35,-0.12,0.06,-0.06,11935.54,208.0,0.0,0.0,0.0,0.0
1776358518100936162,76928,0.0,0.5,0.0,1.2,-0.04,-0.14,0.06,-3.06,3.44,0.02,0.01,-0.36,0.12,-0.06,0.06,11937.94,208.0,0.0,0.0,0.0,0.0
1776358518193298153,77028,0.0,0.1,0.0,0.9,0.08,-0.18,0.06,-3.06,3.44,0.0,0.01,-0.36,0.12,-0.0,0.06,11936.4,223.0,0.0,0.0,0.0,0.0
1776358518301641848,77128,0.0,0.3,0.0,0.5,-0.02,-0.27,0.06,-3.06,3.44,0.01,0.02,-0.36,-0.0,-0.06,-0.06,11936.91,206.0,0.0,0.0,0.0,0.0
1776358518396167524,77229,0.0,0.6,0.0,0.4,0.08,-0.29,0.06,-3.06,3.44,0.01,0.02,-0.35,-0.0,0.06,0.0,11937.6,206.0,0.0,0.0,0.0,0.0
1776358518496441671,77329,0.02,0.3,0.0,1.3,0.06,-0.23,0.06,-3.06,3.44,0.02,-0.0,-0.36,-0.06,0.06,-0.12,11935.89,219.0,0.0,0.0,0.0,0.0
1776358518605065981,77429,0.016,0.2,0.012,0.2,-0.14,-0.18,0.06,-3.06,3.44,0.0,0.01,-0.37,-0.06,0.12,-0.06,11937.6,219.0,0.0,0.0,0.0,0.0
1776358518703412717,77530,0.0,1.0,0.0,0.8,-0.04,-0.25,0.06,-3.06,3.44,-0.01,-0.0,-0.37,0.12,0.06,0.0,11936.4,229.0,0.0,0.0,0.0,0.0
1776358519015218779,77630,0.012,0.2,0.0,0.2,-0.06,-0.29,0.06,-3.06,3.44,0.0,0.02,-0.37,0.06,0.12,0.0,11936.91,231.0,0.0,0.0,0.0,0.0
1776358519084662632,77730,0.008,0.1,0.0,0.3,-0.1,-0.1,0.06,-3.06,3.44,0.01,0.01,-0.35,-0.0,-0.06,-0.06,11937.94,231.0,0.0,0.0,0.0,0.0
1776358519097165335,77831,0.0,0.4,0.0,0.5,0.0,-0.29,0.06,-3.06,3.44,0.02,-0.0,-0.37,0.06,-0.0,0.06,11937.26,189.0,0.0,0.0,0.0,0.0
1776358519111258423,77931,0.0,0.2,0.0,0.4,0.1,-0.37,0.06,-3.06,3.44,0.0,0.02,-0.35,-0.0,0.25,0.0,11935.03,220.0,0.0,0.0,0.0,0.0
1776358519199399899,78031,0.056,0.1,0.0,0.8,-0.12,-0.14,0.06,-3.06,3.44,0.0,0.02,-0.36,-0.0,0.06,0.0,11938.12,220.0,0.0,0.0,0.0,0.0
1776358519305782767,78132,0.0,0.3,0.0,1.4,0.06,-0.14,0.06,-3.06,3.44,0.0,0.02,-0.33,-0.0,0.06,0.19,11936.74,218.0,0.0,0.0,0.0,0.0
1776358519400223151,78232,0.04,0.1,0.0,1.0,-0.08,-0.08,0.06,-3.06,3.44,0.01,-0.0,-0.35,0.12,-0.06,-0.06,11937.6,192.0,0.0,0.0,0.0,0.0
1776358519498610163,78332,0.024,0.2,0.0,0.3,-0.02,-0.1,0.06,-3.06,3.44,0.0,0.03,-0.37,-0.12,-0.06,0.12,11936.23,192.0,0.0,0.0,0.0,0.0
1776358519598959354,78432,0.008,0.1,0.0,1.1,-0.14,-0.2,0.06,-3.06,3.44,0.02,0.02,-0.37,-0.0,-0.12,-0.06,11935.54,220.0,0.0,0.0,0.0,0.0
1776358519707506167,78532,0.0,0.2,0.0,0.9,0.04,-0.12,0.06,-3.06,3.44,0.01,0.03,-0.36,-0.0,-0.12,-0.06,11935.89,223.0,0.0,0.0,0.0,0.0
1776358519799785032,78632,0.0,0.4,0.0,1.2,-0.02,-0.29,0.06,-3.06,3.44,0.0,0.02,-0.37,-0.06,-0.0,0.06,11936.4,223.0,0.0,0.0,0.0,0.0
1776358519908289895,78732,0.008,0.3,0.0,0.5,0.02,-0.18,0.06,-3.06,3.44,0.0,0.01,-0.35,-0.19,-0.12,0.0,11937.94,226.0,0.0,0.0,0.0,0.0
1776358520115218081,78832,0.0,0.7,0.0,1.2,-0.06,-0.27,0.06,-3.06,3.44,0.01,0.02,-0.36,-0.06,0.06,0.0,11936.23,226.0,0.0,0.0,0.0,0.0
1776358520129408317,78932,0.004,0.2,0.0,0.3,-0.06,-0.1,0.06,-3.06,3.44,0.01,0.01,-0.35,-0.06,0.06,0.0,11938.29,225.0,0.0,0.0,0.0,0.0
1776358520201465950,79032,0.0,0.2,0.0,1.3,-0.1,-0.2,0.06,-3.06,3.44,0.02,0.02,-0.37,-0.0,0.12,0.06,11937.09,211.0,0.0,0.0,0.0,0.0
1776358520301883914,79132,0.044,-0.1,0.028,1.3,-0.06,-0.1,0.06,-3.06,3.44,0.01,0.01,-0.37,-0.0,-0.12,0.12,11937.09,211.0,0.0,0.0,0.0,0.0
1776358520400372751,79233,0.0,0.7,0.0,0.7,0.0,-0.18,0.06,-3.06,3.44,0.0,0.01,-0.38,-0.06,0.12,0.0,11937.26,247.0,0.0,0.0,0.0,0.0
1776358520504514690,79333,0.0,0.4,0.0,1.0,-0.02,-0.16,0.06,-3.06,3.44,0.02,0.03,-0.34,0.06,-0.12,0.19,11935.89,218.0,0.0,0.0,0.0,0.0
1776358520603197805,79433,0.0,0.7,0.012,0.7,-0.08,-0.27,0.06,-3.06,3.44,0.0,-0.0,-0.36,-0.0,0.06,0.0,11938.29,218.0,0.0,0.0,0.0,0.0
1776358520711446255,79533,0.012,0.2,0.0,1.1,0.06,-0.2,0.06,-3.06,3.44,0.01,0.02,-0.37,-0.19,-0.06,0.06,11936.23,196.0,0.0,0.0,0.0,0.0
1776358520803900935,79633,0.0,0.2,0.0,0.8,0.02,-0.2,0.06,-3.06,3.44,0.01,0.01,-0.34,0.12,0.06,0.06,11935.54,206.0,0.0,0.0,0.0,0.0
1776358520912432455,79733,0.0,0.2,0.0,0.5,0.06,-0.29,0.06,-3.06,3.44,0.0,0.01,-0.37,-0.0,0.06,0.0,11937.09,206.0,0.0,0.0,0.0,0.0
1776358521004727603,79834,0.0,0.2,0.0,0.7,-0.16,-0.23,0.06,-3.06,3.44,0.01,-0.0,-0.35,0.25,0.06,0.06,11935.71,197.0,0.0,0.0,0.0,0.0
1776358521103095609,79934,0.004,0.0,0.0,0.4,-0.06,-0.21,0.06,-3.06,3.44,0.01,-0.0,-0.37,0.06,-0.0,0.0,11939.32,197.0,0.0,0.0,0.0,0.0
1776358521201396837,80033,0.052,0.3,0.0,1.2,-0.04,-0.21,0.06,-3.06,3.44,0.0,0.01,-0.37,-0.06,0.06,0.12,11937.43,204.0,0.0,0.0,0.0,0.0
1776358521309759014,80133,0.048,0.7,0.04,0.3,-0.04,-0.04,0.06,-3.06,3.44,0.0,0.01,-0.36,-0.06,-0.0,0.0,11938.63,202.0,0.0,0.0,0.0,0.0
1776358521400170509,80233,0.0,0.5,0.0,0.5,0.02,-0.29,0.06,-3.06,3.44,0.0,-0.0,-0.36,-0.0,-0.0,0.0,11939.49,202.0,0.0,0.0,0.0,0.0
1776358521508661517,80333,0.0,0.6,0.02,1.2,-0.06,-0.25,0.06,-3.06,3.44,0.01,0.01,-0.36,-0.0,0.06,0.0,11938.97,180.0,0.0,0.0,0.0,0.0
1776358521602980867,80433,0.016,0.2,0.0,1.0,0.06,-0.1,0.06,-3.06,3.44,0.0,-0.0,-0.36,-0.0,-0.12,0.0,11934.17,231.0,0.0,0.0,0.0,0.0
1776358521703440749,80533,0.012,-0.2,0.0,1.0,-0.04,-0.27,0.06,-3.06,3.44,0.0,-0.0,-0.36,0.06,-0.12,0.0,11934.86,231.0,0.0,0.0,0.0,0.0
1776358521803827663,80633,0.0,0.1,0.0,1.0,-0.12,-0.23,0.06,-3.06,3.44,0.02,0.01,-0.37,-0.0,-0.19,-0.06,11932.8,206.0,0.0,0.0,0.0,0.0
1776358522131221671,80733,0.012,0.3,0.0,1.0,-0.02,-0.18,0.06,-3.06,3.44,0.02,0.03,-0.36,-0.0,-0.06,0.06,11933.83,224.0,0.0,0.0,0.0,0.0
1776358522191130053,80833,0.0,0.2,0.0,0.5,-0.02,-0.23,0.06,-3.06,3.44,0.0,-0.0,-0.35,-0.06,0.06,-0.06,11936.06,224.0,0.0,0.0,0.0,0.0
1776358522203262093,80933,0.0,0.8,0.0,0.6,-0.02,-0.18,0.06,-3.06,3.44,0.02,0.01,-0.35,-0.0,-0.31,0.06,11934.0,200.0,0.0,0.0,0.0,0.0
1776358522215756608,81033,0.0,0.6,0.0,0.8,-0.14,-0.21,0.06,-3.06,3.44,-0.01,0.02,-0.34,-0.06,-0.0,0.0,11934.17,200.0,0.0,0.0,0.0,0.0
1776358522303731550,81132,0.0,0.2,0.0,0.6,0.06,-0.14,0.06,-3.06,3.44,0.0,0.03,-0.35,0.06,0.06,0.06,11935.71,202.0,0.0,0.0,0.0,0.0
1776358522400205643,81232,0.032,0.2,0.0,0.8,0.1,-0.16,0.06,-3.06,3.44,0.0,-0.0,-0.35,-0.12,0.06,0.06,11935.2,195.0,0.0,0.0,0.0,0.0
1776358522502543693,81332,0.024,-0.2,0.0,1.1,-0.04,-0.18,0.06,-3.06,3.44,0.03,0.01,-0.37,0.12,-0.06,0.0,11936.74,195.0,0.0,0.0,0.0,0.0
1776358522602868942,81432,0.016,0.0,0.0,1.3,-0.08,-0.16,0.06,-3.06,3.44,0.0,-0.0,-0.37,-0.0,0.12,0.0,11935.71,211.0,0.0,0.0,0.0,0.0
1776358522705445158,81532,0.008,0.3,0.008,0.7,-0.02,-0.16,0.06,-3.06,3.44,-0.02,0.01,-0.35,-0.0,-0.06,0.0,11935.37,207.0,0.0,0.0,0.0,0.0
1776358522803746989,81632,0.008,0.9,0.0,0.3,0.0,-0.21,0.06,-3.06,3.44,0.0,0.02,-0.35,-0.06,-0.06,-0.06,11935.37,207.0,0.0,0.0,0.0,0.0
1776358523023219608,81732,0.004,0.1,0.0,1.1,-0.08,-0.2,0.06,-3.06,3.44,0.0,0.04,-0.36,-0.06,-0.12,0.0,11936.57,213.0,0.0,0.0,0.0,0.0
1776358523096889344,81832,0.0,0.4,0.0,0.9,0.04,-0.06,0.06,-3.06,3.44,0.0,0.01,-0.38,-0.0,0.06,0.0,11934.17,182.0,0.0,0.0,0.0,0.0
1776358523110730506,81932,0.0,0.3,0.0,1.0,0.06,-0.14,0.06,-3.06,3.44,0.02,0.01,-0.39,-0.12,-0.0,0.06,11935.2,182.0,0.0,0.0,0.0,0.0
1776358523205387216,82032,0.06,0.3,0.0,0.9,0.08,-0.12,0.06,-3.06,3.44,0.0,0.02,-0.37,0.06,-0.0,0.0,11934.86,158.0,0.0,0.0,0.0,0.0
1776358523307919478,82132,0.048,0.1,0.0,1.0,0.08,-0.14,0.06,-3.06,3.44,0.0,0.03,-0.38,-0.19,0.12,0.0,11938.12,158.0,0.0,0.0,0.0,0.0
1776358523404185486,82232,0.036,0.1,0.0,0.6,-0.02,-0.12,0.06,-3.06,3.44,0.02,0.02,-0.39,0.06,-0.06,0.0,11938.46,189.0,0.0,0.0,0.0,0.0
1776358523502544069,82332,0.0,0.6,0.0,1.0,0.04,-0.2,0.06,-3.06,3.44,-0.01,0.01,-0.37,0.06,-0.12,0.12,11935.89,195.0,0.0,0.0,0.0,0.0
1776358523607207795,82433,0.0,0.1,0.0,0.8,-0.08,-0.2,0.06,-3.06,3.44,0.01,0.02,-0.4,-0.0,-0.06,0.06,11935.54,195.0,0.0,0.0,0.0,0.0
1776358523705375183,82533,0.012,0.3,0.0,0.9,-0.25,-0.12,0.06,-3.06,3.44,0.02,0.01,-0.35,-0.0,-0.06,0.06,11933.66,207.0,0.0,0.0,0.0,0.0
1776358523813797534,82633,0.004,0.1,0.0,0.8,-0.1,-0.14,0.06,-3.06,3.44,0.02,-0.0,-0.37,-0.0,0.12,0.0,11933.31,201.0,0.0,0.0,0.0,0.0
1776358523943210491,82734,0.012,0.4,0.0,1.2,0.02,-0.23,0.06,-3.06,3.44,0.0,0.03,-0.39,-0.0,-0.06,-0.06,11934.34,201.0,0.0,0.0,0.0,0.0
1776358524008597263,82834,0.004,0.7,0.0,0.5,0.02,-0.2,0.06,-3.06,3.44,0.04,0.01,-0.39,-0.19,-0.06,0.06,11933.83,203.0,0.0,0.0,0.0,0.0
1776358524106841200,82934,0.004,0.2,0.0,0.4,0.02,-0.25,0.06,-3.06,3.44,0.01,0.03,-0.36,-0.0,0.12,0.0,11934.0,210.0,0.0,0.0,0.0,0.0
1776358524207363166,83034,0.0,1.1,0.0,0.7,0.0,-0.16,0.06,-3.06,3.44,0.01,-0.0,-0.36,0.06,-0.12,-0.06,11936.23,210.0,0.0,0.0,0.0,0.0
1776358524313710365,83134,0.0,0.9,0.0,1.0,-0.2,-0.18,0.06,-3.06,3.44,0.0,0.03,-0.38,-0.06,-0.06,0.0,11935.03,198.0,0.0,0.0,0.0,0.0
1776358524408129065,83234,0.032,0.0,0.0,0.6,-0.12,-0.2,0.06,-3.06,3.44,0.01,-0.0,-0.34,-0.0,-0.0,0.06,11936.23,192.0,0.0,0.0,0.0,0.0
1776358524508394509,83334,0.0,0.2,0.0,1.0,-0.1,-0.27,0.06,-3.06,3.44,0.0,-0.0,-0.38,-0.06,0.06,0.0,11935.71,192.0,0.0,0.0,0.0,0.0
1776358524606868620,83433,0.0,0.5,0.016,0.5,0.08,-0.16,0.06,-3.06,3.44,0.0,0.01,-0.37,-0.06,-0.0,0.0,11935.71,204.0,0.0,0.0,0.0,0.0
1776358524715418996,83533,0.016,0.1,0.0,0.9,0.04,-0.12,0.06,-3.06,3.44,0.0,0.01,-0.37,-0.06,0.06,0.06,11935.2,204.0,0.0,0.0,0.0,0.0
1776358524807694884,83633,0.0,-0.1,0.0,0.9,-0.06,-0.16,0.06,-3.06,3.44,0.02,0.02,-0.37,-0.06,-0.12,0.06,11937.26,195.0,0.0,0.0,0.0,0.0
1776358524916133758,83733,0.0,0.4,0.0,0.5,-0.06,-0.04,0.06,-3.06,3.44,0.02,0.02,-0.4,-0.0,-0.06,0.06,11936.57,217.0,0.0,0.0,0.0,0.0
1776358525008487819,83833,0.0,0.5,0.0,0.1,-0.02,-0.2,0.06,-3.06,3.44,0.02,-0.0,-0.39,-0.06,0.06,-0.06,11936.57,217.0,0.0,0.0,0.0,0.0
1776358525116988711,83934,0.008,0.1,0.004,1.0,0.14,-0.08,0.06,-3.06,3.44,0.02,-0.0,-0.38,-0.0,-0.19,0.0,11936.23,177.0,0.0,0.0,0.0,0.0
1776358525209326760,84034,0.052,0.2,0.0,0.3,-0.02,-0.25,0.06,-3.06,3.44,0.01,0.01,-0.37,0.19,0.12,0.06,11936.57,220.0,0.0,0.0,0.0,0.0
1776358525307569394,84134,0.048,0.1,0.032,0.9,0.06,-0.12,0.06,-3.06,3.44,0.01,0.01,-0.35,-0.06,0.19,-0.06,11937.6,220.0,0.0,0.0,0.0,0.0
1776358525408158672,84234,0.0,0.2,0.0,1.1,-0.08,-0.18,0.06,-3.06,3.44,0.02,0.01,-0.37,0.06,-0.0,-0.06,11935.37,208.0,0.0,0.0,0.0,0.0
1776358525512354563,84334,0.032,-0.1,0.0,1.2,0.06,-0.25,0.06,-3.06,3.44,0.0,-0.0,-0.37,-0.06,-0.06,-0.06,11937.26,208.0,0.0,0.0,0.0,0.0
1776358525610907205,84434,0.012,0.4,0.0,1.1,-0.02,-0.27,0.06,-3.06,3.44,0.02,0.02,-0.38,-0.12,0.06,0.12,11936.4,177.0,0.0,0.0,0.0,0.0
1776358525709136998,84534,0.0,0.0,0.0,0.9,-0.08,-0.1,0.06,-3.06,3.44,0.0,0.02,-0.37,-0.06,0.19,-0.06,11936.74,195.0,0.0,0.0,0.0,0.0
1776358525919220965,84634,0.008,0.1,0.0,0.2,-0.08,-0.16,0.06,-3.06,3.44,0.02,-0.0,-0.37,-0.0,-0.06,0.0,11937.77,195.0,0.0,0.0,0.0,0.0
1776358525931323614,84734,0.0,0.3,0.0,0.6,-0.12,-0.21,0.06,-3.06,3.44,0.0,0.02,-0.4,0.19,-0.12,-0.12,11937.94,192.0,0.0,0.0,0.0,0.0
1776358526012566053,84834,0.0,0.9,0.0,1.2,0.06,-0.18,0.06,-3.06,3.44,0.02,0.01,-0.37,0.06,0.06,0.0,11936.06,210.0,0.0,0.0,0.0,0.0
1776358526110877682,84934,0.004,0.1,0.0,0.9,0.1,-0.21,0.06,-3.06,3.44,0.02,0.01,-0.38,-0.0,-0.06,-0.06,11939.32,210.0,0.0,0.0,0.0,0.0
1776358526219270830,85035,0.056,0.6,0.0,0.8,-0.08,-0.12,0.06,-3.06,3.44,0.01,-0.0,-0.38,-0.0,0.12,0.06,11937.77,197.0,0.0,0.0,0.0,0.0
1776358526311648567,85135,0.048,0.3,0.024,0.3,-0.06,-0.2,0.06,-3.06,3.44,0.02,0.03,-0.37,-0.06,-0.0,0.0,11936.91,198.0,0.0,0.0,0.0,0.0
1776358526511208394,85235,0.0,0.7,0.0,0.9,0.0,-0.25,0.06,-3.06,3.44,0.03,0.02,-0.38,-0.0,-0.06,-0.06,11936.4,198.0,0.0,0.0,0.0,0.0
1776358526518810253,85336,0.032,0.3,0.0,0.9,0.06,-0.14,0.06,-3.06,3.44,0.02,0.02,-0.38,-0.06,-0.0,0.06,11939.66,203.0,0.0,0.0,0.0,0.0
1776358526620811803,85436,0.02,0.4,0.0,1.1,-0.14,-0.29,0.06,-3.06,3.44,0.0,0.03,-0.37,0.12,-0.0,0.12,11937.77,211.0,0.0,0.0,0.0,0.0
1776358526713351916,85536,0.012,0.2,0.016,1.0,0.02,-0.18,0.06,-3.06,3.44,0.01,0.02,-0.37,0.12,0.06,0.0,11939.83,211.0,0.0,0.0,0.0,0.0
1776358526815614797,85637,0.012,0.2,0.0,0.9,-0.04,-0.12,0.06,-3.06,3.44,0.0,0.01,-0.37,-0.06,-0.0,0.06,11938.12,221.0,0.0,0.0,0.0,0.0
1776358526914132731,85737,0.012,0.3,0.0,0.7,-0.04,-0.2,0.06,-3.06,3.44,0.01,-0.0,-0.37,0.19,-0.0,-0.06,11939.14,221.0,0.0,0.0,0.0,0.0
1776358527022483989,85837,0.008,0.2,0.0,0.9,-0.12,-0.16,0.06,-3.06,3.44,0.0,0.01,-0.38,-0.0,0.06,0.06,11940.34,230.0,0.0,0.0,0.0,0.0
1776358527219213725,85937,0.0,0.5,0.0,0.5,0.06,-0.25,0.06,-3.06,3.44,0.01,0.01,-0.36,-0.12,0.12,-0.06,11939.49,196.0,0.0,0.0,0.0,0.0
1776358527231840963,86037,0.0,0.2,0.0,0.9,-0.16,-0.2,0.06,-3.06,3.44,0.01,0.02,-0.39,0.12,-0.19,0.0,11938.12,196.0,0.0,0.0,0.0,0.0
1776358527321633392,86136,0.0,0.9,0.04,0.3,0.02,-0.21,0.06,-3.06,3.44,0.01,0.03,-0.39,-0.0,-0.06,0.06,11938.46,186.0,0.0,0.0,0.0,0.0
1776358527411900547,86236,0.036,0.1,0.0,0.6,-0.12,-0.18,0.06,-3.06,3.44,0.01,0.02,-0.42,-0.06,-0.12,0.0,11936.74,221.0,0.0,0.0,0.0,0.0
1776358527514345985,86336,0.02,0.4,0.0,0.3,-0.02,-0.18,0.06,-3.06,3.44,0.0,-0.0,-0.39,0.06,-0.19,0.0,11937.94,221.0,0.0,0.0,0.0,0.0
1776358527620829390,86436,0.02,0.3,0.0,0.8,-0.02,-0.12,0.06,-3.06,3.44,0.01,0.03,-0.39,0.06,-0.06,-0.06,11939.32,242.0,0.0,0.0,0.0,0.0
1776358527823222555,86536,0.016,0.0,0.0,0.1,0.04,-0.2,0.06,-3.06,3.44,0.01,-0.0,-0.38,-0.0,-0.0,0.0,11938.97,242.0,0.0,0.0,0.0,0.0
1776358527835477003,86636,0.0,0.3,0.0,0.9,-0.12,-0.25,0.06,-3.06,3.44,0.02,0.01,-0.39,0.06,0.12,0.12,11939.14,228.0,0.0,0.0,0.0,0.0
1776358527913797135,86736,0.008,0.0,0.0,0.9,-0.06,-0.16,0.06,-3.06,3.44,0.0,0.01,-0.39,-0.0,0.19,0.06,11936.91,185.0,0.0,0.0,0.0,0.0
1776358528022342590,86836,0.012,0.0,0.0,0.8,-0.04,-0.18,0.06,-3.06,3.44,-0.01,0.01,-0.35,0.06,0.12,0.0,11937.09,185.0,0.0,0.0,0.0,0.0
1776358528114666674,86936,0.0,0.7,0.0,0.7,-0.06,-0.25,0.06,-3.06,3.44,0.02,0.03,-0.36,-0.06,0.19,-0.06,11936.91,191.0,0.0,0.0,0.0,0.0
1776358528213007319,87036,0.06,0.3,0.0,0.8,-0.1,-0.18,0.06,-3.06,3.44,0.03,0.01,-0.37,-0.0,0.12,0.25,11935.54,201.0,0.0,0.0,0.0,0.0
1776358528315562001,87136,0.0,0.0,0.0,0.5,-0.04,-0.2,0.06,-3.06,3.44,0.01,0.01,-0.36,0.19,0.19,0.0,11937.26,201.0,0.0,0.0,0.0,0.0
1776358528411876795,87236,0.0,0.4,0.0,0.6,-0.2,-0.14,0.06,-3.06,3.44,0.01,0.02,-0.35,-0.06,-0.06,0.0,11937.77,212.0,0.0,0.0,0.0,0.0
1776358528520180580,87336,0.028,0.2,0.0,1.2,0.0,-0.2,0.06,-3.06,3.44,0.0,-0.0,-0.37,0.25,-0.0,0.0,11937.26,240.0,0.0,0.0,0.0,0.0
1776358528614633470,87436,0.016,0.1,0.0,1.1,-0.06,-0.2,0.06,-3.06,3.44,0.0,0.02,-0.36,0.06,-0.0,0.06,11935.71,240.0,0.0,0.0,0.0,0.0
1776358528716942167,87536,0.008,0.2,0.0,1.3,0.08,-0.18,0.06,-3.06,3.44,0.0,0.01,-0.35,-0.0,-0.0,0.06,11936.57,217.0,0.0,0.0,0.0,0.0
1776358528815400015,87636,0.008,0.2,0.0,0.6,-0.1,-0.1,0.06,-3.06,3.44,0.0,-0.0,-0.34,-0.0,-0.06,-0.06,11936.91,219.0,0.0,0.0,0.0,0.0
1776358528923756880,87736,0.0,0.6,0.0,1.0,-0.12,-0.1,0.06,-3.06,3.44,0.02,-0.0,-0.36,-0.12,0.12,0.06,11938.97,219.0,0.0,0.0,0.0,0.0
1776358529016110412,87836,0.004,0.2,0.0,1.0,-0.08,-0.18,0.06,-3.06,3.44,0.0,0.01,-0.37,-0.06,0.25,0.06,11936.91,210.0,0.0,0.0,0.0,0.0
1776358529114525186,87937,0.0,0.2,0.0,0.6,0.08,-0.21,0.06,-3.06,3.44,-0.01,-0.0,-0.35,-0.0,-0.25,0.06,11936.57,210.0,0.0,0.0,0.0,0.0
1776358529222999877,88037,0.0,1.0,0.052,0.7,0.0,-0.2,0.06,-3.06,3.44,0.01,0.02,-0.37,-0.12,-0.0,0.06,11940.17,212.0,0.0,0.0,0.0,0.0
1776358529315284943,88137,0.048,0.4,0.036,1.2,0.04,-0.14,0.06,-3.06,3.44,0.0,0.02,-0.37,-0.0,-0.0,-0.06,11936.57,194.0,0.0,0.0,0.0,0.0
1776358529415714668,88237,0.0,0.8,0.0,0.7,0.14,-0.23,0.06,-3.06,3.44,0.01,0.01,-0.35,0.06,0.06,-0.06,11936.23,194.0,0.0,0.0,0.0,0.0
1776358529520106562,88337,0.024,0.5,0.028,0.1,0.02,-0.25,0.06,-3.06,3.44,0.0,-0.0,-0.36,-0.0,-0.0,-0.06,11935.37,198.0,0.0,0.0,0.0,0.0
1776358529624729430,88437,0.0,0.3,0.0,1.2,-0.08,-0.21,0.06,-3.06,3.44,0.03,-0.0,-0.36,-0.06,-0.0,0.0,11936.91,213.0,0.0,0.0,0.0,0.0
1776358529722942390,88537,0.012,0.0,0.0,1.2,-0.02,-0.04,0.06,-3.06,3.44,0.0,0.01,-0.35,-0.0,-0.0,-0.06,11936.57,213.0,0.0,0.0,0.0,0.0
1776358529825291820,88636,0.0,0.3,0.0,0.8,-0.02,-0.29,0.06,-3.06,3.44,0.01,0.01,-0.37,0.12,-0.12,0.0,11935.89,191.0,0.0,0.0,0.0,0.0
1776358529923715005,88736,0.0,0.3,0.0,0.5,0.02,-0.16,0.06,-3.06,3.44,0.0,-0.0,-0.37,-0.0,-0.12,-0.06,11937.43,191.0,0.0,0.0,0.0,0.0
1776358530026153481,88837,0.0,0.2,0.0,0.3,-0.08,-0.27,0.06,-3.06,3.44,0.01,-0.0,-0.37,-0.0,-0.0,-0.06,11938.8,188.0,0.0,0.0,0.0,0.0
1776358530124471269,88937,0.0,0.3,0.0,0.5,0.06,-0.23,0.06,-3.06,3.44,0.0,0.01,-0.34,-0.12,-0.0,0.0,11935.71,181.0,0.0,0.0,0.0,0.0
1776358530216842481,89037,0.0,0.2,0.0,0.5,-0.04,-0.2,0.06,-3.06,3.44,0.01,0.02,-0.36,-0.06,0.12,0.06,11936.91,181.0,0.0,0.0,0.0,0.0
1776358530325298771,89138,0.048,0.0,0.0,1.0,-0.04,-0.23,0.06,-3.06,3.44,0.0,0.01,-0.35,-0.0,-0.06,0.0,11937.94,214.0,0.0,0.0,0.0,0.0
1776358530419653491,89238,0.0,0.7,0.0,0.8,0.1,-0.23,0.06,-3.06,3.44,0.0,-0.0,-0.39,0.12,-0.0,0.06,11936.74,219.0,0.0,0.0,0.0,0.0
1776358530517977873,89338,0.0,0.5,0.0,0.3,-0.02,-0.27,0.06,-3.06,3.44,0.02,-0.0,-0.38,-0.0,0.12,0.06,11935.89,219.0,0.0,0.0,0.0,0.0
1776358530618311385,89437,0.024,0.1,0.0,0.8,0.12,-0.25,0.06,-3.06,3.44,-0.01,0.02,-0.36,-0.19,0.06,-0.06,11937.43,213.0,0.0,0.0,0.0,0.0
1776358530726901050,89537,0.012,0.0,0.0,1.0,-0.08,-0.02,0.06,-3.06,3.44,0.02,0.01,-0.37,0.25,-0.12,-0.12,11935.71,205.0,0.0,0.0,0.0,0.0
1776358530819308500,89637,0.012,0.2,0.0,1.1,-0.18,-0.06,0.06,-3.06,3.44,0.01,0.02,-0.37,-0.0,-0.12,0.06,11937.26,205.0,0.0,0.0,0.0,0.0
1776358530917537674,89737,0.0,0.3,0.0,0.2,0.1,-0.14,0.06,-3.06,3.44,0.0,0.01,-0.35,-0.0,-0.0,0.19,11935.54,207.0,0.0,0.0,0.0,0.0
1776358531019951242,89837,0.0,0.4,0.008,0.7,0.08,-0.25,0.06,-3.06,3.44,0.0,0.02,-0.35,-0.0,0.06,0.06,11935.89,231.0,0.0,0.0,0.0,0.0
1776358531447204971,89937,0.008,0.3,0.0,0.3,-0.08,-0.21,0.06,-3.06,3.44,-0.01,-0.0,-0.36,0.12,-0.12,0.0,11936.57,231.0,0.0,0.0,0.0,0.0
1776358531505539053,90037,0.056,0.1,0.0,0.9,-0.04,-0.14,0.06,-3.06,3.44,0.03,0.02,-0.36,0.12,-0.12,-0.06,11935.37,210.0,0.0,0.0,0.0,0.0
1776358531509605788,90137,0.048,0.0,0.0,0.8,0.02,-0.14,0.06,-3.06,3.44,0.0,0.01,-0.38,-0.06,0.06,0.06,11937.09,210.0,0.0,0.0,0.0,0.0
1776358531522846665,90237,0.0,0.3,0.0,1.1,-0.12,-0.27,0.06,-3.06,3.44,0.01,-0.0,-0.37,-0.06,-0.12,0.06,11934.51,208.0,0.0,0.0,0.0,0.0
1776358531534598900,90337,0.028,0.2,0.0,1.1,-0.12,-0.27,0.06,-3.06,3.44,0.02,0.01,-0.37,-0.06,-0.06,0.06,11934.86,186.0,0.0,0.0,0.0,0.0
1776358531618140241,90437,0.02,0.0,0.0,1.0,-0.06,-0.14,0.06,-3.06,3.44,0.01,-0.0,-0.39,-0.06,-0.0,0.06,11936.23,186.0,0.0,0.0,0.0,0.0
1776358531716549586,90536,0.008,0.1,0.0,0.9,0.0,-0.25,0.06,-3.06,3.44,0.0,0.02,-0.36,0.06,0.06,0.0,11935.71,220.0,0.0,0.0,0.0,0.0
1776358531824992962,90636,0.0,0.7,0.0,0.3,0.04,-0.04,0.06,-3.06,3.44,0.01,0.03,-0.35,-0.06,-0.12,0.06,11935.37,197.0,0.0,0.0,0.0,0.0
1776358531947228545,90736,0.008,0.1,0.0,1.0,-0.06,-0.18,0.06,-3.06,3.44,0.01,0.01,-0.36,-0.06,0.12,0.06,11936.74,197.0,0.0,0.0,0.0,0.0
1776358532025892595,90836,0.008,1.1,0.0,0.8,0.08,-0.12,0.06,-3.06,3.44,0.0,0.03,-0.36,-0.06,-0.0,0.06,11934.0,234.0,0.0,0.0,0.0,0.0
1776358532118091751,90936,0.0,0.3,0.0,0.7,0.0,-0.18,0.06,-3.06,3.44,0.01,0.01,-0.37,0.06,0.12,0.06,11934.34,201.0,0.0,0.0,0.0,0.0
1776358532226618865,91036,0.0,0.0,0.0,0.8,-0.14,0.0,0.06,-3.06,3.44,0.0,0.02,-0.35,-0.06,-0.06,-0.06,11935.2,201.0,0.0,0.0,0.0,0.0
1776358532318913320,91136,0.044,0.2,0.0,0.3,0.04,-0.23,0.06,-3.06,3.44,-0.01,0.02,-0.36,-0.06,0.19,0.12,11938.46,208.0,0.0,0.0,0.0,0.0
1776358532419337787,91236,0.0,0.7,0.0,0.8,-0.04,-0.25,0.06,-3.06,3.44,0.0,-0.0,-0.37,-0.06,-0.12,-0.06,11937.94,208.0,0.0,0.0,0.0,0.0
1776358532523654501,91336,0.0,0.0,0.0,0.5,-0.04,-0.16,0.06,-3.06,3.44,0.02,0.01,-0.35,-0.0,0.06,0.0,11938.63,210.0,0.0,0.0,0.0,0.0
1776358532628040652,91437,0.02,0.2,0.004,0.5,-0.08,-0.14,0.06,-3.06,3.44,0.02,0.01,-0.34,-0.0,0.19,0.06,11935.54,240.0,0.0,0.0,0.0,0.0
1776358532720567687,91537,0.016,0.1,0.0,1.1,0.12,-0.14,0.06,-3.06,3.44,0.01,0.01,-0.36,0.06,0.06,0.0,11935.37,240.0,0.0,0.0,0.0,0.0
1776358532818808476,91636,0.012,0.2,0.0,0.8,-0.18,-0.2,0.06,-3.06,3.44,0.01,0.02,-0.37,-0.06,-0.06,0.0,11935.89,212.0,0.0,0.0,0.0,0.0
1776358532927198106,91736,0.0,0.2,0.0,0.3,-0.08,-0.12,0.06,-3.06,3.44,0.0,0.02,-0.35,-0.06,-0.25,0.06,11933.48,199.0,0.0,0.0,0.0,0.0
1776358533025668594,91836,0.008,0.0,0.0,1.3,0.02,-0.25,0.06,-3.06,3.44,0.01,0.02,-0.36,-0.06,0.12,0.0,11935.2,199.0,0.0,0.0,0.0,0.0
1776358533117945709,91936,0.004,0.2,0.0,1.2,-0.04,-0.06,0.06,-3.06,3.44,0.0,0.02,-0.37,0.12,-0.12,0.0,11932.8,236.0,0.0,0.0,0.0,0.0
1776358533226408535,92036,0.0,0.7,0.048,0.9,-0.1,-0.25,0.06,-3.06,3.44,0.01,0.01,-0.35,-0.12,-0.0,0.12,11933.83,190.0,0.0,0.0,0.0,0.0
1776358533316641776,92136,0.0,0.5,0.0,0.9,-0.1,-0.18,0.06,-3.06,3.44,0.0,0.01,-0.36,-0.0,-0.06,0.0,11934.51,190.0,0.0,0.0,0.0,0.0
