timestamp_ns,time_ms,voltage_left,current_left_ma,voltage_right,current_right_ma,motor_current_left,motor_current_right,euler_x,euler_y,euler_z,acc_lin_x,acc_lin_y,acc_lin_z,gyro_x,gyro_y,gyro_z,sonar_mm,tof_mm,rpm_left,rpm_right,rotations_left,rotations_right
1776370384209489674,1904,0.0,1.0,0.0,1.2,-0.06,-0.12,0.06,-1.69,2.44,0.01,0.03,-0.36,0.12,-0.06,0.06,206.66,198.0,0.0,0.0,0.0,0.0
1776370384307789140,2003,0.056,0.1,0.0,1.0,0.0,-0.16,0.06,-1.69,2.44,0.02,0.03,-0.36,0.06,-0.12,0.0,206.66,197.0,0.0,0.0,0.0,0.0
1776370384406050865,2103,0.0,0.9,0.032,0.6,0.08,-0.18,0.06,-1.69,2.44,0.0,0.03,-0.36,-0.0,-0.06,0.06,232.21,197.0,0.0,0.0,0.0,0.0
1776370384508451992,2203,0.02,0.0,0.0,1.0,0.04,-0.08,0.06,-1.69,2.44,0.03,0.03,-0.33,-0.0,-0.12,0.0,232.21,196.0,0.0,0.0,0.0,0.0
1776370384606767681,2302,0.0,0.3,0.0,0.9,0.06,-0.08,0.06,-1.69,2.44,0.01,-0.0,-0.32,-0.06,-0.06,0.06,210.77,198.0,0.0,0.0,0.0,0.0
1776370384709170161,2403,0.016,0.4,0.0,0.7,-0.1,-0.16,0.06,-1.69,2.44,0.02,0.01,-0.34,-0.06,0.12,0.19,206.66,198.0,0.0,0.0,0.0,0.0
1776370384807481275,2503,0.0,0.7,0.004,0.5,-0.02,-0.02,0.06,-1.69,2.44,0.02,-0.0,-0.32,-0.19,-0.0,0.06,205.46,195.0,0.0,0.0,0.0,0.0
1776370384909884810,2604,0.0,0.1,0.0,0.9,-0.04,0.04,0.06,-1.69,2.44,0.03,-0.0,-0.35,0.06,-0.0,0.06,206.66,202.0,0.0,0.0,0.0,0.0
1776370385008175887,2704,0.0,0.6,0.0,0.7,-0.04,-0.14,0.06,-1.69,2.44,0.03,0.03,-0.32,0.12,-0.06,-0.06,210.77,202.0,0.0,0.0,0.0,0.0
1776370385110572293,2804,0.0,0.1,0.0,0.9,0.14,0.0,0.06,-1.69,2.44,0.05,-0.0,-0.35,-0.06,0.12,0.0,210.77,198.0,0.0,0.0,0.0,0.0
1776370385208878648,2905,0.044,0.2,0.0,1.0,-0.04,-0.16,0.06,-1.69,2.44,0.03,0.02,-0.32,-0.06,-0.06,-0.06,210.77,199.0,0.0,0.0,0.0,0.0
1776370385311293609,3005,0.052,0.1,0.0,1.0,-0.06,-0.1,0.06,-1.69,2.44,0.02,0.02,-0.32,-0.12,0.06,0.06,232.21,199.0,0.0,0.0,0.0,0.0
1776370385409562278,3105,0.04,0.0,0.0,0.2,-0.12,-0.04,0.06,-1.69,2.44,0.03,0.03,-0.35,0.06,-0.0,0.0,209.74,197.0,0.0,0.0,0.0,0.0
1776370385511950776,3206,0.0,0.5,0.0,1.2,-0.1,0.04,0.06,-1.69,2.44,0.01,0.01,-0.36,-0.19,-0.0,0.06,205.63,197.0,0.0,0.0,0.0,0.0
1776370385610270576,3307,0.016,0.3,0.0,0.2,-0.08,0.02,0.06,-1.69,2.44,0.02,0.01,-0.35,0.25,-0.12,0.06,210.77,200.0,0.0,0.0,0.0,0.0
1776370385712674592,3406,0.0,0.3,0.012,0.5,-0.06,0.02,0.06,-1.69,2.44,0.03,0.02,-0.36,-0.0,0.06,0.0,210.77,198.0,0.0,0.0,0.0,0.0
1776370385810973688,3506,0.016,0.1,0.0,1.1,-0.06,-0.16,0.06,-1.69,2.44,0.02,0.01,-0.35,-0.06,0.06,0.06,206.66,198.0,0.0,0.0,0.0,0.0
1776370385919315619,3606,0.008,0.2,0.0,0.2,-0.04,-0.06,0.06,-1.63,2.44,0.08,-0.0,-0.33,0.19,-0.31,0.37,206.66,198.0,0.0,0.0,0.0,0.0
1776370386011689467,3706,0.008,0.3,0.0,0.4,-0.06,-0.08,-0.0,-1.69,2.5,-0.42,0.05,-0.32,1.12,-0.5,0.19,206.83,198.0,0.0,0.0,0.0,0.0
1776370386114083910,3806,0.004,0.1,0.0,0.8,0.08,-0.14,-0.0,-1.69,2.44,0.19,0.08,-0.36,-0.31,0.56,-0.12,209.74,198.0,0.0,0.0,0.0,0.0
1776370386212375190,3907,0.0,0.6,0.0,1.3,-0.08,0.0,-0.0,-1.69,2.44,0.06,-0.03,-0.35,0.19,0.25,0.25,210.77,197.0,0.0,0.0,0.0,0.0
1776370386310695546,4006,0.048,0.3,0.0,1.0,-0.04,-0.08,-0.0,-1.69,2.44,0.19,0.16,-0.36,-0.25,0.37,-0.12,204.6,198.0,0.0,0.0,0.0,0.0
1776370386413034765,4107,0.036,0.2,0.0,0.2,-0.1,-0.18,-0.06,-2.63,2.94,-0.04,0.47,0.28,-2.63,3.44,1.12,11937.77,200.0,0.0,0.0,0.0,0.0
1776370386511309286,4207,0.016,0.3,0.0,0.9,-0.12,-0.18,0.19,-3.63,2.06,0.12,0.17,2.29,-20.69,11.81,6.0,11936.4,200.0,0.0,0.0,0.0,0.0
1776370386613793285,4307,0.024,0.3,0.0,0.9,-0.02,-0.1,1.31,-4.38,0.0,1.22,-0.43,1.73,-13.06,-4.38,17.44,277.14,200.0,0.0,0.0,0.0,0.0
1776370386714065655,4407,0.012,0.0,0.008,0.2,0.02,-0.04,3.19,-4.06,-0.31,0.28,0.66,2.29,-1.37,-3.13,21.81,11936.06,243.0,0.0,0.0,0.0,0.0
1776370386814471527,4507,0.008,0.0,0.0,0.5,0.04,-0.08,5.94,-5.06,-0.94,-1.39,0.52,1.95,-21.56,9.56,36.63,417.77,332.0,0.0,0.0,0.0,0.0
1776370386912761363,4608,0.0,0.2,0.0,1.2,-0.02,-0.04,10.25,-6.44,-2.94,-1.08,-0.78,0.99,-24.12,4.19,50.06,538.17,332.0,0.0,0.0,0.0,0.0
1776370387023130069,4709,0.0,0.2,0.0,0.2,0.08,-0.06,16.37,-5.63,-4.25,-1.5,-0.13,-0.29,-20.62,-23.94,72.75,11934.17,513.0,0.0,0.0,0.0,0.0
1776370387113491272,4809,0.0,0.3,0.0,0.0,-0.02,-0.08,25.0,-3.75,-5.06,-1.23,1.27,-1.9,-8.13,-26.62,98.31,743.8,753.0,0.0,0.0,0.0,0.0
1776370387215888492,4909,0.0,0.0,0.0,1.1,-0.08,-0.02,35.25,-3.56,-4.38,-0.74,1.46,-2.51,10.88,2.69,106.81,903.63,753.0,0.0,0.0,0.0,0.0
1776370387314201736,5009,0.04,0.1,0.044,0.6,-0.02,-0.16,44.94,-5.19,-1.81,-0.4,0.54,-3.37,21.69,4.25,97.69,876.19,903.0,0.0,0.0,0.0,0.0
1776370387412420238,5108,0.032,0.2,0.0,0.9,-0.1,-0.06,53.38,-5.31,1.19,-0.57,0.96,-2.64,23.0,0.5,80.25,937.93,967.0,0.0,0.0,0.0,0.0
1776370387514841829,5208,0.0,1.1,0.012,0.4,-0.14,-0.1,59.63,-5.44,2.88,-0.78,0.01,-2.36,-1.69,4.06,69.5,963.49,967.0,0.0,0.0,0.0,0.0
1776370387617289328,5309,0.012,0.4,0.0,0.9,0.0,0.06,67.0,-5.13,2.56,-0.13,-0.27,-1.03,-12.25,-6.25,67.62,928.16,1728.0,0.0,0.0,0.0,0.0
1776370387715607998,5409,0.008,0.1,0.0,1.1,-0.06,-0.02,73.0,-3.88,2.63,-0.17,-0.69,-0.51,2.44,-9.13,53.88,989.55,1728.0,0.0,0.0,0.0,0.0
1776370387817976106,5509,0.004,0.2,0.0,1.3,0.08,-0.06,77.31,-3.75,3.13,-0.77,-0.55,0.02,-1.63,13.75,40.06,937.93,929.0,0.0,0.0,0.0,0.0
1776370387916289610,5609,0.004,0.5,0.004,0.2,0.14,-0.04,81.06,-5.13,3.0,-0.5,-1.49,-0.25,-7.25,14.06,45.31,941.02,1408.0,0.0,0.0,0.0,0.0
1776370388014584187,5709,0.0,1.1,0.0,0.2,0.06,0.0,85.62,-5.63,2.88,-0.47,-0.64,-0.87,-3.69,2.44,45.38,924.56,1408.0,0.0,0.0,0.0,0.0
1776370388116982703,5809,0.0,1.0,0.0,0.3,-0.04,-0.04,89.69,-5.63,2.81,-0.74,-0.01,-0.69,-4.25,3.63,36.0,1022.48,1424.0,0.0,0.0,0.0,0.0
1776370388215304299,5910,0.0,0.4,0.0,1.3,-0.02,-0.12,93.19,-6.19,3.63,-0.08,-0.31,-0.18,0.56,7.38,37.56,933.13,897.0,0.0,0.0,0.0,0.0
1776370388317682982,6009,0.04,0.2,0.0,1.2,-0.06,-0.08,97.06,-6.5,4.19,-0.28,-0.02,0.05,0.69,5.81,41.69,962.63,897.0,0.0,0.0,0.0,0.0
1776370388415988819,6109,0.028,0.5,0.024,0.4,-0.08,-0.18,101.31,-6.75,4.69,-0.19,0.33,-0.22,-1.56,9.25,44.0,1010.65,866.0,0.0,0.0,0.0,0.0
1776370388526340135,6209,0.0,0.9,0.0,0.1,-0.06,-0.02,105.37,-6.75,4.19,0.48,0.09,-0.1,-17.56,-1.44,36.0,11936.23,818.0,0.0,0.0,0.0,0.0
1776370388616707746,6309,0.0,0.0,0.0,1.2,0.06,0.04,108.5,-6.06,3.38,1.21,0.6,-0.1,-4.06,-3.94,28.56,969.32,818.0,0.0,0.0,0.0,0.0
1776370388719095744,6410,0.0,0.5,0.0,0.5,-0.06,0.02,111.37,-5.63,3.63,0.43,0.81,0.05,-1.75,0.56,31.44,968.12,1247.0,0.0,0.0,0.0,0.0
1776370388817396043,6511,0.0,0.0,0.0,0.6,0.12,-0.12,114.44,-5.19,2.81,1.1,0.53,-0.13,-11.13,-2.44,27.69,996.76,1247.0,0.0,0.0,0.0,0.0
1776370388919774522,6611,0.0,0.3,0.004,0.3,-0.08,0.06,116.5,-4.75,1.94,0.32,1.12,-1.54,-8.44,0.88,13.0,1066.9,1115.0,0.0,0.0,0.0,0.0
1776370389018089377,6712,0.0,0.2,0.0,1.2,-0.08,-0.1,117.31,-5.44,1.37,0.42,0.77,-1.05,-3.31,7.88,8.0,1025.74,1048.0,0.0,0.0,0.0,0.0
1776370389120497023,6812,0.0,0.2,0.0,1.3,-0.06,-0.12,117.87,-5.63,1.5,-0.2,0.09,-0.04,3.75,-4.63,1.12,998.47,1048.0,0.0,0.0,0.0,0.0
1776370389218781600,6912,0.0,1.1,0.0,0.9,-0.02,-0.02,117.5,-4.63,2.13,-1.08,0.65,0.0,4.94,-8.38,-5.13,983.55,1370.0,0.0,0.0,0.0,0.0
1776370389321186561,7013,0.0,0.3,0.0,0.5,0.0,-0.04,116.94,-4.56,2.06,-1.19,0.45,-0.11,-6.19,3.38,-6.25,977.72,920.0,0.0,0.0,0.0,0.0
1776370389419486194,7112,0.032,0.5,0.004,0.4,-0.1,-0.1,116.62,-5.5,1.69,-0.69,0.09,-0.49,-6.81,14.13,-1.19,1035.35,920.0,0.0,0.0,0.0,0.0
1776370389521882933,7212,0.0,0.5,0.016,0.6,-0.06,-0.08,117.0,-6.63,1.75,0.64,-0.15,-0.65,7.44,6.88,4.69,1002.59,1208.0,0.0,0.0,0.0,0.0
1776370389620199325,7313,0.0,0.7,0.004,0.5,0.06,-0.04,117.69,-7.13,2.75,0.38,0.09,-0.6,11.69,4.81,12.06,1141.5,1458.0,0.0,0.0,0.0,0.0
1776370389718496421,7412,0.0,0.0,0.0,0.6,0.0,0.04,118.62,-7.38,3.44,-0.01,0.06,-0.79,2.0,1.25,5.13,907.92,1458.0,0.0,0.0,0.0,0.0
1776370389828867441,7512,0.008,0.1,0.0,0.8,0.02,-0.06,118.25,-7.19,3.44,0.94,0.43,-0.94,1.69,-7.88,-8.31,11937.43,1727.0,0.0,0.0,0.0,0.0
1776370389921137306,7612,0.004,0.1,0.0,1.2,-0.04,-0.04,117.75,-6.44,3.44,0.65,0.5,-0.12,-0.81,-7.0,1.94,11933.31,1341.0,0.0,0.0,0.0,0.0
1776370390021591938,7712,0.0,0.0,0.0,0.2,0.02,-0.06,118.12,-5.31,2.69,0.6,0.44,0.1,-11.56,-18.06,1.75,11934.34,1341.0,0.0,0.0,0.0,0.0
1776370390119866978,7813,0.0,1.1,0.0,0.3,-0.06,0.12,118.87,-4.13,2.44,-0.57,0.44,0.67,7.63,4.81,18.69,919.58,1612.0,0.0,0.0,0.0,0.0
1776370390222296458,7914,0.0,0.8,0.0,0.9,0.08,-0.1,121.06,-4.94,3.63,-0.47,0.23,0.14,9.88,1.63,18.69,943.76,1612.0,0.0,0.0,0.0,0.0
1776370390320610350,8013,0.052,0.6,0.04,0.3,-0.06,-0.1,121.94,-4.5,4.44,-0.8,0.61,0.11,4.25,-3.13,5.06,956.11,1323.0,0.0,0.0,0.0,0.0
1776370390422947569,8113,0.0,0.1,0.0,1.1,0.06,0.02,122.19,-4.19,4.44,-0.85,0.55,-0.67,-8.63,3.0,-0.88,958.34,1503.0,0.0,0.0,0.0,0.0
1776370390521274943,8213,0.028,0.1,0.0,0.5,-0.04,-0.18,122.25,-4.31,3.25,-0.49,0.29,-0.97,-14.88,-1.69,3.06,979.09,1503.0,0.0,0.0,0.0,0.0
1776370390619574705,8313,0.0,0.2,0.0,0.3,-0.12,-0.08,122.81,-3.69,2.19,0.26,0.3,-0.91,-10.19,-7.44,6.31,985.78,1223.0,0.0,0.0,0.0,0.0
1776370390722006518,8413,0.016,-0.1,0.012,0.8,-0.08,-0.04,122.69,-3.44,1.19,0.91,0.6,-0.76,-6.0,4.44,-10.25,1039.46,1164.0,0.0,0.0,0.0,0.0
1776370390820306725,8513,0.008,0.2,0.0,0.5,-0.04,-0.04,121.25,-3.75,0.19,0.2,0.35,-0.48,-1.75,4.75,-16.06,990.58,1164.0,0.0,0.0,0.0,0.0
1776370390922696704,8613,0.0,1.1,0.0,1.0,-0.04,-0.06,119.75,-3.69,0.63,-0.68,0.34,-0.17,11.13,-3.63,-14.5,915.12,1037.0,0.0,0.0,0.0,0.0
1776370391022931907,8714,0.004,0.7,0.0,0.2,-0.16,0.04,118.75,-3.31,1.63,-0.97,0.37,0.61,11.44,0.19,-6.81,11933.14,1211.0,0.0,0.0,0.0,0.0
1776370391123408854,8813,0.0,1.0,0.0,0.5,0.02,0.1,118.06,-4.0,3.06,-0.84,-0.39,-0.23,13.56,12.25,-7.88,949.6,1211.0,0.0,0.0,0.0,0.0
1776370391221694931,8913,0.052,0.2,0.0,1.1,-0.06,-0.04,117.12,-5.06,3.75,-1.26,-0.34,-0.06,1.12,8.19,-10.13,957.66,1247.0,0.0,0.0,0.0,0.0
1776370391324079058,9013,0.048,0.2,0.0,0.2,0.18,-0.02,116.37,-5.81,3.56,-0.15,-0.0,-0.74,-2.13,4.5,-7.88,969.49,1247.0,0.0,0.0,0.0,0.0
1776370391422352523,9113,0.0,0.6,0.0,0.6,-0.1,-0.08,115.75,-5.69,3.5,0.3,0.16,-1.01,2.44,-7.81,-2.0,976.01,994.0,0.0,0.0,0.0,0.0
1776370391520670582,9212,0.0,0.9,0.0,1.0,-0.12,-0.08,115.87,-5.06,3.81,1.01,0.69,-0.97,2.69,-2.38,3.88,954.91,986.0,0.0,0.0,0.0,0.0
1776370391623116655,9312,0.0,0.2,0.004,0.3,0.0,-0.04,116.12,-4.94,3.56,0.76,0.34,-0.13,-5.44,-0.12,1.19,941.88,986.0,0.0,0.0,0.0,0.0
1776370391721424399,9412,0.0,1.0,0.0,0.8,0.1,0.02,116.25,-4.94,2.31,0.57,-0.1,-0.26,-8.0,-1.25,2.56,931.76,1141.0,0.0,0.0,0.0,0.0
1776370391823806360,9512,0.0,0.7,0.0,0.9,-0.06,-0.2,116.87,-4.38,1.69,-0.53,-0.1,0.28,-2.25,-10.13,10.81,946.68,1197.0,0.0,0.0,0.0,0.0
1776370391922164956,9613,0.0,1.0,0.0,0.6,0.06,-0.04,118.06,-3.69,2.06,-1.05,0.29,0.85,6.19,-0.69,11.38,957.31,1197.0,0.0,0.0,0.0,0.0
1776370392024503509,9713,0.004,0.1,0.0,0.7,-0.02,-0.1,119.19,-3.81,2.88,-0.92,0.4,-0.3,7.0,2.44,16.25,941.88,984.0,0.0,0.0,0.0,0.0
1776370392122785289,9814,0.004,0.1,0.0,0.6,0.0,0.02,121.06,-3.75,4.13,-0.66,0.08,-0.12,-3.69,1.12,16.87,939.65,1801.0,0.0,0.0,0.0,0.0
1776370392225219862,9915,0.052,0.3,0.0,1.0,-0.27,-0.06,121.81,-3.38,3.38,0.09,0.31,-0.73,-14.69,-9.25,-4.0,1001.9,1801.0,0.0,0.0,0.0,0.0
1776370392323475938,10015,0.052,-0.1,0.036,0.8,-0.02,-0.08,121.31,-2.56,1.81,-0.7,0.7,-0.78,-15.88,-4.13,-2.06,985.27,1020.0,0.0,0.0,0.0,0.0
1776370392425867028,10116,0.0,0.1,0.0,0.9,0.0,-0.16,121.62,-2.56,0.88,0.47,0.12,-1.08,-10.56,11.69,7.31,985.78,1020.0,0.0,0.0,0.0,0.0
1776370392528301916,10217,0.0,0.1,0.0,0.9,0.0,-0.12,122.19,-3.44,0.06,0.69,0.01,-0.52,-9.31,4.81,1.0,996.41,1073.0,0.0,0.0,0.0,0.0
1776370392626605567,10316,0.016,0.2,0.0,1.1,-0.1,0.0,122.0,-3.81,-1.37,0.14,0.3,-0.68,-14.88,4.31,-5.38,1019.91,1115.0,0.0,0.0,0.0,0.0
1776370392724925478,10416,0.016,1.0,0.0,0.2,0.0,-0.1,121.31,-4.13,-2.25,-0.07,0.33,-0.19,6.44,4.38,-8.88,971.89,1115.0,0.0,0.0,0.0,0.0
1776370392827306920,10516,0.004,0.5,0.0,1.1,0.06,0.04,120.0,-4.31,-0.5,-0.81,0.08,0.55,26.94,0.56,-17.56,958.86,808.0,0.0,0.0,0.0,0.0
1776370392925616923,10616,0.0,0.1,0.0,1.3,-0.04,-0.04,118.19,-4.5,0.94,-1.39,-0.13,-0.47,2.0,4.0,-17.19,975.32,1499.0,0.0,0.0,0.0,0.0
1776370393028021199,10716,0.0,1.0,0.0,0.4,-0.06,0.02,117.06,-4.94,1.0,-0.49,-0.09,-0.38,-0.63,1.31,-3.56,1049.92,1499.0,0.0,0.0,0.0,0.0
1776370393128272364,10816,0.0,1.0,0.0,0.4,-0.1,-0.08,117.25,-5.13,1.69,-0.21,0.07,-0.75,11.06,4.19,6.13,11935.71,1036.0,0.0,0.0,0.0,0.0
1776370393226503681,10916,0.0,0.6,0.0,1.0,0.0,-0.1,117.56,-5.56,2.56,0.22,-0.39,-0.46,5.63,2.0,1.69,11936.06,1147.0,0.0,0.0,0.0,0.0
1776370393326995628,11016,0.0,0.2,0.0,1.0,0.1,-0.06,117.87,-5.81,2.94,-0.04,-0.0,-0.18,-0.12,2.5,4.25,927.82,1147.0,0.0,0.0,0.0,0.0
1776370393425264149,11116,0.028,0.0,0.0,0.9,-0.02,-0.04,118.31,-5.94,2.5,0.31,-0.16,-1.3,-8.38,-2.0,2.94,1027.63,1151.0,0.0,0.0,0.0,0.0
1776370393527670555,11216,0.0,0.4,0.0,1.4,-0.04,0.0,118.31,-5.19,1.94,1.68,0.06,-0.96,0.25,-11.25,-1.12,969.32,1151.0,0.0,0.0,0.0,0.0
1776370393626010318,11317,0.0,0.2,0.0,1.2,-0.1,-0.06,118.56,-3.94,2.25,0.4,0.03,-0.53,4.25,-18.19,5.56,949.6,1103.0,0.0,0.0,0.0,0.0
1776370393728461298,11417,0.0,0.0,0.0,0.9,-0.23,0.0,119.06,-2.31,1.56,1.32,1.02,0.41,-10.94,-8.69,9.06,956.11,1819.0,0.0,0.0,0.0,0.0
1776370393826727263,11516,0.008,0.1,0.0,1.2,-0.1,-0.02,120.56,-3.56,2.31,-1.63,-0.58,0.81,10.13,20.19,17.75,936.73,1819.0,0.0,0.0,0.0,0.0
1776370393925020544,11616,0.008,0.0,0.0,0.8,-0.21,-0.04,122.31,-4.38,3.56,-0.87,-0.17,0.36,4.63,-3.5,19.44,953.54,941.0,0.0,0.0,0.0,0.0
1776370394027407060,11715,0.008,0.0,0.0,0.7,-0.1,-0.12,124.06,-3.31,3.81,-0.63,0.31,0.26,-2.13,-11.19,15.06,941.88,876.0,0.0,0.0,0.0,0.0
1776370394125730823,11814,0.0,0.1,0.0,0.9,0.04,0.04,124.19,-2.75,3.63,0.15,0.73,-0.93,-1.88,-2.38,-7.31,1012.36,876.0,0.0,0.0,0.0,0.0
1776370394224044196,11914,0.052,0.3,0.0,0.8,0.1,-0.08,123.06,-2.94,3.38,-0.22,0.44,-0.97,-2.81,1.31,-14.56,970.69,1091.0,0.0,0.0,0.0,0.0
1776370394322264643,12013,0.044,0.2,0.0,0.8,0.08,0.0,122.06,-3.0,2.81,0.46,0.01,-0.27,-12.31,3.0,-4.56,945.65,1145.0,0.0,0.0,0.0,0.0
1776370394424705863,12113,0.0,0.6,0.0,1.1,0.04,-0.14,122.0,-3.31,1.19,1.07,0.38,-0.69,-18.62,3.69,-0.5,955.08,1145.0,0.0,0.0,0.0,0.0
1776370394523076312,12213,0.0,1.0,0.028,0.7,0.0,0.04,121.81,-3.81,-0.81,0.83,0.42,-1.03,-8.5,7.63,-4.31,11937.43,1122.0,0.0,0.0,0.0,0.0
1776370394625422624,12313,0.0,0.9,0.0,1.2,0.02,-0.02,121.19,-3.75,-1.25,-0.27,0.08,0.42,11.88,-3.5,-9.94,961.6,1122.0,0.0,0.0,0.0,0.0
1776370394723746535,12412,0.0,0.4,0.0,0.7,0.06,0.14,120.19,-2.88,0.44,-1.03,0.13,0.31,21.69,-12.69,-9.56,935.53,1456.0,0.0,0.0,0.0,0.0
1776370394826138199,12513,0.008,0.2,0.0,0.6,0.02,-0.1,119.0,-2.19,1.88,-1.09,-0.11,-0.45,9.69,-2.56,-11.81,999.5,854.0,0.0,0.0,0.0,0.0
1776370394924437813,12613,0.0,0.4,0.0,0.2,0.12,0.0,118.0,-2.38,3.44,-0.32,-0.02,-0.49,5.94,5.75,-8.75,1001.73,854.0,0.0,0.0,0.0,0.0
1776370395024607755,12712,0.0,1.0,0.0,0.8,-0.02,-0.06,117.37,-3.44,4.13,-0.22,-0.39,-0.32,5.13,12.5,-4.81,11937.77,1154.0,0.0,0.0,0.0,0.0
1776370395133031669,12812,0.0,0.3,0.0,0.5,-0.2,-0.02,117.25,-4.19,4.38,-0.08,-0.13,-0.49,-0.88,2.5,0.81,11936.23,1155.0,0.0,0.0,0.0,0.0
1776370395223438465,12912,0.056,0.5,0.032,0.9,0.04,0.02,117.44,-4.38,3.75,0.21,0.18,-0.51,-10.5,3.13,1.63,1002.59,1155.0,0.0,0.0,0.0,0.0
1776370395325848926,13012,0.0,0.9,0.04,1.1,-0.08,-0.08,117.69,-4.31,2.69,0.86,0.03,-0.9,-8.44,-4.44,1.63,984.41,947.0,0.0,0.0,0.0,0.0
1776370395424150707,13113,0.032,0.1,0.0,0.8,-0.02,0.0,117.94,-4.0,1.5,0.65,-0.14,-0.84,5.5,-4.31,6.13,983.38,947.0,0.0,0.0,0.0,0.0
1776370395526487315,13213,0.028,0.6,0.0,0.5,0.04,0.06,118.69,-3.88,2.13,-0.03,0.06,-0.78,11.0,1.25,8.19,1011.85,1411.0,0.0,0.0,0.0,0.0
1776370395626730665,13313,0.0,0.9,0.0,0.4,-0.02,0.02,119.69,-3.69,2.81,-0.72,-0.02,-0.01,1.44,-2.56,14.5,11940.17,999.0,0.0,0.0,0.0,0.0
1776370395723148063,13413,0.0,1.0,0.0,0.8,-0.02,-0.08,121.0,-3.5,2.88,-0.58,0.19,0.31,0.5,-0.75,10.63,955.94,999.0,0.0,0.0,0.0,0.0
1776370395825552264,13512,0.008,0.1,0.0,0.5,0.04,-0.1,121.75,-3.38,3.81,-0.65,0.27,-0.05,2.13,4.0,6.19,984.24,2412.0,0.0,0.0,0.0,0.0
1776370395927945169,13613,0.008,0.0,0.0,1.1,0.0,-0.08,122.31,-3.69,4.06,-0.58,0.21,-0.71,-3.13,3.06,3.38,973.61,1021.0,0.0,0.0,0.0,0.0
1776370396028170056,13714,0.0,0.6,0.0,0.2,0.04,0.02,122.37,-3.75,3.94,-0.22,0.21,-0.95,-6.25,0.56,-2.06,11936.57,1087.0,0.0,0.0,0.0,0.0
1776370396136650434,13814,0.0,0.2,0.0,0.3,-0.1,-0.06,122.12,-3.25,3.56,0.35,0.23,-1.07,-2.13,-7.81,-3.0,11935.54,1087.0,0.0,0.0,0.0,0.0
1776370396226945303,13915,0.0,0.1,0.052,0.6,0.1,-0.06,121.94,-2.56,3.44,0.46,0.31,-0.78,3.56,-3.19,-0.63,1054.04,1619.0,0.0,0.0,0.0,0.0
1776370396329337412,14016,0.048,0.3,0.0,0.9,0.0,-0.08,121.69,-2.5,3.44,0.61,0.16,-0.6,3.63,5.5,-5.5,985.44,1619.0,0.0,0.0,0.0,0.0
1776370396427648489,14115,0.032,0.2,0.0,0.1,-0.04,-0.02,120.87,-3.25,3.63,-0.01,-0.22,0.18,6.19,6.13,-11.81,967.6,1643.0,0.0,0.0,0.0,0.0
1776370396525864824,14215,0.024,0.1,0.0,1.2,-0.02,-0.14,119.5,-3.38,4.56,-0.6,-0.03,0.41,13.75,-2.69,-15.56,1050.44,1054.0,0.0,0.0,0.0,0.0
1776370396636293234,14315,0.02,0.2,0.0,1.0,-0.04,0.06,118.25,-3.5,5.75,-0.9,-0.42,0.08,7.38,0.81,-9.31,11937.6,989.0,0.0,0.0,0.0,0.0
1776370396726642381,14415,0.0,0.4,0.0,0.2,-0.02,0.02,117.81,-3.56,6.13,-0.1,0.07,-0.41,-2.94,0.88,-1.25,939.48,989.0,0.0,0.0,0.0,0.0
1776370396829043268,14515,0.012,0.3,0.0,0.2,-0.02,0.0,117.94,-3.69,5.81,0.04,-0.28,-0.87,-4.19,1.81,2.81,973.61,989.0,0.0,0.0,0.0,0.0
1776370396927339067,14615,0.0,0.3,0.0,0.8,0.06,0.0,118.31,-3.69,5.38,0.15,-0.09,-0.88,-5.06,-2.81,5.44,1022.48,1445.0,0.0,0.0,0.0,0.0
1776370397025618755,14714,0.0,0.0,0.0,0.9,-0.02,-0.12,118.87,-3.25,4.88,0.6,0.04,-1.08,-3.5,-3.25,4.31,956.8,1209.0,0.0,0.0,0.0,0.0
1776370397128050717,14815,0.004,0.3,0.0,0.8,-0.06,-0.16,119.12,-3.25,4.75,0.58,-0.09,-0.79,6.38,1.5,1.44,910.49,1209.0,0.0,0.0,0.0,0.0
1776370397226315849,14915,0.0,0.3,0.012,0.9,0.06,0.0,119.37,-3.19,5.19,-0.93,-0.02,0.06,-3.0,-0.94,5.69,954.4,1554.0,0.0,0.0,0.0,0.0
1776370397330670842,15014,0.048,0.0,0.0,0.9,0.02,0.06,120.0,-3.38,5.0,-0.9,-0.05,0.7,-10.25,3.94,3.94,11938.29,1262.0,0.0,0.0,0.0,0.0
1776370397427114629,15114,0.036,0.3,0.0,0.9,-0.04,-0.02,120.69,-3.56,4.69,-0.65,0.16,0.52,2.0,1.56,13.31,11937.6,857.0,0.0,0.0,0.0,0.0
1776370397529450663,15214,0.032,0.2,0.0,0.8,0.02,-0.06,122.25,-3.63,5.5,-0.58,0.55,-0.35,11.0,4.13,16.62,972.92,857.0,0.0,0.0,0.0,0.0
1776370397627708072,15314,0.016,0.1,0.0,0.2,0.02,0.02,123.19,-4.44,6.31,-0.38,0.14,-0.89,1.06,10.25,3.31,964.0,1643.0,0.0,0.0,0.0,0.0
1776370397730157089,15415,0.0,0.4,0.0,1.0,-0.08,-0.12,123.12,-4.5,5.81,0.04,0.05,-0.66,-10.38,-8.94,-1.19,988.87,1643.0,0.0,0.0,0.0,0.0
1776370397828444907,15515,0.012,0.5,0.0,0.1,-0.04,0.08,123.06,-3.44,4.69,1.08,0.52,-0.96,-11.44,-6.44,-1.56,966.06,1153.0,0.0,0.0,0.0,0.0
1776370397930871702,15616,0.0,1.1,0.0,0.3,-0.1,-0.06,122.62,-3.25,2.81,0.87,0.28,-0.59,-6.13,8.88,-9.0,964.69,1153.0,0.0,0.0,0.0,0.0
1776370398029158760,15716,0.012,0.1,0.0,1.0,-0.06,-0.04,121.56,-4.31,1.81,-0.14,-0.34,-0.28,-8.0,12.13,-13.44,964.86,1237.0,0.0,0.0,0.0,0.0
1776370398131552906,15816,0.008,0.3,0.0,0.8,-0.04,-0.08,120.19,-4.13,0.81,-0.84,-0.43,0.65,-3.94,-19.75,-14.88,961.26,679.0,0.0,0.0,0.0,0.0
1776370398229811149,15917,0.0,0.3,0.0,1.2,0.04,0.08,119.0,-2.06,1.5,-1.14,0.42,0.27,15.0,-14.31,-9.25,974.98,679.0,0.0,0.0,0.0,0.0
1776370398332256925,16018,0.048,0.3,0.0,1.2,-0.14,-0.02,118.06,-2.31,3.25,-0.4,0.03,-0.61,18.06,13.0,-8.19,994.36,1094.0,0.0,0.0,0.0,0.0
1776370398430548410,16117,0.036,0.1,0.0,1.2,0.02,-0.12,117.37,-3.75,4.69,-0.48,-0.55,-0.99,6.81,10.94,-6.63,1023.68,1272.0,0.0,0.0,0.0,0.0
1776370398532928370,16218,0.016,0.6,0.0,1.1,-0.1,-0.08,116.94,-4.44,4.88,-0.28,-0.44,-0.87,-6.25,-1.81,-2.19,974.98,1272.0,0.0,0.0,0.0,0.0
1776370398631243003,16318,0.0,0.6,0.012,0.3,0.14,-0.06,117.0,-3.94,4.06,0.27,-0.05,-0.98,-8.5,-8.5,2.31,971.72,1536.0,0.0,0.0,0.0,0.0
1776370398729543358,16417,0.0,0.4,0.0,0.7,0.06,-0.08,117.06,-3.5,3.38,0.82,0.07,-0.96,-1.44,-3.25,0.12,1042.55,675.0,0.0,0.0,0.0,0.0
1776370398831945541,16517,0.016,0.3,0.0,1.2,-0.06,0.04,117.06,-3.19,3.0,-0.33,-0.39,-0.27,0.5,-3.69,0.12,973.78,675.0,0.0,0.0,0.0,0.0
1776370398930305008,16617,0.0,0.1,0.0,0.4,-0.06,-0.14,117.81,-2.75,2.63,-0.94,-0.22,0.93,-4.75,-0.81,15.19,969.83,1083.0,0.0,0.0,0.0,0.0
1776370399032650616,16717,0.0,0.6,0.0,0.7,0.08,0.02,119.44,-2.81,3.5,-0.78,0.17,0.13,6.88,1.12,13.88,974.81,1083.0,0.0,0.0,0.0,0.0
1776370399132868743,16817,0.0,0.4,0.0,1.0,0.0,0.0,120.62,-3.0,4.5,-0.95,0.11,-0.1,6.88,4.81,11.63,11939.14,1195.0,0.0,0.0,0.0,0.0
1776370399233348857,16917,0.0,0.2,0.0,0.2,-0.06,-0.08,121.25,-2.88,5.06,0.0,0.41,-0.91,2.06,-6.38,0.44,1001.56,1318.0,0.0,0.0,0.0,0.0
1776370399339623050,17017,0.0,0.1,0.0,0.4,-0.14,-0.16,120.5,-2.13,4.69,0.01,0.44,-1.07,-10.5,-4.25,-10.5,11935.03,1495.0,0.0,0.0,0.0,0.0
1776370399429962882,17117,0.036,0.0,0.0,0.8,-0.04,-0.08,119.62,-1.94,3.63,0.51,0.3,-0.74,-8.56,5.31,-8.0,11936.4,1495.0,0.0,0.0,0.0,0.0
1776370399538345962,17216,0.028,0.9,0.024,0.6,0.08,0.04,119.31,-2.88,3.06,0.73,0.08,-0.82,-3.44,12.81,0.06,11936.57,989.0,0.0,0.0,0.0,0.0
1776370399630613234,17316,0.0,0.7,0.004,0.4,0.0,-0.08,119.31,-3.94,1.75,0.16,0.07,-0.6,-9.94,9.69,-4.13,1007.39,989.0,0.0,0.0,0.0,0.0
1776370399733069899,17416,0.0,0.0,0.0,1.2,0.18,0.02,118.31,-4.63,0.56,-1.02,-0.19,0.89,-6.19,-1.69,-15.19,984.58,1101.0,0.0,0.0,0.0,0.0
1776370399831347568,17517,0.012,0.0,0.0,0.9,0.04,-0.04,117.12,-3.56,0.63,-1.36,0.06,0.38,8.0,-13.0,-7.75,955.26,1105.0,0.0,0.0,0.0,0.0
1776370399929652682,17616,0.0,0.9,0.0,1.0,-0.02,0.08,116.5,-3.31,1.44,-0.82,0.07,-0.28,8.81,10.19,-5.88,970.0,1105.0,0.0,0.0,0.0,0.0
1776370400032059217,17716,0.0,0.3,0.0,0.9,-0.25,-0.02,116.0,-4.75,2.19,-0.59,-0.33,-0.63,8.06,14.69,-2.56,990.24,1406.0,0.0,0.0,0.0,0.0
1776370400130361183,17816,0.0,0.5,0.0,0.1,0.06,0.04,116.31,-5.75,2.88,-0.41,-0.04,-0.85,-0.69,3.25,6.63,1004.13,1406.0,0.0,0.0,0.0,0.0
1776370400238734115,17915,0.056,0.9,0.032,0.3,-0.1,-0.08,117.12,-5.81,2.5,0.03,0.05,-0.77,-9.5,-1.0,9.69,1010.31,1488.0,0.0,0.0,0.0,0.0
1776370400331066832,18016,0.0,0.4,0.04,0.5,-0.08,-0.04,118.31,-5.69,1.69,0.54,-0.08,-0.63,-6.19,-4.75,14.69,705.72,1113.0,0.0,0.0,0.0,0.0
1776370400433421422,18117,0.024,0.3,0.02,0.6,-0.14,-0.02,120.37,-5.19,1.25,0.21,0.43,-0.79,-6.63,-2.31,26.25,11939.14,2001.0,0.0,0.0,0.0,0.0
1776370400531715517,18217,0.0,0.6,0.0,0.7,-0.06,-0.12,123.25,-5.19,0.5,0.46,0.41,-0.68,-10.75,3.06,31.62,973.78,2001.0,0.0,0.0,0.0,0.0
1776370400640108394,18317,0.0,0.3,0.0,1.2,0.0,0.12,127.06,-5.25,-0.19,-0.13,0.31,-0.82,-10.31,1.31,45.56,946.85,1119.0,0.0,0.0,0.0,0.0
1776370400732480390,18416,0.004,0.2,0.0,0.8,0.14,-0.04,132.25,-5.38,-1.5,-0.7,0.4,0.34,-28.12,0.5,62.38,932.96,1119.0,0.0,0.0,0.0,0.0
1776370400830776318,18516,0.004,0.1,0.0,0.9,0.14,-0.04,140.0,-7.0,-2.19,-1.63,0.78,1.19,-0.81,23.81,89.87,978.92,941.0,0.0,0.0,0.0,0.0
1776370400933160205,18616,0.0,0.2,0.0,0.4,-0.02,-0.02,148.5,-9.25,0.12,-1.44,1.06,-0.76,17.44,16.06,85.25,973.78,1515.0,0.0,0.0,0.0,0.0
1776370401031473078,18716,0.004,0.2,0.0,1.0,0.16,0.02,156.63,-10.06,2.94,-1.85,1.29,-0.73,6.75,9.75,84.44,957.14,1515.0,0.0,0.0,0.0,0.0
1776370401141816154,18816,0.004,0.3,0.0,0.2,0.06,-0.16,164.69,-10.06,4.19,-1.07,1.08,-0.19,-13.31,1.37,80.06,11937.94,1648.0,0.0,0.0,0.0,0.0
1776370401232195135,18916,0.048,0.3,0.0,1.1,0.04,0.1,172.38,-8.5,4.06,-0.38,1.37,0.11,-13.06,-14.88,74.81,950.11,1648.0,0.0,0.0,0.0,0.0
1776370401330469989,19016,0.0,1.1,0.036,0.5,0.02,-0.1,179.44,-5.81,4.38,-0.62,1.26,0.06,-8.69,-7.94,71.87,1016.65,1659.0,0.0,0.0,0.0,0.0
1776370401432907858,19116,0.0,0.7,0.0,1.2,0.08,0.02,-173.69,-5.0,4.0,-0.77,0.84,-0.65,-14.88,0.63,71.94,966.4,1159.0,0.0,0.0,0.0,0.0
1776370401531132804,19217,0.024,0.1,0.004,0.4,0.02,-0.02,-165.88,-4.19,3.25,-0.52,0.75,-0.93,-16.44,-2.25,87.5,978.58,1159.0,0.0,0.0,0.0,0.0
1776370401633563543,19316,0.016,0.1,0.0,0.9,0.02,-0.06,-157.06,-3.44,2.81,-0.24,0.63,-0.32,-6.75,-2.38,90.56,963.83,2643.0,0.0,0.0,0.0,0.0
1776370401731865565,19416,0.0,0.5,0.0,0.7,-0.04,-0.04,-149.13,-2.81,3.13,-0.41,0.68,-0.1,-2.38,8.75,71.0,959.2,1858.0,0.0,0.0,0.0,0.0
1776370401834284470,19517,0.0,0.2,0.0,0.3,-0.06,-0.18,-143.5,-3.88,3.25,0.08,0.15,-0.35,-1.94,20.62,48.0,1062.44,1858.0,0.0,0.0,0.0,0.0
1776370401932568473,19617,0.008,0.4,0.0,0.5,0.04,-0.04,-139.69,-5.06,3.88,-0.35,0.12,-0.6,6.19,7.69,31.25,990.93,1689.0,0.0,0.0,0.0,0.0
1776370402034966119,19717,0.0,0.3,0.0,1.3,0.1,-0.04,-137.63,-4.94,4.56,-0.73,0.35,-0.2,4.69,-4.19,18.31,958.69,1346.0,0.0,0.0,0.0,0.0
1776370402133268011,19818,0.0,0.7,0.0,0.5,-0.2,-0.04,-136.06,-4.31,5.44,-0.35,0.09,-0.39,0.12,-2.88,11.69,1014.08,1346.0,0.0,0.0,0.0,0.0
1776370402231526606,19917,0.0,0.5,0.036,0.3,-0.02,-0.02,-135.0,-4.38,5.81,-0.56,-0.07,0.04,-2.44,7.38,10.25,1011.68,1604.0,0.0,0.0,0.0,0.0
1776370402333978197,20017,0.0,1.1,0.04,0.5,-0.08,-0.02,-133.81,-4.63,5.81,-0.2,-0.22,-1.05,-0.25,-0.0,15.06,954.91,1604.0,0.0,0.0,0.0,0.0
1776370402432261422,20117,0.036,0.4,0.0,0.2,0.18,-0.04,-132.5,-4.31,5.94,-0.83,-0.03,-0.42,-0.44,-1.31,10.31,959.89,1119.0,0.0,0.0,0.0,0.0
1776370402534630678,20216,0.0,0.4,0.0,1.3,0.02,-0.08,-131.69,-4.31,5.94,-0.27,-0.2,-0.15,-1.0,2.31,6.75,971.03,1035.0,0.0,0.0,0.0,0.0
1776370402632968663,20317,0.0,0.7,0.0,0.5,-0.02,-0.14,-131.06,-4.63,6.0,0.1,-0.29,-0.52,1.06,2.63,6.19,983.9,1035.0,0.0,0.0,0.0,0.0
1776370402735345327,20417,0.012,0.3,0.0,1.1,0.02,0.2,-130.63,-5.0,6.0,0.26,-0.1,-0.31,-2.31,4.63,2.75,983.38,1347.0,0.0,0.0,0.0,0.0
1776370402833674905,20517,0.012,0.1,0.008,0.4,0.06,-0.08,-130.5,-5.75,5.44,0.54,0.02,-0.61,-2.06,9.25,0.81,971.2,714.0,0.0,0.0,0.0,0.0
1776370402936073458,20617,0.0,1.2,0.0,0.9,0.08,-0.16,-130.25,-6.44,5.0,0.41,-0.1,-0.53,-2.38,3.19,3.56,963.66,714.0,0.0,0.0,0.0,0.0
1776370403034369739,20718,0.0,0.2,0.0,0.8,0.02,-0.02,-129.94,-6.56,4.25,0.73,0.02,-0.58,-1.12,-2.44,3.88,981.84,996.0,0.0,0.0,0.0,0.0
1776370403136775311,20818,0.0,0.1,0.0,0.3,0.08,0.02,-129.38,-6.06,3.44,0.31,0.33,-0.56,0.25,-4.88,8.31,948.57,1582.0,0.0,0.0,0.0,0.0
1776370403235077129,20918,0.0,0.9,0.0,0.2,0.1,-0.1,-128.5,-5.69,3.25,0.09,0.36,-0.67,-0.88,1.63,8.13,950.28,1582.0,0.0,0.0,0.0,0.0
1776370403337473700,21019,0.0,0.3,0.04,0.5,-0.06,0.06,-128.06,-5.69,3.06,-1.37,-0.08,1.2,-5.06,-1.81,1.37,964.0,1087.0,0.0,0.0,0.0,0.0
1776370403435794296,21120,0.0,0.1,0.0,1.2,-0.14,0.0,-127.62,-5.13,2.69,-0.15,0.33,-0.38,-2.31,-10.5,11.13,11936.06,1412.0,0.0,0.0,0.0,0.0
1776370403544156135,21220,0.024,0.3,0.0,1.1,0.06,-0.04,-125.62,-4.0,2.75,-1.2,0.3,0.15,-1.56,-9.38,26.75,11937.43,1074.0,0.0,0.0,0.0,0.0
1776370403636440648,21320,0.024,0.1,0.0,0.8,0.02,0.04,-123.81,-3.56,2.63,-0.21,0.77,-0.77,-2.56,-0.25,9.69,999.84,1074.0,0.0,0.0,0.0,0.0
1776370403738878591,21420,0.008,0.1,0.0,0.9,-0.12,-0.08,-123.25,-3.31,2.38,-0.41,0.89,-1.16,-5.88,-1.12,4.5,1002.59,1074.0,0.0,0.0,0.0,0.0
1776370403837178538,21521,0.0,0.8,0.0,1.2,0.0,-0.14,-122.75,-3.0,1.94,0.18,0.44,-0.97,-9.38,6.31,5.25,1007.56,1154.0,0.0,0.0,0.0,0.0
1776370403945545858,21620,0.004,0.2,0.004,0.3,-0.04,-0.14,-122.06,-3.5,0.88,0.35,0.38,-0.62,-10.19,5.0,5.63,1020.08,763.0,0.0,0.0,0.0,0.0
1776370404037881354,21720,0.004,0.2,0.0,0.1,0.1,-0.1,-121.75,-4.06,-0.5,0.37,0.18,-0.66,-12.88,12.25,1.94,992.64,763.0,0.0,0.0,0.0,0.0
1776370404140275073,21821,0.0,0.4,0.0,1.1,-0.12,-0.08,-121.56,-4.63,-1.5,-0.1,-0.48,0.02,-6.75,0.44,-2.44,990.41,969.0,0.0,0.0,0.0,0.0
1776370404240503646,21921,0.0,1.1,0.052,0.6,0.06,-0.04,-122.5,-4.31,-0.94,-1.1,0.53,0.9,16.75,-1.37,-14.63,11938.8,1442.0,0.0,0.0,0.0,0.0
1776370404340984408,22021,0.04,0.1,0.0,0.3,0.0,0.0,-124.31,-5.25,0.63,-1.7,-0.14,0.11,15.94,17.69,-17.5,980.98,1442.0,0.0,0.0,0.0,0.0
1776370404439242947,22121,0.0,0.4,0.0,1.3,0.18,0.12,-125.5,-6.69,1.31,-0.59,-0.35,-1.06,2.81,6.94,-7.31,974.81,1398.0,0.0,0.0,0.0,0.0
1776370404537549172,22221,0.0,0.3,0.0,1.2,0.0,-0.08,-125.94,-6.63,1.81,-0.36,0.04,-1.09,1.94,-8.0,-2.44,988.7,1398.0,0.0,0.0,0.0,0.0
1776370404647900285,22321,0.0,0.9,0.0,0.9,-0.12,-0.04,-125.94,-6.06,2.13,-0.32,0.28,-0.98,-0.06,-1.81,1.69,11939.83,1039.0,0.0,0.0,0.0,0.0
1776370404738313526,22421,0.0,0.4,0.0,0.1,-0.14,0.02,-125.81,-6.0,2.06,0.25,-0.03,-0.96,-2.0,-0.94,0.25,983.21,1038.0,0.0,0.0,0.0,0.0
1776370404840677412,22520,0.0,0.1,0.0,0.2,0.14,0.08,-125.62,-5.81,1.88,0.17,-0.17,-0.78,-2.19,-1.25,3.38,999.16,1038.0,0.0,0.0,0.0,0.0
1776370404946907326,22621,0.0,0.6,0.0,0.9,-0.04,-0.08,-125.0,-5.25,1.31,0.22,0.26,-0.16,-7.63,-10.13,7.19,11937.6,1504.0,0.0,0.0,0.0,0.0
1776370405037289455,22721,0.0,0.1,0.0,1.2,0.06,0.02,-123.94,-4.75,0.5,-1.03,0.07,1.29,-4.25,2.94,17.37,980.81,1272.0,0.0,0.0,0.0,0.0
1776370405147627678,22820,0.0,0.3,0.0,1.1,0.04,0.06,-122.12,-5.31,1.5,-0.95,0.19,0.4,13.13,1.25,17.25,11939.83,1353.0,0.0,0.0,0.0,0.0
1776370405237993381,22920,0.056,0.2,0.0,1.2,-0.1,0.12,-120.81,-4.94,2.5,-0.45,0.34,-0.64,5.19,-6.31,15.38,1015.62,1353.0,0.0,0.0,0.0,0.0
1776370405340399861,23020,0.0,0.8,0.0,1.2,0.04,0.0,-119.75,-4.0,3.0,-0.52,0.28,-0.95,-10.25,-2.63,4.06,1056.27,1146.0,0.0,0.0,0.0,0.0
1776370405438681919,23120,0.0,0.8,0.016,0.4,-0.06,-0.04,-119.31,-3.63,1.88,-0.65,0.48,-1.76,-12.06,-1.12,4.44,1046.66,1146.0,0.0,0.0,0.0,0.0
1776370405541045120,23220,0.028,0.2,0.02,1.2,-0.08,0.02,-119.19,-3.94,1.44,0.83,0.05,-0.81,-3.56,12.0,-4.06,985.78,1056.0,0.0,0.0,0.0,0.0
1776370405641317360,23321,0.0,0.2,0.0,0.3,0.1,-0.1,-119.62,-5.0,1.19,0.33,0.06,-0.8,-4.19,7.94,-6.19,11939.66,1333.0,0.0,0.0,0.0,0.0
1776370405741786251,23421,0.0,0.4,0.0,0.6,-0.04,-0.14,-120.19,-5.56,0.69,0.74,0.1,1.0,-0.44,0.75,-6.25,948.57,1333.0,0.0,0.0,0.0,0.0
1776370405840095421,23521,0.004,0.3,0.0,0.5,0.04,0.04,-121.62,-5.25,1.75,-0.97,0.55,1.07,22.12,-3.06,-23.37,985.61,1130.0,0.0,0.0,0.0,0.0
1776370405938327922,23621,0.0,0.2,0.0,1.1,-0.06,0.06,-123.94,-5.5,3.06,-1.7,-0.36,-0.26,5.13,6.31,-19.81,982.18,1130.0,0.0,0.0,0.0,0.0
1776370406040783088,23721,0.004,0.0,0.0,1.1,0.12,-0.06,-125.12,-5.88,2.69,-0.66,-0.27,-0.72,-8.5,0.06,-3.56,1002.25,902.0,0.0,0.0,0.0,0.0
1776370406143197141,23822,0.0,0.2,0.0,0.9,0.0,0.04,-125.0,-5.75,1.94,-0.05,0.11,-1.24,-4.94,-0.75,4.88,1009.11,1097.0,0.0,0.0,0.0,0.0
1776370406241489440,23922,0.048,-0.1,0.0,0.9,0.0,-0.14,-124.5,-5.94,1.69,0.09,-0.0,-1.31,-4.75,3.38,4.63,952.0,1097.0,0.0,0.0,0.0,0.0
1776370406339717998,24022,0.048,0.1,0.036,1.0,0.04,-0.06,-123.94,-6.06,1.25,0.11,-0.27,-1.12,-6.19,-4.31,6.0,1088.68,941.0,0.0,0.0,0.0,0.0
1776370406442163070,24122,0.028,0.2,0.024,0.5,0.0,0.04,-123.12,-5.0,0.88,0.71,-0.01,-0.51,-0.5,-18.75,11.81,988.18,941.0,0.0,0.0,0.0,0.0
1776370406542371124,24222,0.0,0.3,0.0,0.2,-0.02,-0.04,-122.0,-3.31,0.81,0.53,0.43,-0.47,-8.69,-9.75,9.06,11940.52,1308.0,0.0,0.0,0.0,0.0
1776370406642894034,24322,0.0,0.1,0.0,0.7,-0.06,-0.02,-121.12,-2.75,-0.31,-0.26,0.07,0.99,-7.06,-2.69,10.0,1021.63,1397.0,0.0,0.0,0.0,0.0
1776370406741198056,24422,0.012,0.1,0.0,1.1,0.08,0.0,-120.25,-2.56,0.19,-1.27,-0.15,1.11,10.38,-5.0,8.94,1100.17,1397.0,0.0,0.0,0.0,0.0
1776370406849550968,24522,0.0,1.1,0.0,0.2,0.02,-0.02,-119.44,-2.06,1.19,-0.95,0.32,-0.51,8.5,-2.63,8.88,1005.33,1148.0,0.0,0.0,0.0,0.0
1776370406941892890,24622,0.008,0.4,0.0,0.8,0.12,-0.2,-119.0,-2.5,1.37,-0.42,0.21,-1.0,-7.56,10.56,0.12,992.81,1274.0,0.0,0.0,0.0,0.0
1776370407040194763,24722,0.004,0.4,0.0,0.9,-0.02,-0.1,-119.19,-3.13,0.37,-0.03,0.15,-1.01,-13.38,3.63,-3.75,1019.22,1274.0,0.0,0.0,0.0,0.0
1776370407142636261,24821,0.008,0.1,0.0,0.3,-0.04,-0.02,-119.31,-3.25,-0.44,0.62,0.41,-0.91,-3.0,1.25,0.81,1005.68,1263.0,0.0,0.0,0.0,0.0
1776370407240900745,24922,0.0,0.7,0.0,1.1,-0.04,0.02,-119.12,-3.25,-0.5,0.13,0.42,-0.51,7.69,5.13,1.5,986.64,1090.0,0.0,0.0,0.0,0.0
1776370407343301206,25022,0.036,0.3,0.0,1.3,-0.04,-0.04,-119.56,-4.25,0.0,-0.15,-0.04,-0.62,2.0,15.0,-9.19,1002.25,1090.0,0.0,0.0,0.0,0.0
1776370407441569467,25121,0.036,0.1,0.0,0.9,-0.14,-0.06,-120.94,-4.94,0.06,-0.99,-0.28,0.76,7.38,-0.37,-15.31,983.21,1219.0,0.0,0.0,0.0,0.0
1776370407543959983,25222,0.0,1.0,0.016,0.6,-0.06,0.0,-121.87,-4.63,1.0,-1.51,-0.02,0.37,11.75,-5.69,-1.94,1021.8,1219.0,0.0,0.0,0.0,0.0
1776370407642284931,25322,0.0,0.2,0.0,0.9,-0.02,-0.04,-121.87,-4.56,2.0,-0.46,0.13,-0.97,7.94,4.06,1.06,1002.76,1314.0,0.0,0.0,0.0,0.0
1776370407744745634,25422,0.016,0.2,0.0,0.9,0.0,-0.04,-121.62,-5.38,2.56,-0.23,-0.08,-1.08,3.13,11.0,4.44,980.81,1182.0,0.0,0.0,0.0,0.0
1776370407842993728,25523,0.012,0.6,0.0,0.8,-0.02,-0.08,-120.94,-6.06,2.75,-0.23,-0.37,-0.53,-1.06,0.94,8.75,974.12,1182.0,0.0,0.0,0.0,0.0
1776370407945424893,25623,0.0,0.5,0.0,1.1,0.04,-0.06,-120.0,-5.63,2.94,0.7,0.02,-1.11,4.88,-9.94,10.06,963.49,1299.0,0.0,0.0,0.0,0.0
1776370408043680006,25723,0.0,0.3,0.0,1.1,-0.12,-0.06,-119.19,-4.75,3.5,0.66,-0.25,-0.95,6.81,-12.56,10.06,982.18,853.0,0.0,0.0,0.0,0.0
1776370408146097727,25823,0.004,0.4,0.0,0.5,-0.02,0.0,-118.19,-3.5,3.63,-0.5,0.19,0.07,-3.13,-14.69,12.13,952.17,853.0,0.0,0.0,0.0,0.0
1776370408244404952,25923,0.0,0.9,0.0,0.9,0.08,-0.04,-116.94,-2.94,3.06,-0.94,0.19,0.83,-4.0,4.69,12.13,987.67,1118.0,0.0,0.0,0.0,0.0
1776370408342712122,26023,0.0,0.4,0.0,0.2,-0.06,-0.16,-115.94,-3.31,3.69,-1.15,0.1,0.45,9.13,4.25,6.63,967.6,1118.0,0.0,0.0,0.0,0.0
1776370408445089804,26123,0.032,0.3,0.0,1.0,0.02,0.16,-115.56,-3.25,5.38,-0.17,0.4,-0.14,2.56,0.69,1.44,985.44,1210.0,0.0,0.0,0.0,0.0
1776370408543366862,26223,0.0,0.8,0.024,0.5,0.08,-0.08,-115.75,-3.19,4.81,0.01,0.34,-1.06,-14.81,-3.13,-6.06,1000.02,1222.0,0.0,0.0,0.0,0.0
1776370408641677995,26322,0.0,0.5,0.008,0.2,-0.08,-0.12,-116.31,-2.63,3.06,0.08,0.64,-1.76,-18.44,-4.5,-3.88,993.16,1222.0,0.0,0.0,0.0,0.0
1776370408744091178,26423,0.012,0.2,0.0,1.2,-0.06,-0.04,-116.69,-2.94,1.81,0.86,0.68,-1.44,-5.06,10.63,-3.44,1023.68,1098.0,0.0,0.0,0.0,0.0
1776370408842382533,26523,0.0,0.3,0.0,0.9,-0.1,0.0,-117.06,-3.63,1.0,0.4,0.23,-0.38,-0.25,10.56,-5.19,1008.76,882.0,0.0,0.0,0.0,0.0
1776370408946735026,26622,0.0,0.3,0.0,1.1,-0.06,0.02,-117.81,-4.75,0.56,1.4,-0.47,0.72,1.75,5.44,-10.81,11935.2,1145.0,0.0,0.0,0.0,0.0
1776370409043103182,26722,0.004,0.2,0.0,1.1,0.04,-0.04,-119.12,-4.44,2.44,-1.46,-0.66,1.08,23.0,-10.5,-12.5,947.37,1145.0,0.0,0.0,0.0,0.0
1776370409145499735,26822,0.0,0.2,0.0,1.0,-0.02,0.06,-119.81,-4.19,3.56,-1.34,-0.29,-0.27,-0.19,0.75,1.5,975.66,1400.0,0.0,0.0,0.0,0.0
1776370409245744659,26923,0.0,0.3,0.036,0.5,-0.02,-0.12,-119.19,-4.38,3.69,-0.06,-0.31,-0.54,-8.25,0.31,7.5,11938.97,979.0,0.0,0.0,0.0,0.0
1776370409350605624,27023,0.0,0.2,0.0,1.3,-0.12,-0.02,-118.56,-4.63,3.19,-0.06,-0.44,-1.02,-2.75,1.88,4.75,970.18,979.0,0.0,0.0,0.0,0.0
1776370409444496387,27122,0.0,0.7,0.0,0.2,0.0,-0.1,-118.12,-4.94,2.94,0.18,-0.28,-1.11,-4.94,-4.94,4.81,1050.78,1265.0,0.0,0.0,0.0,0.0
1776370409542737018,27223,0.0,1.1,0.0,0.8,0.08,0.02,-117.5,-4.44,2.5,0.19,-0.09,-1.13,-3.63,-3.38,7.38,971.89,1265.0,0.0,0.0,0.0,0.0
1776370409645213202,27323,0.0,0.5,0.0,1.4,0.0,-0.1,-116.5,-4.13,2.19,-0.47,0.04,-0.64,-3.19,-1.37,11.81,959.2,1128.0,0.0,0.0,0.0,0.0
1776370409743508149,27422,0.008,-0.2,0.0,1.1,0.02,-0.02,-115.12,-3.81,1.94,-1.31,-0.21,0.97,-2.13,-4.56,18.37,1000.02,1128.0,0.0,0.0,0.0,0.0
1776370409853835206,27523,0.0,0.6,0.0,0.3,0.04,0.08,-113.44,-2.94,2.38,-0.76,0.29,1.04,9.0,-8.56,16.69,11938.29,874.0,0.0,0.0,0.0,0.0
1776370409944220280,27623,0.0,1.2,0.0,1.0,0.1,-0.08,-112.06,-2.56,3.75,-0.12,0.47,-0.53,14.31,2.19,11.69,982.35,1301.0,0.0,0.0,0.0,0.0
1776370410046622092,27723,0.004,0.2,0.0,0.5,0.02,-0.18,-111.81,-3.0,4.13,0.02,0.19,-1.13,-7.81,2.0,-4.25,1068.1,1301.0,0.0,0.0,0.0,0.0
1776370410152792431,27823,0.0,0.6,0.0,1.2,0.02,-0.1,-111.94,-2.38,2.69,0.04,0.41,-0.88,-18.25,-7.63,2.31,11941.54,1082.0,0.0,0.0,0.0,0.0
1776370410243216283,27923,0.048,0.1,0.0,1.2,-0.2,-0.04,-111.37,-1.94,1.31,0.48,0.36,-1.04,-8.94,-0.06,7.13,1040.49,1161.0,0.0,0.0,0.0,0.0
1776370410345607448,28022,0.048,0.1,0.0,0.2,0.08,-0.2,-111.0,-2.31,0.5,0.9,0.23,-1.15,-2.88,11.94,-1.06,1002.93,1161.0,0.0,0.0,0.0,0.0
1776370410443849320,28123,0.0,0.1,0.0,0.8,-0.04,-0.02,-111.87,-3.5,-0.56,0.37,-0.11,-0.85,-11.06,10.0,-14.69,1018.02,1129.0,0.0,0.0,0.0,0.0
1776370410546273948,28223,0.028,0.1,0.0,0.5,-0.18,-0.18,-113.5,-4.0,-1.19,-1.17,-0.09,1.64,6.63,2.38,-18.0,988.53,1129.0,0.0,0.0,0.0,0.0
1776370410644620618,28322,0.0,0.7,0.004,0.2,-0.02,0.06,-114.87,-4.06,0.56,-1.05,-0.11,0.35,25.12,0.06,-9.75,980.29,1198.0,0.0,0.0,0.0,0.0
1776370410747027579,28423,0.0,0.3,0.0,1.3,0.0,-0.06,-115.62,-4.25,2.56,-0.52,-0.01,-0.35,13.63,5.44,-6.06,988.7,1920.0,0.0,0.0,0.0,0.0
1776370410845317211,28524,0.0,0.4,0.0,1.1,-0.12,-0.02,-116.19,-5.19,3.06,-0.08,-0.55,-1.27,-0.81,11.69,-7.38,1013.91,1920.0,0.0,0.0,0.0,0.0
1776370410953660642,28623,0.004,0.0,0.0,0.1,0.04,0.0,-116.81,-5.94,2.69,-0.19,-0.48,-1.11,-8.56,-4.13,-6.0,915.81,1227.0,0.0,0.0,0.0,0.0
1776370411046018008,28723,0.0,0.8,0.004,0.2,0.04,0.02,-117.25,-5.19,2.19,1.21,-0.1,-1.52,0.5,-14.0,-3.94,985.61,1531.0,0.0,0.0,0.0,0.0
1776370411144324233,28823,0.0,0.9,0.0,0.9,-0.18,-0.04,-117.44,-3.69,2.75,0.45,0.39,-0.47,5.94,-11.94,3.63,975.49,1531.0,0.0,0.0,0.0,0.0
1776370411246719508,28922,0.06,0.5,0.0,0.3,-0.02,-0.02,-116.56,-2.81,2.56,-0.39,-0.07,0.0,-12.69,-9.94,14.75,963.49,1440.0,0.0,0.0,0.0,0.0
1776370411345030271,29023,0.048,0.2,0.024,0.8,0.04,-0.06,-115.12,-1.88,1.37,-1.06,0.22,0.94,-4.13,-3.5,13.13,1031.92,996.0,0.0,0.0,0.0,0.0
1776370411443305347,29122,0.0,0.6,0.024,1.2,0.1,0.06,-114.12,-1.81,2.94,-1.35,0.02,0.95,17.06,3.31,4.81,974.46,996.0,0.0,0.0,0.0,0.0
1776370411551701520,29221,0.0,0.1,0.016,0.8,-0.02,-0.14,-114.06,-2.0,4.81,-0.27,0.15,-0.83,20.0,2.0,-1.94,11940.0,1045.0,0.0,0.0,0.0,0.0
1776370411825435506,29321,0.02,0.3,0.0,0.7,-0.04,0.04,-114.37,-2.06,5.94,-0.33,0.39,-0.87,-1.44,0.25,-3.94,1051.47,824.0,0.0,0.0,0.0,0.0
1776370411844726515,29421,0.004,0.2,0.0,0.6,0.0,-0.16,-114.75,-1.94,4.81,0.25,0.39,-0.63,-19.44,-0.75,-4.25,982.18,824.0,0.0,0.0,0.0,0.0
1776370411858387337,29520,0.008,0.2,0.0,0.9,-0.1,0.08,-115.06,-1.94,3.38,0.61,0.7,-1.37,-9.13,5.75,-2.81,1009.62,1907.0,0.0,0.0,0.0,0.0
1776370411943026555,29620,0.004,0.1,0.0,0.8,0.02,0.06,-115.19,-3.06,3.06,1.16,0.14,-0.74,2.13,14.5,0.5,1009.45,1907.0,0.0,0.0,0.0,0.0
1776370412045428183,29721,0.0,0.2,0.0,0.8,-0.02,-0.06,-114.94,-4.31,2.94,0.33,0.02,-0.13,-6.88,12.44,2.31,999.16,1221.0,0.0,0.0,0.0,0.0
1776370412143715778,29820,0.0,0.3,0.0,0.3,-0.04,-0.1,-115.06,-5.44,1.69,-0.26,-0.22,1.55,-5.38,13.63,-10.81,984.75,1506.0,0.0,0.0,0.0,0.0
1776370412242010984,29920,0.0,0.4,0.0,1.1,0.06,-0.1,-116.75,-5.13,2.38,-1.1,0.38,-0.43,15.44,-4.63,-19.19,1011.16,1506.0,0.0,0.0,0.0,0.0
1776370412344482335,30020,0.044,0.3,0.0,1.2,-0.04,-0.02,-118.25,-5.75,3.5,-1.12,-0.2,0.05,7.44,10.5,-10.63,1026.6,1240.0,0.0,0.0,0.0,0.0
1776370412442715504,30120,0.016,0.3,0.0,1.1,-0.08,-0.06,-118.5,-6.56,3.44,0.31,-0.21,-1.53,-3.63,3.63,1.81,996.41,2277.0,0.0,0.0,0.0,0.0
1776370412545087093,30220,0.012,0.1,0.0,0.9,-0.02,-0.04,-118.06,-6.56,3.31,-0.29,-0.0,-0.7,0.25,1.12,5.88,1080.96,2277.0,0.0,0.0,0.0,0.0
1776370412649409420,30320,0.008,0.1,0.0,0.7,-0.08,-0.08,-117.37,-6.69,3.38,0.67,0.12,-1.2,-0.56,-0.19,8.81,11940.17,997.0,0.0,0.0,0.0,0.0
1776370412745837891,30420,0.0,0.0,0.0,0.9,0.06,-0.04,-116.37,-6.19,3.44,0.75,0.17,-0.29,-2.5,-7.75,12.06,992.81,997.0,0.0,0.0,0.0,0.0
1776370412844133949,30521,0.008,0.0,0.0,1.1,0.02,0.04,-115.06,-5.56,3.0,0.3,0.04,-0.16,-7.94,-8.5,23.5,1021.63,1236.0,0.0,0.0,0.0,0.0
1776370412946579244,30621,0.0,0.9,0.0,0.9,0.04,0.02,-111.81,-4.06,2.25,-0.23,0.37,0.69,-9.81,-14.25,44.13,651.7,1123.0,0.0,0.0,0.0,0.0
1776370413044767856,30722,0.0,0.2,0.0,1.2,-0.02,-0.12,-107.25,-3.38,2.19,-1.42,0.59,0.83,3.5,3.06,49.94,622.89,1123.0,0.0,0.0,0.0,0.0
1776370413147236337,30823,0.0,0.1,0.0,0.5,0.02,-0.18,-102.44,-3.38,3.19,-0.51,0.47,0.96,8.69,-1.88,35.31,992.13,1256.0,0.0,0.0,0.0,0.0
1776370413245562784,30922,0.0,0.8,0.04,0.1,-0.08,-0.14,-100.0,-2.75,3.81,-0.33,1.28,-1.7,1.94,-3.13,28.81,992.81,1231.0,0.0,0.0,0.0,0.0
1776370413347926004,31022,0.0,0.4,0.036,0.2,0.0,0.02,-96.81,-3.0,3.5,-0.83,1.21,-1.68,-16.69,13.81,37.5,1016.31,1231.0,0.0,0.0,0.0,0.0
1776370413447254264,31122,0.0,0.5,0.0,0.8,0.04,-0.12,-92.62,-4.63,1.81,-0.03,0.66,-0.69,-19.0,15.44,47.94,11940.69,1135.0,0.0,0.0,0.0,0.0
1776370413544467842,31222,0.0,0.7,0.0,0.5,0.02,-0.18,-87.81,-5.69,1.25,0.2,0.67,-0.65,-0.31,9.5,47.81,997.62,1450.0,0.0,0.0,0.0,0.0
1776370413646904784,31322,0.0,1.2,0.0,0.8,-0.04,0.0,-83.19,-6.31,1.94,-0.93,1.19,-0.18,3.0,12.0,45.31,1027.46,1450.0,0.0,0.0,0.0,0.0
1776370413749336023,31423,0.012,0.7,0.0,1.0,-0.08,-0.12,-78.87,-8.25,2.5,-1.56,0.82,0.57,-5.88,24.69,46.06,1006.88,1266.0,0.0,0.0,0.0,0.0
1776370413847623711,31523,0.0,0.6,0.0,0.1,0.1,-0.06,-73.75,-9.88,2.88,-0.75,0.29,-0.56,-3.19,9.31,62.63,990.41,2678.0,0.0,0.0,0.0,0.0
1776370413981454440,31624,0.0,0.7,0.0,0.7,-0.08,-0.04,-66.94,-9.69,3.88,-0.81,0.87,-0.51,-4.69,1.63,73.62,11938.46,1355.0,0.0,0.0,0.0,0.0
1776370414048348564,31724,0.0,0.0,0.0,0.9,0.0,-0.04,-59.63,-9.06,5.13,-0.62,0.6,-0.56,-7.19,10.13,74.75,938.45,1355.0,0.0,0.0,0.0,0.0
1776370414150766858,31824,0.0,0.5,0.0,0.1,0.08,-0.16,-52.19,-9.19,5.75,-0.68,0.46,-0.16,-8.75,11.06,76.56,969.66,1355.0,0.0,0.0,0.0,0.0
1776370414249048898,31925,0.0,0.5,0.0,0.3,-0.02,-0.08,-44.5,-9.31,6.06,-0.43,-0.15,-0.37,-11.5,5.88,80.19,953.54,1690.0,0.0,0.0,0.0,0.0
1776370414351420543,32025,0.0,0.0,0.0,0.5,-0.04,-0.04,-36.56,-8.56,6.19,-0.26,-0.32,-0.38,-13.06,-3.0,80.12,954.57,1588.0,0.0,0.0,0.0,0.0
1776370414449703490,32124,0.0,0.5,0.0,1.1,0.0,-0.02,-29.31,-7.81,5.94,0.26,-0.2,-0.51,-15.38,0.31,65.94,938.45,1588.0,0.0,0.0,0.0,0.0
1776370414548001863,32224,0.024,0.5,0.02,0.5,-0.08,-0.02,-23.62,-7.56,5.56,0.18,-0.21,-0.65,-8.19,0.44,52.25,962.29,975.0,0.0,0.0,0.0,0.0
1776370414650406361,32324,0.0,0.5,0.004,1.1,0.02,0.0,-18.75,-6.94,5.56,0.12,-0.2,-0.72,-6.25,-6.31,51.0,920.1,1275.0,0.0,0.0,0.0,0.0
1776370414748748717,32423,0.008,0.1,0.0,1.1,-0.04,-0.04,-13.63,-5.94,5.44,-0.17,-0.26,-0.73,-11.44,-9.19,52.13,951.65,1275.0,0.0,0.0,0.0,0.0
1776370414846992774,32524,0.0,0.7,0.004,0.5,-0.02,-0.18,-9.13,-5.13,4.69,-0.61,-0.02,0.66,-12.06,2.31,37.5,964.17,1225.0,0.0,0.0,0.0,0.0
1776370414969435145,32623,0.0,0.1,0.0,0.2,-0.02,0.0,-5.94,-5.69,4.38,-0.24,0.5,0.09,-3.0,11.56,31.62,11937.43,1110.0,0.0,0.0,0.0,0.0
1776370415049683067,32723,0.0,0.3,0.0,0.9,0.0,-0.02,-2.69,-6.13,4.63,0.2,0.4,-0.17,-3.63,4.88,34.19,11937.09,1094.0,0.0,0.0,0.0,0.0
1776370415150140366,32823,0.008,0.2,0.0,0.9,-0.04,-0.04,-0.12,-5.13,4.38,0.58,0.62,-0.2,-4.75,-15.81,18.0,1038.6,1094.0,0.0,0.0,0.0,0.0
1776370415248453813,32923,0.056,0.1,0.0,0.8,-0.04,-0.14,0.56,-3.69,3.88,0.15,1.18,-1.04,-7.88,-6.81,1.81,998.3,1094.0,0.0,0.0,0.0,0.0
1776370415346749853,33022,0.036,0.2,0.0,0.5,-0.02,-0.04,1.25,-3.31,3.06,0.07,0.51,-0.91,-14.81,11.25,12.13,980.47,1068.0,0.0,0.0,0.0,0.0
1776370415449133350,33122,0.0,0.5,0.0,1.2,0.08,-0.12,2.81,-4.0,1.94,1.26,0.33,-0.8,-6.56,4.31,16.31,1000.87,914.0,0.0,0.0,0.0,0.0
1776370415547409668,33222,0.02,0.0,0.0,0.9,0.04,-0.06,4.0,-4.19,2.13,0.96,0.47,-0.47,7.25,3.88,6.38,1015.28,914.0,0.0,0.0,0.0,0.0
1776370415649835980,33323,0.016,0.2,0.0,0.9,0.14,-0.2,3.81,-4.56,1.94,0.64,0.31,-0.39,2.56,10.13,-9.0,977.38,1422.0,0.0,0.0,0.0,0.0
1776370415748161280,33423,0.004,0.3,0.0,0.2,-0.08,0.02,2.69,-5.31,1.75,-0.11,0.1,0.26,1.06,5.38,-12.75,950.45,722.0,0.0,0.0,0.0,0.0
1776370415846446505,33522,0.0,0.9,0.0,0.7,0.0,0.0,1.81,-5.06,2.38,-0.91,0.11,0.3,12.56,-11.94,-3.56,989.38,722.0,0.0,0.0,0.0,0.0
1776370415948847280,33622,0.0,0.3,0.0,0.2,-0.1,0.16,1.31,-4.06,2.81,-0.97,0.02,-0.12,-2.56,-7.06,-7.81,1001.73,1124.0,0.0,0.0,0.0,0.0
1776370416059192134,33723,0.004,0.7,0.0,1.1,0.0,-0.04,0.37,-3.75,2.56,-0.45,0.14,-0.1,-1.69,-0.12,-8.38,11937.6,1150.0,0.0,0.0,0.0,0.0
1776370416149556929,33823,0.0,0.9,0.0,0.9,-0.12,-0.04,0.12,-4.19,2.75,0.11,0.06,-0.54,6.69,12.19,5.06,993.84,1150.0,0.0,0.0,0.0,0.0
1776370416257902490,33923,0.052,0.4,0.0,0.9,-0.02,-0.06,0.88,-5.38,3.31,-0.01,-0.25,-1.17,1.94,9.19,10.06,981.84,2053.0,0.0,0.0,0.0,0.0
1776370416350264004,34024,0.0,0.9,0.028,0.8,-0.08,-0.06,1.69,-5.75,3.06,0.33,-0.09,-1.12,-9.06,-3.25,3.75,995.04,2053.0,0.0,0.0,0.0,0.0
1776370416448502339,34123,0.032,0.1,0.0,0.5,0.04,0.12,1.69,-5.19,2.25,0.75,0.02,-0.99,-4.31,-8.38,-2.63,1008.25,1211.0,0.0,0.0,0.0,0.0
1776370416558874452,34224,0.016,-0.1,0.016,0.4,0.0,-0.06,1.56,-4.44,2.0,-0.44,0.26,0.11,-0.5,-6.31,1.44,11939.32,1508.0,0.0,0.0,0.0,0.0
1776370416649264322,34324,0.008,0.1,0.0,0.7,0.0,-0.08,2.38,-3.94,1.94,-0.66,-0.35,0.88,0.06,-3.44,17.44,994.7,1508.0,0.0,0.0,0.0,0.0
1776370416751689802,34423,0.008,0.0,0.0,0.9,-0.04,0.06,4.81,-3.38,2.5,-1.32,0.01,0.55,4.44,-7.88,27.25,1006.53,904.0,0.0,0.0,0.0,0.0
1776370416857889770,34524,0.0,0.5,0.0,1.1,-0.02,0.0,6.81,-2.94,2.63,-0.53,0.57,-0.35,-3.81,2.0,16.12,11941.37,1186.0,0.0,0.0,0.0,0.0
1776370416952349357,34624,0.0,0.9,0.0,0.9,-0.06,-0.14,7.63,-3.25,1.75,-0.26,0.32,-1.2,-12.5,1.56,2.44,1077.88,1186.0,0.0,0.0,0.0,0.0
1776370417050659415,34724,0.0,0.7,0.0,1.1,0.06,-0.12,7.63,-3.06,0.75,0.03,0.15,-1.28,-11.81,0.12,-1.5,1033.12,782.0,0.0,0.0,0.0,0.0
1776370417161000954,34824,0.0,0.7,0.0,0.9,0.0,-0.1,7.63,-3.19,0.0,0.33,0.33,-1.01,-2.63,4.19,0.94,11941.89,1086.0,0.0,0.0,0.0,0.0
1776370417251356397,34924,0.056,0.2,0.0,0.9,-0.12,0.0,7.69,-3.63,-0.63,0.75,0.15,-0.68,1.37,11.06,-1.12,1012.71,1086.0,0.0,0.0,0.0,0.0
1776370417353754173,35024,0.036,0.1,0.0,1.0,0.0,-0.08,6.88,-4.75,-0.88,-0.11,-0.4,0.02,-0.0,8.94,-13.25,986.64,1597.0,0.0,0.0,0.0,0.0
1776370417452013453,35125,0.02,0.0,0.0,0.5,0.02,-0.02,5.13,-4.88,-1.12,-1.08,0.06,1.11,5.31,-3.0,-20.0,11939.66,1033.0,0.0,0.0,0.0,0.0
1776370417554388005,35225,0.02,0.2,0.0,1.1,-0.04,-0.1,3.56,-4.38,-0.06,-1.33,0.07,-0.09,16.44,-1.63,-11.13,1068.27,1033.0,0.0,0.0,0.0,0.0
1776370417652763398,35325,0.0,0.3,0.0,0.9,-0.08,0.04,2.75,-4.56,2.44,-0.96,-0.08,-0.01,8.94,6.0,-8.13,1013.57,664.0,0.0,0.0,0.0,0.0
1776370417752986008,35425,0.0,0.2,0.0,0.6,0.02,-0.14,2.31,-5.31,2.94,-0.18,-0.23,-1.23,-3.0,5.88,-1.44,11941.37,1139.0,0.0,0.0,0.0,0.0
1776370417853457732,35525,0.0,0.5,0.0,0.9,0.0,-0.12,2.38,-5.56,2.31,-0.06,-0.18,-1.09,-11.69,-5.0,1.06,1022.14,1139.0,0.0,0.0,0.0,0.0
1776370417951760865,35625,0.0,0.4,0.0,0.6,0.02,0.0,2.56,-4.88,1.75,0.81,0.04,-1.28,1.19,-6.25,0.69,1023.0,959.0,0.0,0.0,0.0,0.0
1776370418054160603,35725,0.0,0.1,0.0,0.5,-0.14,-0.12,2.31,-4.63,2.56,0.67,0.05,-0.65,16.94,-0.31,-2.31,989.9,959.0,0.0,0.0,0.0,0.0
1776370418152459587,35825,0.0,0.3,0.0,1.2,0.04,0.02,2.44,-4.63,3.44,0.33,-0.04,-0.2,8.5,-2.25,5.88,958.69,1431.0,0.0,0.0,0.0,0.0
1776370418254861585,35926,0.052,0.1,0.0,0.8,0.02,-0.12,3.25,-3.75,3.69,-0.87,-0.33,0.87,-0.63,-11.69,12.75,929.53,1171.0,0.0,0.0,0.0,0.0
1776370418357261046,36027,0.044,0.6,0.0,0.5,-0.18,0.02,4.19,-2.88,4.25,-0.58,0.41,0.33,8.5,-5.31,7.19,1039.98,1171.0,0.0,0.0,0.0,0.0
1776370418455567178,36127,0.028,0.3,0.0,0.2,0.06,-0.16,4.94,-2.81,5.13,-0.92,0.38,-0.44,4.94,3.38,8.0,1066.22,1030.0,0.0,0.0,0.0,0.0
1776370418553779068,36227,0.016,0.2,0.0,0.4,-0.02,0.02,5.5,-3.19,5.19,-0.16,0.14,-0.93,-9.5,3.69,2.25,1023.17,993.0,0.0,0.0,0.0,0.0
1776370418656226345,36328,0.0,0.3,0.0,0.9,-0.08,0.02,5.81,-2.75,4.19,0.24,0.45,-0.92,-9.81,-7.75,4.19,992.3,993.0,0.0,0.0,0.0,0.0
1776370418754561718,36427,0.0,0.5,0.0,0.2,-0.02,-0.02,5.88,-2.38,3.38,0.47,0.26,-0.99,-1.81,8.56,-1.94,986.3,1104.0,0.0,0.0,0.0,0.0
1776370418856975124,36527,0.0,0.2,0.0,1.0,0.08,-0.04,5.69,-3.56,3.13,0.57,0.09,-0.67,0.44,16.5,-3.5,962.29,1104.0,0.0,0.0,0.0,0.0
1776370418955254682,36628,0.0,0.5,0.0,0.5,0.0,-0.02,4.88,-4.94,2.69,0.69,-0.2,0.0,-6.88,8.56,-11.81,972.92,992.0,0.0,0.0,0.0,0.0
1776370419057656161,36728,0.0,0.3,0.0,1.3,-0.02,0.0,3.69,-5.75,1.56,-1.24,-0.23,1.67,-6.5,2.63,-13.0,962.29,883.0,0.0,0.0,0.0,0.0
1776370419155959386,36828,0.008,0.0,0.0,1.2,0.1,-0.04,2.19,-4.88,2.06,-1.33,0.16,-0.31,12.63,-12.75,-15.75,1022.83,883.0,0.0,0.0,0.0,0.0
1776370419258359550,36929,0.052,0.3,0.0,1.3,-0.04,-0.02,0.94,-4.63,3.19,-0.78,-0.18,-0.28,1.5,2.75,-9.44,992.13,985.0,0.0,0.0,0.0,0.0
1776370419356650757,37028,0.036,0.1,0.0,1.0,-0.04,-0.08,0.56,-5.13,3.25,-0.1,-0.14,-0.5,7.0,0.31,-0.69,998.82,1001.0,0.0,0.0,0.0,0.0
1776370419459055569,37128,0.032,0.3,0.0,0.8,-0.02,-0.04,0.44,-4.88,4.13,-0.11,-0.13,-1.19,6.75,-1.31,-1.25,965.37,1001.0,0.0,0.0,0.0,0.0
1776370419557329998,37229,0.024,0.2,0.0,0.7,0.02,-0.06,0.25,-5.25,4.31,0.22,-0.12,-0.92,-4.69,7.75,-2.38,1059.7,712.0,0.0,0.0,0.0,0.0
1776370419657548570,37328,0.0,0.4,0.0,0.8,-0.14,0.0,0.19,-5.69,3.88,0.9,-0.35,-0.9,-2.88,-0.37,1.69,11940.34,1138.0,0.0,0.0,0.0,0.0
1776370419766030669,37428,0.012,0.4,0.0,1.3,0.02,-0.08,0.75,-4.88,3.5,-0.15,-0.07,-0.07,-5.63,-13.75,10.56,11939.49,1336.0,0.0,0.0,0.0,0.0
1776370419856376705,37528,0.012,0.3,0.0,0.2,0.06,-0.12,1.75,-3.38,2.81,-1.01,-0.3,1.07,-4.44,-10.75,10.0,938.1,1336.0,0.0,0.0,0.0,0.0
1776370419954607763,37627,0.004,0.4,0.0,0.8,0.0,-0.04,2.56,-2.75,2.88,-0.98,0.27,0.26,2.94,1.88,6.81,971.89,1336.0,0.0,0.0,0.0,0.0
1776370420057028853,37728,0.0,0.1,0.0,0.7,0.02,-0.12,3.13,-3.5,2.94,-0.35,-0.14,-0.35,-4.75,10.0,4.5,1117.32,1119.0,0.0,0.0,0.0,0.0
1776370420155374246,37828,0.008,0.2,0.0,0.2,-0.02,-0.04,3.38,-3.5,2.38,-0.15,0.14,-1.49,-10.06,-9.63,1.63,1051.81,1419.0,0.0,0.0,0.0,0.0
1776370420257736946,37927,0.06,0.0,0.0,1.0,0.04,-0.06,3.75,-2.5,1.12,-0.51,0.89,-1.11,-14.94,-0.31,3.0,1022.31,1419.0,0.0,0.0,0.0,0.0
1776370420356061931,38028,0.048,0.1,0.0,1.2,-0.02,-0.14,3.75,-3.38,0.06,1.19,0.15,-0.97,-1.81,15.75,-2.38,1059.01,1465.0,0.0,0.0,0.0,0.0
1776370420458465540,38128,0.028,0.0,0.0,0.8,0.04,-0.08,3.63,-4.75,0.5,0.3,-0.64,0.13,5.75,10.06,0.0,980.98,960.0,0.0,0.0,0.0,0.0
1776370420556771339,38227,0.0,0.3,0.0,1.1,-0.1,0.0,3.06,-5.19,0.5,-0.93,-0.29,0.43,0.94,-6.75,-12.56,1006.53,960.0,0.0,0.0,0.0,0.0
1776370420655042508,38327,0.016,0.5,0.0,1.3,-0.04,-0.02,1.94,-4.25,0.94,-1.25,-0.0,0.11,7.81,-10.19,-10.63,998.64,1214.0,0.0,0.0,0.0,0.0
1776370420757470506,38427,0.004,0.2,0.0,1.2,0.04,-0.08,0.56,-4.0,1.88,-0.66,0.03,-0.88,10.69,3.88,-15.13,1028.83,963.0,0.0,0.0,0.0,0.0
1776370420859861930,38528,0.0,0.4,0.0,1.1,-0.02,-0.04,-0.5,-4.81,2.25,-0.56,-0.3,-0.4,0.75,8.5,-7.63,1042.21,963.0,0.0,0.0,0.0,0.0
1776370420958166173,38629,0.004,0.2,0.0,0.6,-0.18,-0.02,-0.94,-5.5,2.13,-0.09,-0.34,-0.89,-3.81,2.81,-2.81,988.35,958.0,0.0,0.0,0.0,0.0
1776370421066523215,38729,0.008,0.2,0.0,1.3,-0.16,0.04,-0.94,-5.69,2.0,0.36,-0.04,-0.72,2.38,-1.19,0.94,1033.12,958.0,0.0,0.0,0.0,0.0
1776370421160817429,38829,0.0,0.0,0.0,1.1,0.2,0.0,-1.12,-5.69,2.0,0.86,0.01,-1.09,5.38,-2.88,-2.81,11939.14,1362.0,0.0,0.0,0.0,0.0
1776370421257158862,38929,0.0,0.4,0.0,0.6,0.02,-0.12,-1.19,-5.25,2.0,0.11,0.01,-0.28,0.69,-7.0,4.06,989.73,952.0,0.0,0.0,0.0,0.0
1776370421359578156,39029,0.04,0.4,0.0,0.7,-0.25,-0.06,-0.5,-4.69,1.5,-0.01,0.46,0.53,-9.69,-5.81,10.75,961.26,952.0,0.0,0.0,0.0,0.0
1776370421461975857,39130,0.0,0.0,0.0,1.1,0.02,-0.1,1.19,-4.88,1.5,-1.02,-0.24,0.74,3.69,4.13,19.69,1039.8,1413.0,0.0,0.0,0.0,0.0
1776370421560253563,39231,0.0,1.0,0.0,1.0,0.12,-0.2,3.13,-4.75,1.81,-1.26,0.05,-0.08,-2.94,-3.75,20.87,1000.53,1173.0,0.0,0.0,0.0,0.0
1776370421664541074,39330,0.0,0.6,0.0,0.5,0.04,-0.02,4.88,-4.25,1.31,-0.09,0.5,-0.85,-6.88,-4.81,12.56,11939.32,1186.0,0.0,0.0,0.0,0.0
1776370421761008657,39430,0.0,0.5,0.0,0.5,-0.02,-0.08,5.44,-3.94,0.56,-0.27,0.65,-1.28,-9.38,-1.63,3.13,1022.65,1186.0,0.0,0.0,0.0,0.0
1776370421859275178,39530,0.0,0.0,0.0,0.5,-0.02,-0.1,5.44,-4.19,-0.37,0.28,0.27,-1.3,-11.5,9.19,-2.19,1018.2,1564.0,0.0,0.0,0.0,0.0
1776370421961665509,39629,0.004,0.4,0.0,1.4,-0.04,0.06,5.44,-5.0,-1.12,0.77,-0.08,-0.82,-4.13,7.44,-0.12,999.16,1564.0,0.0,0.0,0.0,0.0
1776370422059957826,39730,0.0,0.0,0.0,1.1,-0.02,-0.14,5.25,-5.56,-1.31,0.31,0.25,0.24,-1.81,3.44,-3.56,974.98,1164.0,0.0,0.0,0.0,0.0
1776370422170311735,39830,0.0,0.4,0.0,0.8,-0.1,-0.1,4.19,-5.69,-1.5,-0.27,0.26,1.52,7.06,-1.69,-17.37,11936.4,957.0,0.0,0.0,0.0,0.0
1776370422260671679,39930,0.0,0.5,0.0,0.7,-0.04,0.1,2.19,-5.81,-0.44,-1.15,0.14,-0.16,8.56,5.63,-18.44,994.53,957.0,0.0,0.0,0.0,0.0
1776370422369057647,40030,0.04,0.2,0.0,0.3,-0.1,-0.08,0.81,-6.25,-0.44,-1.13,-0.11,-0.29,-4.38,1.81,-11.0,994.01,791.0,0.0,0.0,0.0,0.0
1776370422461385605,40130,0.0,0.3,0.0,1.1,0.04,-0.27,0.12,-6.13,-0.94,-0.38,-0.12,-1.41,-2.75,-4.81,-4.44,11938.46,845.0,0.0,0.0,0.0,0.0
1776370422559635181,40230,0.0,0.1,0.004,0.7,-0.06,-0.1,-0.31,-5.69,-1.06,-0.29,-0.04,-0.84,-4.06,-5.88,-4.44,1039.12,845.0,0.0,0.0,0.0,0.0
1776370422662156681,40331,0.02,0.2,0.0,0.5,-0.04,-0.02,-0.56,-5.25,-1.37,0.55,-0.0,-1.19,-1.06,-3.44,-0.88,996.41,802.0,0.0,0.0,0.0,0.0
1776370422760382868,40430,0.016,0.2,0.0,0.6,0.06,-0.12,-0.5,-5.06,-1.56,0.38,0.13,-0.81,4.75,-2.0,3.38,1023.34,802.0,0.0,0.0,0.0,0.0
1776370422858641981,40529,0.0,0.8,0.0,0.8,-0.1,-0.12,0.12,-5.0,-1.0,-0.12,0.03,-0.31,7.06,-0.12,8.5,1035.35,1126.0,0.0,0.0,0.0,0.0
1776370422961074683,40630,0.004,0.1,0.0,0.9,0.02,-0.02,0.81,-4.56,-0.12,-1.09,-0.44,1.02,10.44,-10.94,8.13,955.6,1260.0,0.0,0.0,0.0,0.0
1776370423059385297,40729,0.0,0.1,0.0,0.2,0.02,-0.18,1.25,-3.13,1.19,-0.52,0.52,0.12,17.56,-13.5,2.75,969.15,1260.0,0.0,0.0,0.0,0.0
1776370423157694300,40828,0.0,0.8,0.0,1.0,0.02,-0.02,1.75,-2.56,2.56,-1.5,0.51,0.34,4.13,4.44,9.0,1043.23,1189.0,0.0,0.0,0.0,0.0
1776370423260087483,40928,0.056,0.2,0.0,0.3,-0.02,-0.04,2.69,-3.06,2.06,-0.59,0.32,-0.9,-12.94,5.44,9.63,1028.83,1189.0,0.0,0.0,0.0,0.0
1776370423368408876,41029,0.048,0.1,0.0,0.5,0.0,-0.02,3.56,-3.5,0.37,-0.19,0.44,-0.99,-21.37,4.88,8.5,1050.44,1022.0,0.0,0.0,0.0,0.0
1776370423460788353,41129,0.032,0.3,0.0,0.9,-0.1,-0.12,4.38,-3.75,-1.25,0.26,0.39,-0.91,-11.63,1.06,5.31,1030.89,1161.0,0.0,0.0,0.0,0.0
1776370423563156610,41230,0.024,0.1,0.0,0.3,0.06,0.1,4.56,-3.69,-2.0,0.35,0.45,-0.71,6.13,8.0,-3.94,1008.59,1161.0,0.0,0.0,0.0,0.0
1776370423661448483,41331,0.008,0.3,0.0,1.0,0.02,0.0,3.31,-4.63,-1.37,-0.33,-0.19,-0.26,7.19,11.0,-19.69,999.5,1189.0,0.0,0.0,0.0,0.0
1776370423763890889,41431,0.0,0.7,0.0,0.2,-0.06,-0.18,1.37,-5.19,-1.25,-0.39,0.14,0.64,5.63,1.37,-15.63,1108.4,1022.0,0.0,0.0,0.0,0.0
1776370423862182188,41531,0.0,0.1,0.0,1.0,-0.02,-0.1,0.06,-5.75,-0.69,-1.84,-0.37,0.46,6.13,12.19,-11.56,1020.08,1022.0,0.0,0.0,0.0,0.0
1776370423960462060,41630,0.004,0.2,0.0,0.0,0.02,-0.12,-0.88,-6.56,-0.75,-0.57,-0.31,-0.64,-1.19,7.38,-8.06,1016.31,1082.0,0.0,0.0,0.0,0.0
1776370424062882762,41731,0.0,0.4,0.0,0.5,0.02,-0.1,-1.44,-6.63,-0.81,0.0,-0.05,-1.3,0.94,-5.19,-5.88,1022.31,1211.0,0.0,0.0,0.0,0.0
1776370424161166153,41831,0.004,0.0,0.0,1.1,0.08,-0.12,-2.0,-6.25,-0.88,-0.41,-0.2,-0.59,-2.19,-1.56,-2.88,1056.95,1211.0,0.0,0.0,0.0,0.0
1776370424263578688,41931,0.056,0.0,0.036,0.1,0.02,-0.04,-1.88,-6.06,-1.06,0.26,-0.07,-1.36,-1.31,-4.0,1.63,1076.85,1214.0,0.0,0.0,0.0,0.0
1776370424365987205,42032,0.04,0.1,0.0,0.9,-0.21,-0.06,-1.63,-5.5,-1.06,0.33,-0.18,-0.75,2.31,-8.81,5.0,1000.19,1214.0,0.0,0.0,0.0,0.0
1776370424464299115,42133,0.024,0.3,0.0,0.5,0.0,0.0,-0.75,-4.88,-0.81,0.58,0.06,-0.62,12.69,-8.81,10.94,961.77,869.0,0.0,0.0,0.0,0.0
1776370424562528246,42232,0.0,0.9,0.0,1.0,-0.06,0.06,0.31,-4.25,0.44,-0.76,-0.23,0.61,13.44,-5.38,15.13,967.26,1215.0,0.0,0.0,0.0,0.0
1776370424664960948,42333,0.016,0.0,0.004,0.6,-0.16,-0.14,1.94,-3.81,1.31,-1.91,0.04,0.76,4.13,-2.38,14.75,943.25,1215.0,0.0,0.0,0.0,0.0
1776370424767390039,42434,0.012,0.2,0.0,1.0,-0.04,-0.02,3.0,-3.69,1.44,-1.22,0.08,0.18,-5.81,-0.88,8.5,956.46,1082.0,0.0,0.0,0.0,0.0
1776370424865691727,42533,0.0,1.0,0.0,0.3,-0.1,-0.04,3.31,-3.13,1.31,-0.34,0.47,-1.38,1.56,-8.63,-5.25,991.1,844.0,0.0,0.0,0.0,0.0
1776370424968094169,42634,0.0,0.5,0.0,1.2,0.16,-0.12,2.31,-2.69,1.19,-1.18,0.25,-1.09,-5.0,0.81,-10.88,994.53,844.0,0.0,0.0,0.0,0.0
1776370425066385801,42734,0.0,0.3,0.0,0.9,-0.1,-0.06,1.5,-3.0,0.5,-0.03,-0.0,-1.02,-5.13,2.31,-6.88,972.06,1382.0,0.0,0.0,0.0,0.0
1776370425164683230,42833,0.004,0.1,0.0,1.0,-0.04,0.0,1.19,-3.31,0.56,0.43,0.16,-0.93,7.25,6.81,-2.56,641.58,1076.0,0.0,0.0,0.0,0.0
1776370425267087079,42933,0.052,0.2,0.0,1.3,-0.08,0.02,0.31,-4.19,1.06,0.26,0.16,-0.8,5.69,11.63,-17.56,600.94,1076.0,0.0,0.0,0.0,0.0
1776370425365415916,43034,0.04,0.3,0.032,0.3,0.02,-0.1,-2.13,-5.38,1.0,-0.32,-0.41,0.77,6.38,6.44,-26.37,626.15,1228.0,0.0,0.0,0.0,0.0
1776370425467797265,43134,0.032,0.1,0.0,0.9,0.02,0.08,-3.88,-5.63,2.5,-1.97,-0.08,-0.19,16.62,1.5,-11.0,907.58,896.0,0.0,0.0,0.0,0.0
1776370425566069360,43234,0.02,0.0,0.0,0.2,-0.16,-0.04,-4.31,-6.19,4.19,-1.87,-0.33,-0.15,4.88,6.56,-1.0,905.18,896.0,0.0,0.0,0.0,0.0
1776370425668457598,43334,0.0,0.6,0.0,1.0,-0.1,-0.06,-4.31,-6.69,5.0,-0.03,-0.25,-0.91,9.0,3.19,0.19,936.22,1083.0,0.0,0.0,0.0,0.0
1776370425766794898,43435,0.012,1.0,0.012,0.2,0.0,0.0,-4.25,-6.94,6.44,-0.66,-0.29,-1.09,15.44,1.44,1.63,888.88,1083.0,0.0,0.0,0.0,0.0
1776370425869186340,43535,0.0,1.0,0.0,0.2,-0.12,-0.16,-4.19,-6.69,7.25,-0.22,0.04,-0.32,3.13,-4.44,-0.5,905.18,957.0,0.0,0.0,0.0,0.0
1776370425969433005,43635,0.0,0.3,0.0,0.6,0.0,-0.1,-4.5,-6.63,6.94,0.98,0.56,-0.43,-6.31,3.13,-4.19,11941.2,1162.0,0.0,0.0,0.0,0.0
1776370426069893211,43736,0.004,0.2,0.0,0.1,-0.02,0.06,-4.19,-6.69,6.56,0.3,-0.61,-1.17,-2.31,-6.31,6.31,930.22,1162.0,0.0,0.0,0.0,0.0
1776370426168187324,43836,0.0,0.4,0.0,0.3,-0.04,0.04,-3.56,-4.88,6.56,0.77,0.32,-2.5,0.31,-16.25,6.06,871.05,852.0,0.0,0.0,0.0,0.0
1776370426270598396,43935,0.0,1.1,0.0,1.0,-0.23,0.02,-2.81,-4.19,7.06,-1.41,-0.72,-2.27,3.81,3.0,10.0,846.18,1168.0,0.0,0.0,0.0,0.0
1776370426368901418,44036,0.02,0.2,0.0,0.3,-0.1,-0.02,-1.63,-4.25,7.5,-1.26,0.31,-1.81,-10.06,0.63,10.75,782.9,1168.0,0.0,0.0,0.0,0.0
1776370426471281989,44136,0.0,0.5,0.0,1.2,-0.02,-0.08,-0.5,-4.44,7.31,0.04,0.26,-3.11,9.13,13.75,14.81,11940.34,948.0,0.0,0.0,0.0,0.0
1776370426569555177,44236,0.0,0.9,0.0,1.0,-0.14,-0.16,0.63,-4.63,8.19,0.0,0.89,-3.63,12.75,8.44,6.81,703.32,948.0,0.0,0.0,0.0,0.0
1776370426671977897,44337,0.012,0.1,0.0,0.2,-0.04,-0.14,0.69,-6.06,9.63,-0.35,0.5,-2.91,14.94,24.31,-7.06,602.14,791.0,0.0,0.0,0.0,0.0
1776370426772228043,44438,0.016,0.1,0.0,0.8,-0.02,-0.12,0.5,-7.06,10.81,-1.27,-0.48,-1.28,9.56,-0.5,3.25,11937.6,626.0,0.0,0.0,0.0,0.0
1776370426872700064,44538,0.004,0.3,0.0,0.6,0.02,0.08,0.69,-5.06,11.38,-2.31,-0.23,2.81,2.38,-25.87,-2.06,357.06,626.0,0.0,0.0,0.0,0.0
1776370426972979619,44638,0.0,0.2,0.0,0.7,0.02,-0.06,-0.44,-3.94,11.0,-1.35,0.33,2.88,-3.88,8.06,-15.0,11939.14,416.0,0.0,0.0,0.0,0.0
1776370427081381921,44738,0.0,0.3,0.0,1.1,0.04,-0.18,-1.37,-5.94,9.56,-0.11,-1.97,0.97,-14.0,22.0,-6.06,11937.43,278.0,0.0,0.0,0.0,0.0
1776370427179605034,44838,0.008,0.3,0.0,1.1,0.04,-0.08,-0.81,-5.56,7.56,0.63,1.34,0.51,-23.12,-11.88,10.19,11937.09,220.0,0.0,0.0,0.0,0.0
1776370427282158682,44938,0.056,0.4,0.048,0.4,0.04,0.06,-0.19,-5.25,6.31,-1.09,-0.18,0.51,-7.0,-4.94,2.63,11940.34,220.0,0.0,0.0,0.0,0.0
1776370427372408086,45038,0.0,0.5,0.0,0.9,0.16,-0.06,0.94,-4.38,4.38,0.28,-0.28,0.13,-31.62,6.81,11.5,11940.0,195.0,0.0,0.0,0.0,0.0
1776370427470720978,45138,0.024,0.3,0.004,0.9,0.06,-0.02,1.19,-4.5,2.69,-0.1,0.14,-0.18,-0.19,-7.38,-1.81,11937.09,198.0,0.0,0.0,0.0,0.0
1776370427573096420,45238,0.024,0.1,0.0,1.0,-0.06,-0.14,1.0,-4.31,2.38,-0.66,0.01,-0.72,-10.0,0.75,-3.0,181.1,198.0,0.0,0.0,0.0,0.0
1776370427671406701,45338,0.016,0.5,0.02,0.8,0.12,0.02,-0.12,-3.69,1.5,0.14,0.51,-0.46,-0.69,1.63,-0.94,220.38,198.0,0.0,0.0,0.0,0.0
1776370427769666888,45437,0.004,0.0,0.0,1.2,0.18,-0.12,-0.0,-2.63,1.06,-0.4,-0.11,-0.26,-0.81,0.19,0.06,207.34,196.0,0.0,0.0,0.0,0.0
1776370427872106775,45537,0.0,1.1,0.0,1.0,-0.04,-0.04,-0.0,-2.63,1.12,-0.33,0.07,-0.21,0.31,-0.19,-0.19,207.34,198.0,0.0,0.0,0.0,0.0
1776370427970410260,45637,0.004,0.3,0.0,1.1,0.0,-0.02,-0.0,-2.56,1.25,-0.22,0.06,-0.34,0.37,-0.06,-0.06,207.34,198.0,0.0,0.0,0.0,0.0
1776370428072826443,45736,0.004,0.3,0.0,0.2,-0.04,-0.12,0.06,-2.5,1.44,-0.21,0.07,-0.4,-0.12,0.06,-0.12,211.63,197.0,0.0,0.0,0.0,0.0
1776370428171108427,45837,0.012,-0.1,0.004,0.3,-0.06,-0.06,0.06,-2.5,1.5,-0.2,0.09,-0.36,-0.06,0.12,-0.06,207.34,198.0,0.0,0.0,0.0,0.0
1776370428269424374,45936,0.056,0.2,0.0,0.9,0.04,-0.14,0.06,-2.44,1.63,-0.19,0.09,-0.34,-0.06,0.25,0.06,207.34,198.0,0.0,0.0,0.0,0.0
1776370428371825687,46035,0.0,0.4,0.036,1.1,-0.04,-0.21,0.06,-2.44,1.69,-0.19,0.07,-0.37,-0.12,0.06,-0.06,206.14,200.0,0.0,0.0,0.0,0.0
1776370428470062022,46136,0.032,0.8,0.04,0.4,-0.08,-0.16,0.06,-2.44,1.81,-0.17,0.06,-0.33,-0.0,-0.06,0.0,207.34,196.0,0.0,0.0,0.0,0.0
1776370428572481964,46236,0.016,0.1,0.0,0.3,-0.06,0.06,0.06,-2.38,1.88,-0.17,0.04,-0.36,-0.12,-0.06,0.06,207.34,196.0,0.0,0.0,0.0,0.0
1776370428670807652,46336,0.0,0.3,0.0,0.3,-0.06,-0.27,0.06,-2.38,1.94,-0.13,0.05,-0.35,-0.12,0.06,-0.06,207.34,194.0,0.0,0.0,0.0,0.0
1776370428773219187,46436,0.0,0.4,0.0,0.6,-0.04,-0.04,0.06,-2.38,1.94,-0.12,0.06,-0.36,-0.0,-0.06,0.12,207.34,194.0,0.0,0.0,0.0,0.0
1776370428871519542,46537,0.0,0.5,0.016,0.3,-0.16,-0.04,0.06,-2.38,2.0,-0.12,0.07,-0.37,0.06,0.12,-0.06,207.17,198.0,0.0,0.0,0.0,0.0
1776370428973918799,46638,0.0,0.0,0.004,1.1,-0.29,0.08,0.06,-2.31,2.06,-0.13,0.06,-0.36,0.06,0.06,-0.06,207.34,197.0,0.0,0.0,0.0,0.0
1776370429072202820,46738,0.008,0.1,0.0,0.2,-0.04,-0.1,0.06,-2.31,2.06,-0.12,0.05,-0.33,-0.0,0.12,0.06,211.46,197.0,0.0,0.0,0.0,0.0
1776370429174609373,46838,0.0,0.7,0.0,0.1,0.02,0.06,0.06,-2.31,2.13,-0.09,0.04,-0.35,0.06,-0.0,0.06,207.34,200.0,0.0,0.0,0.0,0.0
1776370429272879135,46939,0.0,0.3,0.052,0.4,0.08,-0.1,0.06,-2.31,2.13,-0.11,0.05,-0.35,-0.06,0.06,-0.06,211.46,199.0,0.0,0.0,0.0,0.0
1776370429375324651,47039,0.04,0.1,0.0,0.9,0.0,-0.18,0.06,-2.31,2.19,-0.1,0.05,-0.34,0.12,-0.0,-0.06,206.31,199.0,0.0,0.0,0.0,0.0
1776370429473571005,47138,0.0,0.6,0.032,0.5,-0.12,-0.12,0.06,-2.31,2.19,-0.09,0.04,-0.34,0.06,-0.0,0.0,207.34,196.0,0.0,0.0,0.0,0.0
1776370429576003837,47239,0.0,0.2,0.0,0.9,-0.06,-0.12,0.06,-2.31,2.19,-0.08,0.05,-0.37,-0.06,0.12,0.06,207.17,199.0,0.0,0.0,0.0,0.0
1776370429674312117,47339,0.012,0.3,0.0,1.1,-0.04,-0.04,0.06,-2.31,2.19,-0.09,0.05,-0.36,0.12,-0.25,-0.06,207.17,199.0,0.0,0.0,0.0,0.0
1776370429772610527,47438,0.004,0.3,0.0,1.0,-0.04,-0.14,0.06,-2.31,2.19,-0.08,0.04,-0.32,-0.0,-0.06,-0.06,211.46,197.0,0.0,0.0,0.0,0.0
1776370429875018007,47538,0.012,0.1,0.0,0.3,0.12,-0.14,0.06,-2.31,2.19,-0.08,0.04,-0.33,0.12,0.12,0.06,207.34,197.0,0.0,0.0,0.0,0.0
1776370429973343732,47638,0.0,0.6,0.0,1.1,-0.06,-0.02,0.06,-2.31,2.19,-0.1,0.05,-0.35,-0.0,0.06,0.0,206.31,200.0,0.0,0.0,0.0,0.0
1776370430075720285,47738,0.0,-0.2,0.0,0.3,-0.16,-0.16,0.06,-2.31,2.19,-0.08,0.05,-0.35,-0.0,-0.0,0.0,207.17,197.0,0.0,0.0,0.0,0.0
1776370430174025010,47838,0.0,0.6,0.016,0.3,-0.06,-0.12,0.06,-2.31,2.19,-0.09,0.06,-0.37,0.06,-0.0,-0.06,207.34,197.0,0.0,0.0,0.0,0.0
1776370430272392032,47938,0.0,0.6,0.056,0.3,0.08,-0.04,0.06,-2.31,2.19,-0.1,0.04,-0.36,-0.0,-0.06,-0.06,207.34,202.0,0.0,0.0,0.0,0.0
1776370430374729029,48037,0.0,0.3,0.0,0.9,-0.08,-0.1,0.06,-2.31,2.19,-0.11,0.05,-0.35,-0.06,-0.12,0.0,206.31,199.0,0.0,0.0,0.0,0.0
1776370430472936752,48138,0.0,0.2,0.032,0.3,-0.04,-0.06,0.06,-2.31,2.19,-0.06,0.05,-0.35,0.06,0.06,0.0,207.34,199.0,0.0,0.0,0.0,0.0
1776370430575405584,48239,0.0,0.5,0.0,1.3,-0.21,-0.2,0.06,-2.31,2.19,-0.11,0.04,-0.35,-0.0,-0.0,0.12,207.34,197.0,0.0,0.0,0.0,0.0
1776370430673715624,48338,0.0,0.3,0.0,0.9,-0.04,0.0,0.06,-2.31,2.19,-0.09,0.05,-0.33,-0.06,-0.19,0.06,206.31,199.0,0.0,0.0,0.0,0.0
1776370430776117585,48439,0.0,0.4,0.004,0.3,0.04,0.02,0.06,-2.31,2.19,-0.08,0.02,-0.33,-0.19,-0.12,0.0,207.34,199.0,0.0,0.0,0.0,0.0
1776370430874381957,48540,0.008,0.3,0.0,1.0,0.02,0.06,0.06,-2.31,2.19,-0.11,0.06,-0.33,-0.0,-0.0,0.06,207.34,194.0,0.0,0.0,0.0,0.0
1776370430976820733,48640,0.004,0.2,0.0,0.7,-0.08,-0.02,0.06,-2.31,2.19,-0.09,0.05,-0.34,-0.06,0.06,0.12,207.34,194.0,0.0,0.0,0.0,0.0
1776370431075129681,48740,0.0,0.0,0.0,1.0,-0.04,-0.16,0.06,-2.31,2.19,-0.08,0.03,-0.33,-0.06,-0.06,0.06,206.14,200.0,0.0,0.0,0.0,0.0
1776370431177539753,48840,0.0,0.9,0.0,0.4,0.02,0.06,0.06,-2.31,2.19,-0.08,0.05,-0.35,-0.06,0.06,0.0,207.34,200.0,0.0,0.0,0.0,0.0
1776370431279933861,48941,0.056,0.3,0.0,0.8,0.04,-0.04,0.06,-2.31,2.19,-0.09,0.06,-0.35,0.06,-0.06,0.06,207.34,200.0,0.0,0.0,0.0,0.0
1776370431378233327,49042,0.04,0.3,0.0,0.6,0.06,-0.1,0.06,-2.31,2.19,-0.09,0.05,-0.35,0.06,-0.0,0.0,207.34,197.0,0.0,0.0,0.0,0.0
1776370431476547163,49141,0.028,0.0,0.0,1.0,-0.02,-0.04,0.06,-2.31,2.19,-0.08,0.05,-0.34,-0.0,-0.0,0.12,207.34,195.0,0.0,0.0,0.0,0.0
1776370431578911364,49241,0.02,0.2,0.0,0.6,-0.1,-0.06,0.06,-2.31,2.19,-0.09,0.05,-0.34,0.06,-0.0,-0.06,207.34,195.0,0.0,0.0,0.0,0.0
1776370431677197218,49342,0.016,0.3,0.0,0.7,0.08,-0.1,0.06,-2.31,2.19,-0.1,0.02,-0.32,0.06,-0.0,0.06,206.31,195.0,0.0,0.0,0.0,0.0
1776370431779636661,49442,0.016,0.3,0.0,0.7,-0.08,-0.08,0.06,-2.31,2.19,-0.1,0.04,-0.35,0.12,-0.06,0.0,207.34,198.0,0.0,0.0,0.0,0.0
1776370431877907830,49542,0.008,0.5,0.0,1.1,-0.06,-0.14,0.06,-2.31,2.19,-0.09,0.05,-0.33,-0.0,-0.06,0.0,207.34,198.0,0.0,0.0,0.0,0.0
1776370431980331587,49643,0.004,0.4,0.0,1.0,-0.04,0.04,0.06,-2.31,2.19,-0.09,0.04,-0.36,-0.0,-0.0,0.06,206.31,199.0,0.0,0.0,0.0,0.0
1776370432078685961,49743,0.0,0.3,0.0,0.8,0.0,-0.08,0.06,-2.31,2.19,-0.09,0.04,-0.35,-0.0,0.06,0.0,207.34,201.0,0.0,0.0,0.0,0.0
1776370432181031254,49843,0.0,0.8,0.024,0.2,0.06,-0.08,0.06,-2.31,2.19,-0.11,0.04,-0.35,-0.0,-0.12,0.0,207.17,201.0,0.0,0.0,0.0,0.0
1776370432279324757,49944,0.056,0.5,0.0,0.2,0.04,-0.06,0.06,-2.31,2.19,-0.08,0.04,-0.36,0.06,0.12,0.0,207.34,197.0,0.0,0.0,0.0,0.0
1776370432381730292,50043,0.0,0.2,0.0,1.0,-0.1,0.0,0.06,-2.31,2.19,-0.08,0.04,-0.34,-0.0,-0.0,-0.06,203.06,197.0,0.0,0.0,0.0,0.0
1776370432484082640,50144,0.0,0.5,0.032,0.8,-0.06,-0.1,0.06,-2.31,2.19,-0.08,0.05,-0.34,0.12,-0.0,-0.06,203.06,196.0,0.0,0.0,0.0,0.0
1776370432582388162,50244,0.02,0.3,0.0,0.8,0.0,0.06,0.06,-2.31,2.19,-0.09,0.05,-0.35,0.06,-0.0,0.0,202.03,196.0,0.0,0.0,0.0,0.0
1776370432680779944,50344,0.016,0.2,0.0,0.8,-0.14,-0.02,0.06,-2.31,2.19,-0.12,0.05,-0.35,0.06,-0.06,0.0,206.31,196.0,0.0,0.0,0.0,0.0
1776370432783122792,50445,0.016,0.0,0.0,1.1,-0.04,-0.08,0.06,-2.31,2.19,-0.1,0.05,-0.35,-0.0,0.12,0.06,207.34,196.0,0.0,0.0,0.0,0.0
1776370432881441518,50544,0.016,0.3,0.0,1.2,-0.06,0.02,0.06,-2.31,2.19,-0.09,0.04,-0.36,0.06,-0.06,0.0,203.23,192.0,0.0,0.0,0.0,0.0
1776370432979722483,50643,0.0,0.2,0.0,1.1,-0.12,-0.06,0.06,-2.31,2.19,-0.08,0.04,-0.34,0.06,-0.19,0.12,220.38,192.0,0.0,0.0,0.0,0.0
1776370433082123481,50743,0.0,0.3,0.0,0.8,0.06,-0.04,0.06,-2.31,2.19,-0.09,0.06,-0.35,-0.06,-0.0,0.06,203.06,200.0,0.0,0.0,0.0,0.0
1776370433180425150,50843,0.02,0.0,0.024,0.6,-0.04,-0.16,0.06,-2.31,2.19,-0.08,0.03,-0.35,-0.25,0.06,0.06,207.34,200.0,0.0,0.0,0.0,0.0
1776370433282880056,50944,0.052,0.2,0.0,1.2,-0.1,-0.04,0.06,-2.31,2.19,-0.09,0.04,-0.35,0.19,-0.0,-0.12,203.06,195.0,0.0,0.0,0.0,0.0
1776370433381138910,51044,0.04,0.5,0.04,1.1,0.04,-0.12,0.06,-2.31,2.19,-0.1,0.04,-0.33,-0.0,-0.06,0.0,203.06,200.0,0.0,0.0,0.0,0.0
1776370433479425857,51143,0.032,0.3,0.0,1.2,-0.06,-0.12,0.06,-2.31,2.19,-0.09,0.04,-0.33,-0.06,-0.0,0.06,203.23,200.0,0.0,0.0,0.0,0.0
1776370433581794576,51243,0.016,0.1,0.0,1.1,-0.1,-0.02,0.06,-2.31,2.19,-0.09,0.04,-0.37,-0.12,0.12,0.0,203.06,200.0,0.0,0.0,0.0,0.0
1776370433684224222,51344,0.0,0.2,0.0,0.9,-0.06,-0.23,0.06,-2.31,2.19,-0.08,0.04,-0.36,-0.0,0.06,0.06,202.03,198.0,0.0,0.0,0.0,0.0
1776370433782529207,51444,0.008,0.4,0.0,0.9,0.08,-0.06,0.06,-2.31,2.19,-0.1,0.06,-0.35,-0.0,0.06,0.06,207.17,198.0,0.0,0.0,0.0,0.0
1776370433884974075,51544,0.0,0.2,0.004,0.9,-0.06,-0.02,0.06,-2.31,2.19,-0.09,0.03,-0.34,0.06,-0.12,0.0,203.23,198.0,0.0,0.0,0.0,0.0
1776370433983242429,51645,0.004,0.3,0.0,0.5,0.04,-0.04,0.06,-2.31,2.19,-0.08,0.03,-0.35,-0.0,-0.06,0.0,203.06,203.0,0.0,0.0,0.0,0.0
1776370434081530802,51745,0.004,0.3,0.0,0.5,-0.14,0.04,0.06,-2.31,2.19,-0.08,0.04,-0.36,-0.12,-0.12,0.0,203.06,203.0,0.0,0.0,0.0,0.0
1776370434183918689,51845,0.024,0.2,0.0,0.3,-0.1,-0.04,0.06,-2.31,2.19,-0.09,0.04,-0.33,0.06,0.06,0.0,206.14,196.0,0.0,0.0,0.0,0.0
1776370434292276601,51946,0.056,-0.1,0.0,1.0,-0.04,0.0,0.06,-2.31,2.19,-0.07,0.05,-0.34,-0.0,-0.06,-0.12,203.06,201.0,0.0,0.0,0.0,0.0
1776370434384660004,52045,0.04,0.2,0.0,0.6,-0.06,-0.08,0.06,-2.31,2.19,-0.1,0.06,-0.36,0.06,-0.06,0.0,202.03,201.0,0.0,0.0,0.0,0.0
1776370434482891173,52145,0.028,0.1,0.0,1.1,-0.1,-0.02,0.06,-2.31,2.19,-0.1,0.05,-0.34,-0.06,-0.0,-0.06,203.06,196.0,0.0,0.0,0.0,0.0
1776370434585305022,52245,0.02,0.3,0.016,0.9,-0.06,0.02,0.06,-2.31,2.19,-0.11,0.04,-0.35,0.06,0.06,0.0,203.23,196.0,0.0,0.0,0.0,0.0
1776370434683639655,52345,0.0,0.5,0.0,0.3,0.0,-0.21,0.06,-2.31,2.19,-0.11,0.05,-0.38,0.12,-0.0,-0.06,203.23,196.0,0.0,0.0,0.0,0.0
1776370434786018486,52446,0.0,0.3,0.0,1.2,-0.08,-0.06,0.06,-2.31,2.19,-0.07,0.03,-0.34,-0.0,-0.0,0.0,207.34,202.0,0.0,0.0,0.0,0.0
1776370434884344989,52546,0.0,0.9,0.0,1.0,-0.08,0.02,0.06,-2.31,2.19,-0.11,0.03,-0.36,-0.0,0.19,0.12,203.23,202.0,0.0,0.0,0.0,0.0
1776370434986735301,52646,0.0,0.0,0.0,1.1,-0.04,-0.06,0.06,-2.31,2.19,-0.1,0.05,-0.38,-0.0,-0.06,-0.06,203.23,194.0,0.0,0.0,0.0,0.0
1776370435085006433,52747,0.004,0.3,0.0,0.9,0.06,-0.06,0.06,-2.31,2.19,-0.11,0.04,-0.35,-0.0,0.06,0.06,203.23,195.0,0.0,0.0,0.0,0.0
1776370435187435746,52847,0.02,0.4,0.0,0.9,0.0,-0.06,0.06,-2.31,2.19,-0.08,0.05,-0.35,0.06,-0.19,0.06,203.06,195.0,0.0,0.0,0.0,0.0
1776370435285734601,52947,0.052,0.0,0.0,1.1,-0.06,-0.27,0.06,-2.31,2.19,-0.1,0.03,-0.36,0.06,0.12,0.0,203.23,197.0,0.0,0.0,0.0,0.0
1776370435388121635,53048,0.044,0.3,0.0,0.6,0.08,-0.16,0.06,-2.31,2.19,-0.1,0.04,-0.35,-0.06,-0.06,0.0,203.23,195.0,0.0,0.0,0.0,0.0
1776370435486385174,53149,0.028,0.3,0.0,0.7,-0.06,-0.02,0.06,-2.31,2.19,-0.09,0.04,-0.35,0.12,-0.0,0.0,202.03,195.0,0.0,0.0,0.0,0.0
1776370435588835062,53249,0.024,0.5,0.0,0.5,0.14,-0.02,0.06,-2.31,2.19,-0.08,0.04,-0.34,-0.0,0.06,0.12,203.06,201.0,0.0,0.0,0.0,0.0
1776370435691315672,53350,0.0,0.5,0.0,0.9,-0.16,-0.06,0.06,-2.31,2.19,-0.07,0.03,-0.35,-0.06,-0.12,0.0,203.23,201.0,0.0,0.0,0.0,0.0
1776370435789545488,53451,0.0,0.1,0.0,1.1,0.02,-0.06,0.06,-2.31,2.19,-0.08,0.05,-0.33,-0.06,-0.06,-0.06,203.23,198.0,0.0,0.0,0.0,0.0
1776370435891942615,53551,0.0,0.3,0.0,1.0,0.14,-0.02,0.06,-2.31,2.19,-0.1,0.03,-0.35,0.06,-0.19,0.0,203.06,199.0,0.0,0.0,0.0,0.0
1776370435990220932,53651,0.008,0.7,0.0,0.5,0.02,-0.06,0.06,-2.31,2.19,-0.09,0.03,-0.32,-0.06,0.12,-0.06,203.06,199.0,0.0,0.0,0.0,0.0
1776370436092642078,53751,0.0,0.7,0.0,1.0,0.06,-0.14,0.06,-2.31,2.19,-0.07,0.03,-0.35,-0.06,-0.0,0.06,203.06,197.0,0.0,0.0,0.0,0.0
1776370436190942415,53851,0.032,0.6,0.0,1.3,-0.04,-0.12,0.06,-2.31,2.19,-0.11,0.04,-0.35,0.06,0.06,0.0,203.23,198.0,0.0,0.0,0.0,0.0
1776370436289243010,53951,0.052,0.3,0.0,0.7,-0.12,-0.08,0.06,-2.31,2.19,-0.09,0.05,-0.37,-0.0,0.06,0.0,203.23,198.0,0.0,0.0,0.0,0.0
1776370436391604266,54050,0.0,0.9,0.04,0.3,0.06,-0.06,0.06,-2.31,2.19,-0.09,0.05,-0.36,-0.0,-0.0,0.0,203.06,197.0,0.0,0.0,0.0,0.0
1776370436493989041,54151,0.02,0.2,0.0,0.9,-0.02,0.0,0.06,-2.31,2.19,-0.1,0.04,-0.39,0.06,-0.0,-0.06,203.06,197.0,0.0,0.0,0.0,0.0
1776370436592301026,54252,0.0,0.4,0.012,0.5,0.04,0.1,0.06,-2.31,2.19,-0.09,0.06,-0.35,-0.0,0.06,0.0,203.06,197.0,0.0,0.0,0.0,0.0
1776370436690633399,54351,0.012,0.9,0.02,0.2,-0.06,-0.08,0.06,-2.31,2.19,-0.08,0.04,-0.34,0.19,-0.12,0.0,203.23,201.0,0.0,0.0,0.0,0.0
1776370436793046767,54452,0.008,0.3,0.0,1.2,-0.1,-0.04,0.06,-2.31,2.19,-0.09,0.05,-0.34,-0.12,-0.0,-0.06,203.23,194.0,0.0,0.0,0.0,0.0
1776370436891340418,54552,0.0,0.4,0.0,0.9,-0.06,-0.04,0.06,-2.31,2.19,-0.06,0.05,-0.33,-0.0,0.12,0.0,203.06,194.0,0.0,0.0,0.0,0.0
1776370436993741786,54651,0.008,0.3,0.004,0.3,-0.14,0.0,0.06,-2.31,2.19,-0.1,0.04,-0.34,-0.0,-0.0,0.0,202.2,201.0,0.0,0.0,0.0,0.0
1776370437092051400,54752,0.0,0.4,0.0,0.4,-0.02,-0.02,0.06,-2.31,2.19,-0.08,0.06,-0.37,-0.0,-0.06,0.0,207.34,201.0,0.0,0.0,0.0,0.0
1776370437190308236,54852,0.0,0.1,0.036,0.3,-0.08,-0.06,0.06,-2.31,2.19,-0.11,0.04,-0.36,-0.06,-0.0,-0.06,203.23,202.0,0.0,0.0,0.0,0.0
1776370437292740845,54951,0.0,0.4,0.0,1.0,0.12,-0.08,0.06,-2.31,2.19,-0.1,0.05,-0.36,-0.06,0.12,0.06,207.34,197.0,0.0,0.0,0.0,0.0
1776370437395133527,55052,0.04,0.1,0.036,0.3,0.06,0.06,0.06,-2.31,2.19,-0.1,0.04,-0.34,-0.0,0.12,0.0,203.06,197.0,0.0,0.0,0.0,0.0
1776370437493473994,55152,0.0,0.3,0.02,0.5,0.1,0.0,0.06,-2.31,2.19,-0.1,0.06,-0.34,0.06,0.19,0.19,203.06,198.0,0.0,0.0,0.0,0.0
1776370437591738033,55251,0.016,0.0,0.0,1.2,-0.02,-0.08,0.06,-2.31,2.19,-0.1,0.04,-0.34,-0.0,0.06,0.06,207.34,198.0,0.0,0.0,0.0,0.0
1776370437694133512,55352,0.012,0.1,0.0,0.3,0.08,-0.14,0.06,-2.31,2.19,-0.09,0.05,-0.34,0.12,-0.19,0.0,203.23,198.0,0.0,0.0,0.0,0.0
1776370437845429794,55452,0.0,0.7,0.012,0.4,0.06,-0.04,0.06,-2.31,2.19,-0.09,0.05,-0.35,-0.06,-0.12,0.06,203.06,195.0,0.0,0.0,0.0,0.0
1776370437894855920,55553,0.004,0.0,0.0,0.3,0.04,-0.14,0.06,-2.31,2.19,-0.1,0.06,-0.37,0.06,-0.06,0.06,203.06,195.0,0.0,0.0,0.0,0.0
1776370437993124700,55653,0.0,0.5,0.0,1.1,0.06,-0.16,0.06,-2.31,2.19,-0.1,0.05,-0.35,0.06,-0.06,0.0,203.06,197.0,0.0,0.0,0.0,0.0
1776370438095544883,55752,0.0,0.2,0.0,0.8,-0.04,0.02,0.06,-2.31,2.19,-0.1,0.04,-0.34,-0.0,-0.19,0.0,202.03,196.0,0.0,0.0,0.0,0.0
1776370438193840941,55853,0.032,0.1,0.0,0.7,-0.02,-0.04,0.06,-2.31,2.19,-0.09,0.03,-0.35,0.19,-0.12,0.06,203.06,196.0,0.0,0.0,0.0,0.0
1776370438296249847,55954,0.052,0.1,0.0,0.9,0.12,-0.06,0.06,-2.31,2.19,-0.09,0.05,-0.34,-0.0,-0.19,0.0,203.06,198.0,0.0,0.0,0.0,0.0
1776370438394556960,56053,0.036,0.1,0.0,0.9,0.04,-0.12,0.06,-2.31,2.19,-0.1,0.05,-0.36,0.06,-0.0,0.0,202.03,196.0,0.0,0.0,0.0,0.0
1776370438496919772,56154,0.0,0.6,0.0,1.2,-0.04,-0.18,0.06,-2.31,2.19,-0.1,0.05,-0.34,-0.0,-0.12,-0.06,203.06,196.0,0.0,0.0,0.0,0.0
1776370438595213219,56255,0.024,0.2,0.0,1.1,0.06,-0.1,0.06,-2.31,2.19,-0.1,0.03,-0.33,0.19,-0.06,0.0,203.06,202.0,0.0,0.0,0.0,0.0
1776370438693493537,56354,0.008,1.1,0.016,1.1,0.0,-0.04,0.06,-2.31,2.19,-0.1,0.04,-0.32,-0.06,-0.0,0.0,203.06,199.0,0.0,0.0,0.0,0.0
1776370438795947239,56454,0.012,0.0,0.0,0.3,0.04,0.02,0.06,-2.31,2.19,-0.12,0.04,-0.34,0.06,0.06,0.06,203.06,199.0,0.0,0.0,0.0,0.0
1776370438894221908,56554,0.0,0.2,0.0,0.9,-0.04,0.0,0.06,-2.31,2.19,-0.08,0.05,-0.35,0.19,-0.12,0.06,206.31,196.0,0.0,0.0,0.0,0.0
