timestamp_ns,time_ms,voltage_left,current_left_ma,voltage_right,current_right_ma,motor_current_left,motor_current_right,euler_x,euler_y,euler_z,acc_lin_x,acc_lin_y,acc_lin_z,gyro_x,gyro_y,gyro_z,sonar_mm,tof_mm,rpm_left,rpm_right,rotations_left,rotations_right
1775763516605428680,1915,0.0,0.8,0.024,0.4,0.1,-0.14,0.06,-1.0,1.63,-0.01,-0.0,-0.37,-0.12,-0.0,-0.06,11969.84,199.0,0.0,0.0,0.0,0.0
1775763516703729643,2015,0.0,1.3,0.012,0.3,0.06,-0.02,0.06,-1.0,1.63,0.0,-0.0,-0.36,0.06,-0.0,-0.06,11971.56,195.0,0.0,0.0,0.0,0.0
1775763516806126625,2115,0.0,1.4,0.012,0.3,0.0,-0.02,0.06,-1.0,1.63,-0.02,-0.0,-0.39,0.06,0.19,0.0,11970.19,198.0,0.0,0.0,0.0,0.0
1775763516904507884,2215,0.0,1.2,0.008,0.5,-0.12,-0.02,0.06,-1.0,1.63,0.0,-0.0,-0.35,-0.06,-0.12,0.12,11968.64,198.0,0.0,0.0,0.0,0.0
1775763517012772328,2315,0.0,1.2,0.0,0.5,0.02,-0.12,0.06,-1.0,1.63,-0.01,-0.0,-0.38,0.12,0.06,-0.06,11967.78,201.0,0.0,0.0,0.0,0.0
1775763517105136198,2415,0.0,1.3,0.0,0.5,-0.08,-0.12,0.06,-1.0,1.63,-0.01,-0.0,-0.39,0.06,0.06,0.0,11966.41,189.0,0.0,0.0,0.0,0.0
1775763517205684347,2515,0.0,1.3,0.064,0.3,0.02,-0.21,0.06,-1.0,1.63,0.0,-0.0,-0.38,0.12,-0.0,0.0,11966.41,189.0,0.0,0.0,0.0,0.0
1775763517304031439,2615,0.0,1.2,0.048,0.2,0.02,-0.16,0.06,-1.0,1.63,0.0,0.01,-0.38,-0.06,0.06,0.0,11964.01,195.0,0.0,0.0,0.0,0.0
1775763517404084846,2715,0.0,1.5,0.036,0.7,0.1,-0.1,0.06,-1.0,1.63,-0.02,-0.0,-0.38,0.12,-0.06,0.06,11966.75,195.0,0.0,0.0,0.0,0.0
1775763517506614309,2816,0.0,1.1,0.036,0.3,-0.04,-0.2,0.06,-1.0,1.63,0.0,0.02,-0.37,-0.0,-0.12,0.0,11965.73,195.0,0.0,0.0,0.0,0.0
1775763517614894217,2916,0.0,1.4,0.008,0.1,0.02,-0.08,0.06,-1.0,1.63,0.0,-0.0,-0.38,-0.0,0.06,0.0,11965.9,198.0,0.0,0.0,0.0,0.0
1775763517707303624,3016,0.0,1.4,0.016,0.3,0.02,-0.12,0.06,-1.0,1.63,0.0,-0.0,-0.4,-0.19,-0.06,-0.06,11968.47,198.0,0.0,0.0,0.0,0.0
1775763517815584031,3117,0.0,1.4,0.012,0.5,0.06,-0.25,0.06,-1.0,1.63,0.0,-0.0,-0.39,-0.12,0.12,-0.06,11970.87,198.0,0.0,0.0,0.0,0.0
1775763517907913791,3217,0.0,1.4,0.012,0.2,-0.06,-0.1,0.06,-1.0,1.63,0.0,-0.0,-0.36,-0.06,0.06,0.12,11968.98,202.0,0.0,0.0,0.0,0.0
1775763518016362050,3317,0.0,1.3,0.0,0.5,-0.12,-0.18,0.06,-1.0,1.63,0.0,-0.0,-0.36,0.12,0.06,0.06,11970.7,202.0,0.0,0.0,0.0,0.0
1775763518108626994,3418,0.0,1.4,0.004,0.3,0.0,-0.16,0.06,-1.0,1.63,0.0,0.01,-0.43,0.06,-0.0,0.0,11970.36,195.0,0.0,0.0,0.0,0.0
1775763518205102920,3518,0.0,1.6,0.056,0.5,0.08,-0.04,0.06,-1.0,1.63,0.0,0.02,-0.38,-0.06,-0.0,0.0,11969.16,197.0,0.0,0.0,0.0,0.0
1775763518309385290,3618,0.0,1.1,0.048,0.3,0.02,-0.04,0.06,-1.0,1.63,0.0,-0.0,-0.39,-0.06,-0.12,0.06,11970.19,197.0,0.0,0.0,0.0,0.0
1775763518417680550,3719,0.0,1.3,0.032,0.1,0.02,-0.25,0.06,-1.0,1.63,0.0,-0.0,-0.36,-0.06,0.06,-0.12,11970.19,197.0,0.0,0.0,0.0,0.0
1775763518510014253,3819,0.0,1.4,0.036,0.4,-0.1,0.0,0.06,-1.0,1.63,0.0,0.01,-0.38,-0.06,0.12,-0.12,11970.87,194.0,0.0,0.0,0.0,0.0
1775763518608387475,3919,0.0,1.5,0.02,0.6,-0.04,-0.04,0.06,-1.0,1.63,0.01,-0.01,-0.39,-0.12,0.19,-0.06,11970.53,194.0,0.0,0.0,0.0,0.0
1775763518716673309,4018,0.0,1.1,0.02,0.3,-0.06,-0.12,0.06,-1.0,1.63,0.01,-0.0,-0.39,-0.06,0.12,0.12,11967.27,195.0,0.0,0.0,0.0,0.0
1775763518809100031,4118,0.0,1.4,0.012,0.3,-0.04,-0.08,0.06,-1.0,1.63,-0.01,0.01,-0.36,-0.0,-0.06,-0.06,11968.3,195.0,0.0,0.0,0.0,0.0
1775763518907320920,4217,0.0,1.3,0.004,0.3,0.06,-0.18,0.06,-1.0,1.63,0.0,-0.0,-0.37,0.06,-0.19,0.0,11970.19,198.0,0.0,0.0,0.0,0.0
1775763519015699086,4317,0.0,1.4,0.008,0.5,-0.14,-0.12,0.06,-1.0,1.63,0.0,0.02,-0.37,-0.06,-0.0,0.0,11970.19,198.0,0.0,0.0,0.0,0.0
1775763519108089697,4417,0.0,1.5,0.0,1.3,-0.12,-0.1,0.06,-1.0,1.63,0.0,-0.0,-0.37,-0.06,-0.0,0.0,11970.7,198.0,0.0,0.0,0.0,0.0
1775763519208578271,4517,0.0,1.0,0.06,0.3,0.12,-0.27,0.06,-1.0,1.63,0.0,-0.0,-0.38,-0.19,-0.06,0.06,11971.9,195.0,0.0,0.0,0.0,0.0
1775763519306820642,4617,0.0,0.8,0.06,0.3,-0.02,-0.08,0.06,-1.0,1.63,0.0,-0.01,-0.36,-0.06,0.12,0.12,11966.07,195.0,0.0,0.0,0.0,0.0
1775763519407030382,4717,0.0,1.0,0.036,0.5,-0.06,-0.14,0.06,-1.0,1.63,0.02,-0.0,-0.39,-0.0,-0.12,0.06,11966.41,195.0,0.0,0.0,0.0,0.0
1775763519515369364,4817,0.0,1.1,0.028,0.2,0.04,-0.18,0.06,-1.0,1.63,-0.01,0.01,-0.38,0.19,-0.12,0.0,11965.73,201.0,0.0,0.0,0.0,0.0
1775763519607809623,4917,0.0,1.0,0.016,0.3,-0.06,-0.16,0.06,-1.0,1.63,0.0,-0.0,-0.35,0.12,-0.12,-0.12,11966.58,201.0,0.0,0.0,0.0,0.0
1775763519716071771,5017,0.0,1.0,0.024,0.2,0.04,-0.14,0.06,-1.0,1.63,0.01,0.02,-0.38,0.06,-0.0,0.0,11967.27,194.0,0.0,0.0,0.0,0.0
1775763519808393715,5117,0.0,0.9,0.02,0.3,0.0,-0.25,0.06,-1.0,1.63,0.0,-0.0,-0.38,-0.0,0.12,-0.06,11965.55,195.0,0.0,0.0,0.0,0.0
1775763519906822900,5217,0.0,0.9,0.004,0.3,0.1,-0.14,0.06,-1.0,1.63,0.01,0.01,-0.39,-0.0,0.06,0.06,11966.75,195.0,0.0,0.0,0.0,0.0
1775763520015071382,5317,0.0,1.0,0.012,0.0,0.04,0.04,0.06,-1.0,1.63,0.0,-0.0,-0.35,0.06,-0.12,0.0,11968.3,197.0,0.0,0.0,0.0,0.0
1775763520107388530,5417,0.0,1.0,0.004,0.5,0.02,-0.23,0.06,-1.0,1.63,0.01,0.01,-0.38,0.06,-0.0,0.0,11965.55,194.0,0.0,0.0,0.0,0.0
1775763520207907974,5517,0.0,1.0,0.064,0.2,0.04,-0.14,0.06,-1.0,1.63,0.01,-0.01,-0.36,-0.12,-0.0,0.0,11966.24,194.0,0.0,0.0,0.0,0.0
1775763520312206567,5617,0.0,0.7,0.056,0.5,0.0,-0.02,0.06,-1.0,1.63,0.02,-0.0,-0.4,-0.06,0.06,0.06,11968.3,196.0,0.0,0.0,0.0,0.0
1775763520416453956,5718,0.0,0.9,0.032,0.4,0.06,-0.06,0.06,-1.0,1.63,-0.01,-0.0,-0.37,0.12,-0.06,0.06,11965.9,196.0,0.0,0.0,0.0,0.0
1775763520508868493,5818,0.0,1.1,0.036,0.3,0.08,-0.1,0.06,-1.0,1.63,0.0,-0.0,-0.38,0.12,-0.0,0.0,11968.64,196.0,0.0,0.0,0.0,0.0
1775763520617157270,5918,0.0,0.8,0.024,0.3,-0.06,-0.12,0.06,-1.0,1.63,0.01,-0.0,-0.37,-0.0,-0.06,0.12,11968.98,193.0,0.0,0.0,0.0,0.0
1775763520719563344,6019,0.0,0.8,0.012,0.3,-0.08,-0.1,0.06,-1.0,1.63,0.0,-0.0,-0.36,-0.06,0.06,0.06,11968.81,197.0,0.0,0.0,0.0,0.0
1775763520817809381,6119,0.0,1.0,0.012,0.2,0.0,-0.16,0.06,-1.0,1.63,0.0,-0.0,-0.36,-0.19,0.06,0.0,11970.01,197.0,0.0,0.0,0.0,0.0
1775763520910178215,6219,0.0,0.9,0.016,0.2,0.04,-0.06,0.06,-1.0,1.63,-0.01,-0.0,-0.37,-0.0,-0.12,0.0,11970.53,193.0,0.0,0.0,0.0,0.0
1775763521018518474,6319,0.0,0.9,0.0,1.4,0.0,-0.2,0.06,-1.0,1.63,0.0,-0.0,-0.36,-0.0,-0.0,-0.12,11971.39,193.0,0.0,0.0,0.0,0.0
1775763521110928085,6419,0.0,1.5,0.008,0.3,-0.02,-0.1,0.06,-1.0,1.63,0.0,0.02,-0.4,0.06,0.06,0.06,11969.16,191.0,0.0,0.0,0.0,0.0
1775763521207373492,6519,0.0,1.2,0.056,0.4,-0.08,-0.25,0.06,-1.0,1.63,0.0,0.02,-0.37,0.06,-0.12,0.0,11966.24,193.0,0.0,0.0,0.0,0.0
1775763521309690492,6619,0.0,1.4,0.052,0.5,0.1,-0.04,0.06,-1.0,1.63,0.0,-0.0,-0.38,-0.0,0.12,0.06,11967.78,193.0,0.0,0.0,0.0,0.0
1775763521413962974,6719,0.0,1.4,0.028,0.5,0.08,-0.14,0.06,-1.0,1.63,0.0,0.02,-0.39,-0.06,-0.06,0.06,11968.13,197.0,0.0,0.0,0.0,0.0
1775763521512266918,6819,0.0,1.4,0.024,0.1,-0.08,-0.23,0.06,-1.0,1.63,0.0,0.01,-0.38,0.06,-0.0,-0.06,11969.67,195.0,0.0,0.0,0.0,0.0
1775763521610552474,6919,0.0,1.4,0.012,0.5,-0.08,-0.12,0.06,-1.0,1.63,0.03,0.02,-0.4,0.19,-0.0,0.0,11970.53,195.0,0.0,0.0,0.0,0.0
1775763521713010455,7019,0.0,1.3,0.02,0.4,0.0,-0.18,0.06,-1.0,1.63,0.0,-0.01,-0.38,-0.06,-0.06,-0.06,11970.36,194.0,0.0,0.0,0.0,0.0
1775763521811260770,7119,0.0,1.2,0.008,0.2,0.0,-0.2,0.06,-1.0,1.63,0.0,-0.0,-0.4,-0.06,0.12,0.12,11968.64,193.0,0.0,0.0,0.0,0.0
1775763521913755547,7219,0.0,1.2,0.008,0.2,-0.02,-0.21,0.06,-1.0,1.63,0.0,-0.0,-0.39,-0.0,-0.06,-0.06,11972.59,193.0,0.0,0.0,0.0,0.0
1775763522011965566,7319,0.0,1.2,0.0,0.5,0.02,-0.27,0.06,-1.0,1.63,0.0,-0.0,-0.39,-0.06,-0.12,-0.06,11969.33,192.0,0.0,0.0,0.0,0.0
1775763522110254807,7419,0.0,1.6,0.016,0.3,0.1,0.0,0.06,-1.0,1.63,0.0,-0.0,-0.36,-0.06,-0.06,0.0,11969.5,192.0,0.0,0.0,0.0,0.0
1775763522210787436,7519,0.0,1.2,0.064,0.5,-0.16,-0.14,0.06,-1.0,1.63,0.0,-0.0,-0.4,0.06,-0.25,-0.12,11970.7,197.0,0.0,0.0,0.0,0.0
1775763522309082899,7619,0.0,1.3,0.044,0.3,-0.16,0.0,0.06,-1.0,1.63,0.0,-0.0,-0.39,-0.0,-0.06,-0.06,11969.67,198.0,0.0,0.0,0.0,0.0
1775763522419373918,7719,0.0,1.2,0.036,0.5,-0.12,-0.14,0.06,-1.0,1.63,0.0,-0.0,-0.39,-0.0,0.12,0.06,11969.16,198.0,0.0,0.0,0.0,0.0
1775763522517609325,7819,0.0,1.2,0.02,0.5,-0.06,-0.2,0.06,-1.0,1.63,0.0,-0.0,-0.4,0.06,-0.12,-0.19,11969.33,197.0,0.0,0.0,0.0,0.0
1775763522620047084,7919,0.0,1.4,0.008,0.3,0.0,0.02,0.06,-1.0,1.63,0.0,-0.0,-0.37,0.19,-0.12,0.0,11968.13,196.0,0.0,0.0,0.0,0.0
1775763522712445380,8019,0.0,1.2,0.016,0.3,0.04,-0.02,0.06,-1.0,1.63,0.0,0.01,-0.38,-0.0,-0.06,-0.06,11969.5,196.0,0.0,0.0,0.0,0.0
1775763522810653936,8119,0.0,1.5,0.016,0.3,-0.02,-0.14,0.06,-1.0,1.63,0.0,-0.0,-0.38,0.12,-0.06,0.0,11968.81,186.0,0.0,0.0,0.0,0.0
1775763522913072843,8219,0.0,1.3,0.0,0.3,0.02,-0.27,0.06,-1.0,1.63,0.0,-0.0,-0.36,0.06,-0.0,-0.06,11969.5,195.0,0.0,0.0,0.0,0.0
1775763523021504565,8320,0.0,1.6,0.0,0.1,-0.12,-0.1,0.06,-1.0,1.63,0.01,-0.01,-0.39,0.06,-0.12,0.0,11970.7,195.0,0.0,0.0,0.0,0.0
1775763523113758787,8420,0.0,1.2,0.008,0.5,0.1,-0.2,0.06,-1.0,1.63,0.01,0.01,-0.4,-0.12,0.06,0.0,11970.36,196.0,0.0,0.0,0.0,0.0
1775763523214269954,8520,0.0,1.2,0.056,0.5,0.0,-0.1,0.06,-1.0,1.63,0.01,-0.01,-0.37,-0.0,-0.19,-0.06,11972.59,196.0,0.0,0.0,0.0,0.0
1775763523312579713,8621,0.0,0.8,0.052,0.1,-0.14,-0.04,0.06,-1.0,1.63,0.0,-0.0,-0.39,0.06,-0.12,-0.06,11971.21,196.0,0.0,0.0,0.0,0.0
1775763523422836250,8721,0.0,0.9,0.04,0.3,-0.08,-0.16,0.06,-1.0,1.63,0.0,-0.0,-0.41,-0.12,0.19,0.06,11970.53,195.0,0.0,0.0,0.0,0.0
1775763523515281898,8821,0.0,1.0,0.02,0.3,-0.1,-0.08,0.06,-1.0,1.63,0.0,-0.0,-0.39,0.12,-0.0,0.12,11972.24,195.0,0.0,0.0,0.0,0.0
1775763523623503658,8922,0.0,1.1,0.024,0.4,-0.02,-0.21,0.06,-1.0,1.63,0.0,-0.0,-0.41,-0.0,0.06,0.0,11970.87,196.0,0.0,0.0,0.0,0.0
1775763523715843898,9022,0.0,1.2,0.016,0.2,0.04,-0.12,0.06,-1.0,1.63,0.0,-0.0,-0.39,-0.06,-0.06,0.0,11969.33,199.0,0.0,0.0,0.0,0.0
1775763523824155324,9122,0.0,0.8,0.008,0.2,0.02,-0.08,0.06,-1.0,1.63,0.0,0.01,-0.37,-0.0,0.06,0.0,11971.9,199.0,0.0,0.0,0.0,0.0
1775763523916540102,9223,0.0,1.1,0.012,0.2,0.04,-0.1,0.06,-1.0,1.63,0.01,-0.0,-0.39,-0.12,0.06,0.06,11970.01,200.0,0.0,0.0,0.0,0.0
1775763524024856861,9323,0.0,1.0,0.0,1.2,0.1,-0.1,0.06,-1.0,1.63,-0.02,-0.02,-0.42,0.12,-0.0,0.0,11967.61,195.0,0.0,0.0,0.0,0.0
1775763524117370009,9423,0.0,1.4,0.0,0.4,0.14,-0.06,0.06,-1.0,1.63,0.0,0.01,-0.38,-0.12,0.12,0.12,11969.33,195.0,0.0,0.0,0.0,0.0
1775763524213745676,9523,0.0,1.5,0.056,0.1,0.08,0.04,0.06,-1.0,1.63,0.01,-0.0,-0.38,0.06,0.06,0.12,11967.27,192.0,0.0,0.0,0.0,0.0
1775763524316051750,9623,0.0,1.3,0.04,0.5,-0.08,-0.16,0.06,-1.0,1.63,0.01,-0.01,-0.38,-0.0,0.19,0.0,11969.67,192.0,0.0,0.0,0.0,0.0
1775763524420329898,9723,0.0,1.3,0.036,0.2,-0.08,-0.2,0.06,-1.0,1.63,0.01,-0.0,-0.4,0.06,-0.12,-0.06,11968.64,194.0,0.0,0.0,0.0,0.0
1775763524524575490,9823,0.0,1.3,0.02,0.5,-0.12,-0.12,0.06,-1.0,1.63,0.0,-0.0,-0.39,0.06,0.06,-0.06,11968.81,194.0,0.0,0.0,0.0,0.0
1775763524617011805,9923,0.0,1.2,0.0,0.2,0.02,-0.14,0.06,-1.0,1.63,0.01,-0.01,-0.39,0.12,-0.06,-0.06,11969.5,194.0,0.0,0.0,0.0,0.0
1775763524725321842,10023,0.0,1.2,0.012,0.3,0.0,-0.12,0.06,-1.0,1.63,0.0,-0.0,-0.42,0.12,0.12,0.0,11968.64,196.0,0.0,0.0,0.0,0.0
1775763524823603620,10123,0.0,1.1,0.012,0.4,0.04,-0.12,0.06,-1.0,1.63,0.0,0.01,-0.4,0.06,-0.25,-0.06,11968.13,195.0,0.0,0.0,0.0,0.0
1775763524916019694,10223,0.0,1.3,0.004,0.1,-0.1,-0.1,0.06,-1.0,1.63,-0.01,-0.02,-0.4,-0.06,0.06,0.0,11968.3,195.0,0.0,0.0,0.0,0.0
1775763525024317268,10322,0.0,1.3,0.0,0.4,-0.04,-0.18,0.06,-1.0,1.63,0.0,-0.0,-0.36,-0.19,-0.0,-0.06,11967.78,194.0,0.0,0.0,0.0,0.0
1775763525116647583,10422,0.0,1.5,0.0,0.3,0.08,-0.14,0.06,-1.0,1.63,-0.01,-0.0,-0.38,-0.06,0.19,0.06,11966.58,195.0,0.0,0.0,0.0,0.0
1775763525213012712,10522,0.0,1.4,0.056,0.2,-0.08,-0.16,0.06,-1.0,1.63,-0.01,-0.0,-0.4,-0.0,-0.0,-0.06,11966.75,195.0,0.0,0.0,0.0,0.0
1775763525315464119,10622,0.0,1.3,0.044,0.2,0.04,-0.12,0.06,-1.0,1.63,0.0,-0.0,-0.4,0.06,-0.06,-0.06,11966.24,194.0,0.0,0.0,0.0,0.0
1775763525415711212,10722,0.0,1.4,0.036,0.5,-0.02,-0.06,0.06,-1.0,1.63,0.0,-0.0,-0.34,0.12,-0.12,0.0,11968.47,194.0,0.0,0.0,0.0,0.0
1775763525518015953,10822,0.0,1.3,0.028,0.4,-0.06,-0.08,0.06,-1.0,1.63,-0.01,-0.0,-0.37,-0.06,-0.0,0.0,11966.58,196.0,0.0,0.0,0.0,0.0
1775763525626414786,10923,0.0,1.3,0.008,0.4,-0.12,-0.08,0.06,-1.0,1.63,-0.01,0.01,-0.38,-0.0,-0.06,0.06,11966.41,197.0,0.0,0.0,0.0,0.0
1775763525718808934,11023,0.0,1.5,0.008,0.3,0.0,-0.08,0.06,-1.0,1.63,0.0,-0.0,-0.4,-0.0,-0.12,-0.06,11967.61,197.0,0.0,0.0,0.0,0.0
1775763525817026675,11123,0.0,1.3,0.0,0.1,-0.06,-0.14,0.06,-1.0,1.63,0.02,-0.0,-0.37,0.06,-0.06,0.06,11967.96,199.0,0.0,0.0,0.0,0.0
1775763525919460878,11223,0.0,1.3,0.0,0.2,0.08,-0.12,0.06,-1.0,1.63,0.0,-0.0,-0.38,-0.12,0.12,0.06,11968.13,201.0,0.0,0.0,0.0,0.0
1775763526017779082,11323,0.0,1.4,0.012,0.1,0.1,-0.14,0.06,-1.0,1.63,0.0,0.01,-0.37,0.06,-0.06,0.0,11969.84,201.0,0.0,0.0,0.0,0.0
1775763526120117786,11423,0.0,1.4,0.008,0.5,0.1,-0.12,0.06,-1.0,1.63,0.0,-0.0,-0.35,-0.0,-0.0,0.0,11970.7,195.0,0.0,0.0,0.0,0.0
1775763526216645063,11523,0.0,1.6,0.06,0.6,-0.02,-0.04,0.06,-1.0,1.63,0.0,0.01,-0.4,0.19,-0.12,-0.06,11968.81,191.0,0.0,0.0,0.0,0.0
1775763526314803730,11623,0.0,1.5,0.044,0.2,0.04,-0.12,0.06,-1.0,1.63,0.0,-0.0,-0.37,-0.0,-0.19,-0.12,11969.33,191.0,0.0,0.0,0.0,0.0
1775763526419145415,11723,0.0,1.4,0.028,0.2,-0.08,-0.08,0.06,-1.0,1.63,0.0,-0.01,-0.37,-0.06,-0.0,0.06,11969.5,190.0,0.0,0.0,0.0,0.0
1775763526517500452,11823,0.0,1.4,0.032,0.4,-0.06,-0.1,0.06,-1.0,1.63,0.0,-0.0,-0.41,-0.06,0.06,0.0,11970.53,190.0,0.0,0.0,0.0,0.0
1775763526625811582,11923,0.0,1.3,0.024,0.1,0.0,-0.08,0.06,-1.0,1.63,-0.01,-0.0,-0.4,-0.0,0.06,0.0,11971.56,198.0,0.0,0.0,0.0,0.0
1775763526718115211,12023,0.0,1.5,0.0,0.7,0.12,-0.12,0.06,-1.0,1.63,0.0,0.02,-0.39,0.06,0.06,0.0,11969.67,195.0,0.0,0.0,0.0,0.0
1775763526818681489,12123,0.0,1.3,0.012,0.2,-0.04,-0.14,0.06,-1.0,1.63,0.01,-0.0,-0.37,0.19,0.12,0.0,11970.53,195.0,0.0,0.0,0.0,0.0
1775763526924769211,12223,0.0,1.3,0.02,0.5,-0.06,-0.16,0.06,-1.0,1.63,0.0,-0.0,-0.38,-0.06,-0.06,-0.06,11970.01,195.0,0.0,0.0,0.0,0.0
1775763527017106896,12323,0.0,1.3,0.0,0.2,-0.08,-0.12,0.06,-1.0,1.63,0.01,-0.0,-0.37,0.12,-0.0,0.0,11969.16,199.0,0.0,0.0,0.0,0.0
1775763527125475378,12423,0.0,1.4,0.012,0.3,0.02,-0.18,0.06,-1.0,1.63,0.01,0.01,-0.37,0.19,-0.0,-0.12,11969.84,199.0,0.0,0.0,0.0,0.0
1775763527215982489,12523,0.0,1.1,0.06,0.2,-0.08,-0.18,0.06,-1.0,1.63,0.02,-0.0,-0.39,0.12,0.12,0.12,11968.98,196.0,0.0,0.0,0.0,0.0
1775763527318322526,12623,0.0,1.4,0.04,0.3,-0.1,-0.21,0.06,-1.0,1.63,0.0,-0.0,-0.41,0.06,0.06,0.12,11966.93,199.0,0.0,0.0,0.0,0.0
1775763527418587489,12723,0.0,1.5,0.028,0.5,-0.12,0.0,0.06,-1.0,1.63,0.0,0.01,-0.4,0.06,0.06,0.0,11968.64,199.0,0.0,0.0,0.0,0.0
1775763527526841989,12823,0.0,1.4,0.024,0.3,-0.08,-0.16,0.06,-1.0,1.63,0.0,-0.01,-0.39,0.06,0.12,0.06,11965.73,195.0,0.0,0.0,0.0,0.0
1775763527619285322,12923,0.0,1.6,0.016,0.3,-0.1,-0.14,0.06,-1.0,1.63,-0.01,0.02,-0.37,-0.0,-0.0,0.0,11966.41,195.0,0.0,0.0,0.0,0.0
1775763527717597377,13023,0.0,1.3,0.0,0.3,-0.14,-0.27,0.06,-1.0,1.63,0.0,-0.0,-0.38,0.12,-0.19,-0.06,11967.27,200.0,0.0,0.0,0.0,0.0
1775763527819999340,13123,0.0,1.3,0.02,0.3,0.1,-0.1,0.06,-1.0,1.63,0.0,-0.0,-0.4,-0.0,0.25,0.06,11967.27,195.0,0.0,0.0,0.0,0.0
1775763527918220673,13223,0.0,0.9,0.012,0.2,-0.04,-0.2,0.06,-1.0,1.63,-0.02,-0.0,-0.37,-0.06,-0.0,-0.06,11969.67,195.0,0.0,0.0,0.0,0.0
1775763528026661729,13323,0.0,1.0,0.008,0.2,-0.02,-0.21,0.06,-1.0,1.63,-0.01,-0.0,-0.37,-0.12,-0.0,0.0,11969.33,198.0,0.0,0.0,0.0,0.0
1775763528119044692,13423,0.0,0.8,0.012,0.2,0.18,-0.1,0.06,-1.0,1.63,0.0,-0.0,-0.38,-0.06,-0.12,0.0,11969.16,195.0,0.0,0.0,0.0,0.0
1775763528219482451,13523,0.0,1.0,0.048,0.3,0.04,-0.21,0.06,-1.0,1.63,0.0,-0.02,-0.36,-0.06,0.12,0.06,11968.64,195.0,0.0,0.0,0.0,0.0
1775763528317744358,13623,0.0,1.1,0.048,0.5,-0.08,-0.06,0.06,-1.0,1.63,0.03,0.01,-0.4,-0.25,0.06,0.0,11967.61,192.0,0.0,0.0,0.0,0.0
1775763528428032247,13723,0.0,0.9,0.036,0.4,0.1,-0.12,0.06,-1.0,1.63,0.0,-0.0,-0.36,-0.0,0.06,0.0,11969.16,197.0,0.0,0.0,0.0,0.0
1775763528520489414,13824,0.0,0.9,0.02,0.2,0.02,-0.21,0.06,-1.0,1.63,0.0,-0.0,-0.38,0.12,0.06,-0.06,11968.64,197.0,0.0,0.0,0.0,0.0
1775763528628798655,13924,0.0,0.9,0.02,0.3,0.12,-0.08,0.06,-1.0,1.63,0.01,-0.0,-0.36,0.06,-0.06,0.06,11968.3,195.0,0.0,0.0,0.0,0.0
1775763528727042025,14024,0.0,1.0,0.012,0.3,-0.02,0.02,0.06,-1.0,1.63,0.02,-0.0,-0.4,-0.25,0.12,-0.06,11970.19,195.0,0.0,0.0,0.0,0.0
1775763528829505006,14125,0.0,0.9,0.016,0.3,0.02,-0.12,0.06,-1.0,1.63,0.0,-0.0,-0.37,-0.06,-0.0,0.06,11971.9,200.0,0.0,0.0,0.0,0.0
1775763528927801080,14225,0.0,1.1,0.008,0.3,0.08,-0.08,0.06,-1.0,1.63,-0.01,-0.0,-0.38,-0.0,-0.12,0.0,11970.53,194.0,0.0,0.0,0.0,0.0
1775763529022260117,14325,0.0,1.3,0.0,0.2,-0.04,-0.2,0.06,-1.0,1.63,0.01,-0.0,-0.37,-0.0,0.12,-0.06,11971.56,194.0,0.0,0.0,0.0,0.0
1775763529122480636,14426,0.0,1.4,0.024,0.2,0.06,-0.14,0.06,-1.0,1.63,-0.01,0.01,-0.38,-0.0,0.06,0.12,11968.98,195.0,0.0,0.0,0.0,0.0
1775763529222980988,14526,0.0,1.3,0.06,0.1,-0.04,-0.06,0.06,-1.0,1.63,0.02,0.01,-0.37,0.12,0.06,-0.06,11967.78,194.0,0.0,0.0,0.0,0.0
1775763529321230691,14626,0.0,1.4,0.04,0.2,0.04,-0.18,0.06,-1.0,1.63,0.0,-0.0,-0.37,-0.19,0.19,-0.12,11969.16,194.0,0.0,0.0,0.0,0.0
1775763529429647784,14727,0.0,1.0,0.024,0.5,-0.18,-0.06,0.06,-1.0,1.63,-0.03,-0.0,-0.37,0.06,0.12,0.0,11968.98,193.0,0.0,0.0,0.0,0.0
1775763529523888228,14827,0.0,1.0,0.02,0.5,-0.02,-0.2,0.06,-1.0,1.63,0.0,0.01,-0.39,0.12,-0.0,0.0,11968.47,201.0,0.0,0.0,0.0,0.0
1775763529632375043,14927,0.0,1.1,0.012,0.5,0.02,-0.14,0.06,-1.0,1.63,-0.01,-0.0,-0.39,-0.25,-0.0,0.12,11969.84,201.0,0.0,0.0,0.0,0.0
1775763529724570172,15028,0.0,1.1,0.012,0.3,0.06,-0.18,0.06,-1.0,1.63,0.0,-0.0,-0.37,-0.0,-0.12,-0.06,11968.98,197.0,0.0,0.0,0.0,0.0
1775763529832979765,15128,0.0,0.9,0.012,1.6,0.02,-0.21,0.06,-1.0,1.63,0.01,-0.0,-0.38,-0.0,-0.06,0.06,11968.13,191.0,0.0,0.0,0.0,0.0
1775763529925360302,15228,0.0,1.3,0.012,0.4,0.02,-0.12,0.06,-1.0,1.63,-0.01,-0.0,-0.38,-0.12,0.12,-0.12,11970.36,191.0,0.0,0.0,0.0,0.0
1775763530033679413,15328,0.0,1.1,0.012,0.5,-0.16,-0.06,0.06,-1.0,1.63,0.0,-0.0,-0.4,-0.12,-0.12,0.06,11969.5,196.0,0.0,0.0,0.0,0.0
1775763530126050543,15428,0.0,1.5,0.008,0.3,0.0,-0.21,0.06,-1.0,1.63,0.01,-0.0,-0.37,0.06,0.06,0.0,11970.19,196.0,0.0,0.0,0.0,0.0
1775763530222433580,15528,0.0,1.2,0.052,0.5,0.12,-0.02,0.06,-1.0,1.63,0.0,0.01,-0.37,0.12,0.06,0.0,11969.67,200.0,0.0,0.0,0.0,0.0
1775763530324725413,15628,0.0,1.2,0.032,0.3,-0.18,-0.02,0.06,-1.0,1.63,0.01,-0.0,-0.39,0.06,-0.12,0.0,11967.44,190.0,0.0,0.0,0.0,0.0
1775763530425039653,15728,0.0,1.6,0.04,0.5,0.1,-0.21,0.06,-1.0,1.63,0.0,-0.0,-0.38,0.06,-0.0,0.0,11968.98,190.0,0.0,0.0,0.0,0.0
1775763530533345968,15828,0.0,1.4,0.028,0.5,0.02,-0.14,0.06,-1.0,1.63,0.0,-0.0,-0.4,-0.06,0.06,-0.06,11970.7,194.0,0.0,0.0,0.0,0.0
1775763530631660339,15928,0.0,1.2,0.012,0.1,0.0,-0.21,0.06,-1.0,1.63,0.0,-0.0,-0.37,-0.06,0.06,0.06,11967.96,195.0,0.0,0.0,0.0,0.0
1775763530726121764,16028,0.0,1.2,0.008,0.6,0.0,-0.21,0.06,-1.0,1.63,0.01,-0.0,-0.39,-0.0,-0.12,0.06,11969.33,195.0,0.0,0.0,0.0,0.0
1775763530832360913,16129,0.0,1.3,0.0,0.5,-0.04,-0.12,0.06,-1.0,1.63,-0.01,-0.0,-0.38,-0.06,-0.12,0.0,11968.3,197.0,0.0,0.0,0.0,0.0
1775763530926842301,16229,0.0,1.5,0.008,0.5,-0.14,-0.06,0.06,-1.0,1.63,0.0,-0.01,-0.36,-0.06,-0.06,0.06,11970.53,197.0,0.0,0.0,0.0,0.0
1775763531033028153,16329,0.0,1.5,0.008,0.3,-0.06,-0.1,0.06,-1.0,1.63,-0.01,-0.0,-0.39,-0.06,0.06,-0.06,11968.98,198.0,0.0,0.0,0.0,0.0
1775763531135492412,16430,0.0,1.3,0.008,0.5,-0.06,-0.12,0.06,-1.0,1.63,0.0,-0.0,-0.37,-0.12,-0.12,0.0,11971.21,194.0,0.0,0.0,0.0,0.0
1775763531225821449,16530,0.0,1.4,0.048,0.3,-0.16,-0.2,0.06,-1.0,1.63,0.0,-0.0,-0.38,-0.06,0.06,0.06,11972.07,194.0,0.0,0.0,0.0,0.0
1775763531328193968,16630,0.0,1.4,0.04,0.5,-0.08,-0.27,0.06,-1.0,1.63,0.01,0.01,-0.36,0.12,-0.0,-0.19,11973.1,196.0,0.0,0.0,0.0,0.0
1775763531434411245,16730,0.0,1.4,0.028,0.3,-0.02,-0.18,0.06,-1.0,1.63,0.0,-0.0,-0.39,-0.0,-0.0,0.0,11968.3,188.0,0.0,0.0,0.0,0.0
1775763531526858097,16830,0.0,1.3,0.012,0.1,0.06,-0.08,0.06,-1.0,1.63,0.0,0.01,-0.4,-0.0,-0.06,-0.06,11968.98,188.0,0.0,0.0,0.0,0.0
1775763531635159468,16929,0.0,1.2,0.016,0.3,0.08,-0.12,0.06,-1.0,1.63,0.0,-0.0,-0.36,-0.06,-0.06,-0.06,11968.3,195.0,0.0,0.0,0.0,0.0
1775763531727469134,17029,0.0,1.4,0.004,0.5,0.12,-0.14,0.06,-1.0,1.63,0.0,-0.0,-0.39,-0.0,0.12,0.0,11968.47,195.0,0.0,0.0,0.0,0.0
1775763531825846727,17129,0.0,1.5,0.0,0.5,0.0,-0.12,0.06,-1.0,1.63,0.0,0.02,-0.37,0.06,0.06,0.0,11969.16,195.0,0.0,0.0,0.0,0.0
1775763531934097171,17228,0.0,1.4,0.0,0.3,-0.04,-0.18,0.06,-1.0,1.63,0.0,-0.0,-0.36,-0.0,0.06,-0.06,11968.47,192.0,0.0,0.0,0.0,0.0
1775763532026442282,17328,0.0,1.5,0.0,0.5,0.04,-0.21,0.06,-1.0,1.63,0.0,0.01,-0.4,-0.0,-0.19,0.0,11969.5,204.0,0.0,0.0,0.0,0.0
1775763532134787708,17428,0.0,1.3,0.004,0.5,-0.1,-0.16,0.06,-1.0,1.63,0.01,-0.01,-0.38,0.06,0.19,0.0,11970.87,204.0,0.0,0.0,0.0,0.0
1775763532225325801,17528,0.0,1.6,0.052,0.6,0.02,-0.12,0.06,-1.0,1.63,0.0,-0.0,-0.38,0.19,-0.0,0.12,11968.98,198.0,0.0,0.0,0.0,0.0
1775763532329519560,17628,0.0,1.2,0.048,0.7,0.02,-0.16,0.06,-1.0,1.63,0.0,0.01,-0.4,0.06,-0.06,-0.06,11969.33,198.0,0.0,0.0,0.0,0.0
1775763532427786134,17728,0.0,1.4,0.028,0.5,-0.02,-0.02,0.06,-1.0,1.63,0.0,0.02,-0.37,-0.0,-0.12,0.12,11968.81,196.0,0.0,0.0,0.0,0.0
1775763532526122430,17828,0.0,1.3,0.02,0.1,0.14,-0.18,0.06,-1.0,1.63,0.01,-0.01,-0.39,0.12,-0.0,-0.06,11968.81,194.0,0.0,0.0,0.0,0.0
1775763532634580226,17928,0.0,1.1,0.012,0.3,0.0,-0.12,0.06,-1.0,1.63,0.01,-0.0,-0.39,-0.0,-0.06,0.12,11971.04,194.0,0.0,0.0,0.0,0.0
1775763532726838411,18027,0.0,1.5,0.012,0.3,0.06,-0.21,0.06,-1.0,1.63,0.0,0.01,-0.39,-0.0,0.06,0.06,11969.84,195.0,0.0,0.0,0.0,0.0
1775763532825135763,18127,0.0,1.3,0.004,0.3,-0.08,-0.2,0.06,-1.0,1.63,0.02,-0.0,-0.4,-0.06,0.06,0.0,11968.81,196.0,0.0,0.0,0.0,0.0
1775763532925613819,18227,0.0,1.5,0.012,0.5,-0.1,-0.23,0.06,-1.0,1.63,0.0,-0.0,-0.4,0.12,-0.12,0.0,11971.21,196.0,0.0,0.0,0.0,0.0
1775763533025839041,18327,0.0,1.3,0.016,0.4,0.04,-0.12,0.06,-1.0,1.63,0.0,-0.0,-0.39,0.12,-0.0,0.06,11967.96,195.0,0.0,0.0,0.0,0.0
1775763533124215559,18427,0.0,1.4,0.012,0.3,0.02,-0.16,0.06,-1.0,1.63,0.0,-0.0,-0.37,0.06,0.25,0.06,11969.33,195.0,0.0,0.0,0.0,0.0
1775763533224686393,18527,0.0,1.2,0.052,0.3,0.06,-0.2,0.06,-1.0,1.63,0.01,-0.0,-0.39,-0.12,0.12,-0.06,11971.04,194.0,0.0,0.0,0.0,0.0
1775763533322948726,18627,0.0,1.6,0.044,0.2,0.02,-0.06,0.06,-1.0,1.63,-0.01,0.02,-0.39,-0.0,0.19,0.0,11968.13,197.0,0.0,0.0,0.0,0.0
1775763533433121707,18727,0.0,1.5,0.036,0.3,-0.02,-0.08,0.06,-1.0,1.63,0.0,0.01,-0.39,-0.06,0.06,0.06,11969.33,197.0,0.0,0.0,0.0,0.0
1775763533525536541,18826,0.0,1.2,0.02,0.3,-0.02,-0.25,0.06,-1.0,1.63,0.0,-0.0,-0.4,-0.06,-0.06,-0.06,11968.98,197.0,0.0,0.0,0.0,0.0
1775763533623844022,18926,0.0,1.0,0.004,0.4,-0.1,-0.02,0.06,-1.0,1.63,0.02,-0.0,-0.39,-0.06,-0.0,0.0,11967.96,198.0,0.0,0.0,0.0,0.0
1775763533726323096,19026,0.0,1.7,0.012,0.3,0.0,-0.14,0.06,-1.0,1.63,-0.02,-0.01,-0.4,0.19,-0.0,0.0,11969.5,198.0,0.0,0.0,0.0,0.0
1775763533824529244,19126,0.0,1.5,0.008,0.5,-0.1,-0.23,0.06,-1.0,1.63,0.01,-0.01,-0.4,-0.0,0.06,-0.06,11969.16,193.0,0.0,0.0,0.0,0.0
1775763533926925800,19226,0.0,1.3,0.012,0.3,-0.06,-0.12,0.06,-1.0,1.63,-0.01,-0.0,-0.4,0.06,0.06,-0.06,11968.13,191.0,0.0,0.0,0.0,0.0
1775763534025238707,19326,0.0,1.2,0.0,0.2,-0.08,-0.23,0.06,-1.0,1.63,0.01,-0.0,-0.38,-0.0,0.06,-0.06,11969.33,191.0,0.0,0.0,0.0,0.0
1775763534123548540,19425,0.0,1.3,0.008,0.5,-0.06,-0.04,0.06,-1.0,1.63,0.01,0.01,-0.4,-0.0,0.19,0.06,11971.56,191.0,0.0,0.0,0.0,0.0
1775763534223992799,19525,0.0,1.6,0.052,0.3,-0.08,-0.14,0.06,-1.0,1.63,0.01,-0.0,-0.41,-0.0,0.06,0.06,11971.9,191.0,0.0,0.0,0.0,0.0
1775763534328229503,19625,0.0,0.7,0.056,0.1,-0.1,-0.29,0.06,-1.0,1.63,0.0,-0.0,-0.39,0.06,0.06,-0.12,11972.24,196.0,0.0,0.0,0.0,0.0
1775763534432592133,19725,0.0,0.8,0.032,0.2,-0.04,-0.14,0.06,-1.0,1.63,0.02,-0.0,-0.4,0.12,-0.0,0.0,11972.07,194.0,0.0,0.0,0.0,0.0
1775763534525007392,19825,0.0,0.9,0.024,0.3,0.02,-0.23,0.06,-1.0,1.63,0.0,-0.0,-0.37,0.12,-0.06,0.06,11973.62,194.0,0.0,0.0,0.0,0.0
1775763534633328336,19926,0.0,0.9,0.028,0.5,-0.04,-0.2,0.06,-1.0,1.63,0.0,-0.0,-0.39,-0.0,0.06,0.0,11971.56,194.0,0.0,0.0,0.0,0.0
1775763534731594984,20026,0.0,0.9,0.008,0.2,-0.08,-0.06,0.06,-1.0,1.63,0.0,-0.0,-0.38,0.19,-0.06,0.0,11968.47,191.0,0.0,0.0,0.0,0.0
1775763534826083836,20126,0.0,1.1,0.0,1.4,0.04,-0.04,0.06,-1.0,1.63,0.0,-0.0,-0.39,0.06,0.19,0.0,11969.33,191.0,0.0,0.0,0.0,0.0
1775763534926313169,20227,0.0,1.1,0.0,0.2,-0.04,-0.1,0.06,-1.0,1.63,0.0,-0.0,-0.39,-0.06,-0.0,0.06,11968.81,191.0,0.0,0.0,0.0,0.0
1775763535034748521,20327,0.0,1.3,0.004,0.4,-0.14,-0.31,0.06,-1.0,1.63,0.0,-0.0,-0.38,0.06,-0.06,0.0,11969.5,193.0,0.0,0.0,0.0,0.0
1775763535127105077,20427,0.0,1.4,0.004,0.3,-0.02,-0.18,0.06,-1.0,1.63,0.0,-0.0,-0.4,-0.0,-0.06,-0.12,11970.7,193.0,0.0,0.0,0.0,0.0
1775763535227464577,20528,0.0,1.3,0.06,0.2,-0.02,-0.14,0.06,-1.0,1.63,0.01,-0.0,-0.42,-0.06,0.19,0.0,11968.64,193.0,0.0,0.0,0.0,0.0
1775763535325819299,20628,0.0,1.5,0.052,0.1,0.08,-0.1,0.06,-1.0,1.63,0.0,-0.0,-0.38,-0.06,-0.06,0.0,11970.19,193.0,0.0,0.0,0.0,0.0
1775763535434198854,20728,0.0,1.4,0.036,0.7,-0.1,-0.12,0.06,-1.0,1.63,0.01,0.01,-0.38,-0.06,-0.19,0.0,11970.01,196.0,0.0,0.0,0.0,0.0
1775763535528423725,20828,0.0,1.5,0.028,0.5,-0.02,0.0,0.06,-1.0,1.63,0.0,-0.0,-0.38,0.06,-0.0,0.06,11972.59,195.0,0.0,0.0,0.0,0.0
1775763535636849224,20928,0.0,1.4,0.008,0.5,0.1,-0.04,0.06,-1.0,1.63,0.0,-0.0,-0.38,0.12,0.06,0.0,11975.5,195.0,0.0,0.0,0.0,0.0
1775763535729176002,21028,0.0,1.0,0.0,1.0,0.06,-0.18,0.06,-1.0,1.63,0.01,-0.0,-0.39,-0.06,-0.12,-0.06,11972.76,191.0,0.0,0.0,0.0,0.0
1775763535827396169,21128,0.0,0.8,0.0,0.6,-0.14,-0.04,0.06,-1.0,1.63,0.01,-0.0,-0.4,0.06,-0.0,0.06,11973.1,198.0,0.0,0.0,0.0,0.0
1775763535929914613,21228,0.0,1.0,0.016,0.1,0.08,-0.18,0.06,-1.0,1.63,0.0,0.01,-0.38,0.06,-0.12,0.06,11973.62,198.0,0.0,0.0,0.0,0.0
1775763536028098706,21328,0.0,1.0,0.0,0.2,0.1,-0.14,0.06,-1.0,1.63,0.02,-0.0,-0.39,-0.0,-0.06,0.0,11972.76,195.0,0.0,0.0,0.0,0.0
1775763536130520428,21428,0.0,0.9,0.02,0.3,-0.02,-0.08,0.06,-1.0,1.63,-0.01,-0.0,-0.4,-0.0,-0.0,0.06,11971.21,200.0,0.0,0.0,0.0,0.0
1775763536226895761,21528,0.0,1.0,0.056,0.2,0.06,-0.21,0.06,-1.0,1.63,0.0,-0.0,-0.39,-0.0,0.06,0.06,11972.93,200.0,0.0,0.0,0.0,0.0
1775763536325202965,21628,0.0,1.0,0.044,0.4,0.0,-0.18,0.06,-1.0,1.63,-0.01,-0.0,-0.38,-0.12,0.06,0.0,11973.62,195.0,0.0,0.0,0.0,0.0
1775763536429526428,21728,0.0,1.1,0.016,0.3,-0.14,-0.1,0.06,-1.0,1.63,0.0,-0.0,-0.39,0.06,0.12,-0.06,11973.1,195.0,0.0,0.0,0.0,0.0
1775763536527797317,21828,0.0,0.9,0.02,0.4,-0.02,-0.23,0.06,-1.0,1.63,0.0,-0.0,-0.37,-0.12,0.06,0.0,11970.87,191.0,0.0,0.0,0.0,0.0
1775763536626097594,21927,0.0,1.1,0.016,0.2,0.16,-0.14,0.06,-1.0,1.63,-0.01,-0.0,-0.36,-0.0,-0.06,0.06,11969.16,193.0,0.0,0.0,0.0,0.0
1775763536734551742,22027,0.0,1.0,0.012,0.3,-0.06,-0.31,0.06,-1.0,1.63,-0.02,-0.0,-0.39,0.06,-0.12,-0.19,11970.19,193.0,0.0,0.0,0.0,0.0
1775763536836920594,22127,0.0,0.9,0.008,0.3,-0.06,-0.06,0.06,-1.0,1.63,0.0,0.01,-0.4,-0.0,-0.06,-0.06,11974.3,197.0,0.0,0.0,0.0,0.0
1775763536935179631,22227,0.0,1.1,0.008,0.3,-0.04,-0.25,0.06,-1.0,1.63,0.01,-0.02,-0.38,0.06,0.06,-0.06,11972.41,195.0,0.0,0.0,0.0,0.0
1775763537027562724,22327,0.0,1.0,0.008,0.3,0.2,0.04,0.06,-1.0,1.63,0.0,0.01,-0.39,0.12,0.06,0.06,11971.9,195.0,0.0,0.0,0.0,0.0
1775763537135887483,22427,0.0,1.0,0.02,0.3,0.0,-0.08,0.06,-1.0,1.63,-0.02,0.01,-0.36,0.12,-0.12,0.0,11968.13,194.0,0.0,0.0,0.0,0.0
1775763537226338390,22528,0.0,0.9,0.048,0.2,0.06,-0.1,0.06,-1.0,1.63,0.0,-0.0,-0.35,-0.0,-0.0,0.06,11969.33,194.0,0.0,0.0,0.0,0.0
1775763537328629316,22628,0.0,1.1,0.052,0.6,0.06,-0.2,0.06,-1.0,1.63,0.01,-0.0,-0.39,-0.06,0.06,0.0,11969.16,194.0,0.0,0.0,0.0,0.0
1775763537428847594,22728,0.0,1.2,0.044,0.5,-0.06,-0.14,0.06,-1.0,1.63,0.0,-0.01,-0.37,-0.12,-0.0,-0.06,11972.24,196.0,0.0,0.0,0.0,0.0
1775763537531420001,22829,0.0,0.9,0.02,0.5,-0.1,-0.14,0.06,-1.0,1.63,0.0,-0.0,-0.38,0.06,0.06,-0.06,11973.96,196.0,0.0,0.0,0.0,0.0
1775763537629620242,22929,0.0,1.0,0.024,0.0,-0.18,-0.08,0.06,-1.0,1.63,0.0,-0.01,-0.39,-0.06,-0.0,0.12,11972.24,193.0,0.0,0.0,0.0,0.0
1775763537731980742,23029,0.0,1.0,0.012,0.2,0.06,-0.1,0.06,-1.0,1.63,0.0,0.01,-0.37,0.06,-0.0,-0.12,11970.36,200.0,0.0,0.0,0.0,0.0
1775763537830362001,23129,0.0,0.7,0.004,0.3,-0.02,-0.06,0.06,-1.0,1.63,-0.02,0.01,-0.38,0.06,0.12,0.0,11970.53,200.0,0.0,0.0,0.0,0.0
1775763537938637779,23229,0.0,1.1,0.0,0.3,0.0,-0.08,0.06,-1.0,1.63,0.0,-0.0,-0.37,-0.0,0.12,-0.12,11970.19,194.0,0.0,0.0,0.0,0.0
1775763538031198464,23329,0.0,0.9,0.004,0.3,-0.02,-0.04,0.06,-1.0,1.63,0.0,-0.0,-0.37,-0.0,0.06,-0.06,11970.7,193.0,0.0,0.0,0.0,0.0
1775763538135851007,23429,0.0,1.0,0.008,0.2,-0.18,-0.04,0.06,-1.0,1.63,0.0,-0.01,-0.4,0.06,-0.06,-0.06,11971.39,193.0,0.0,0.0,0.0,0.0
1775763538234202750,23529,0.0,0.6,0.048,0.5,0.06,-0.18,0.06,-1.0,1.63,0.01,-0.02,-0.38,0.06,-0.0,0.0,11970.01,195.0,0.0,0.0,0.0,0.0
1775763538340493337,23629,0.0,1.1,0.048,0.3,-0.08,-0.14,0.06,-1.0,1.63,-0.01,-0.0,-0.4,-0.0,-0.06,-0.06,11968.64,189.0,0.0,0.0,0.0,0.0
1775763538440978907,23729,0.0,0.9,0.032,0.2,0.14,-0.08,0.06,-1.0,1.63,0.0,-0.0,-0.38,0.12,-0.06,0.0,11970.01,189.0,0.0,0.0,0.0,0.0
1775763538541289469,23829,0.0,1.2,0.028,0.4,-0.04,-0.29,0.06,-1.0,1.63,0.0,-0.0,-0.38,-0.06,0.19,0.0,11968.13,196.0,0.0,0.0,0.0,0.0
1775763538652016933,23929,0.0,1.0,0.028,0.3,-0.02,-0.06,0.06,-1.0,1.63,0.0,-0.0,-0.38,0.06,-0.06,0.0,11970.19,196.0,0.0,0.0,0.0,0.0
1775763538746149076,24030,0.0,1.1,0.02,0.1,0.0,-0.2,0.06,-1.0,1.63,0.0,-0.0,-0.38,-0.0,0.06,0.0,11969.16,194.0,0.0,0.0,0.0,0.0
1775763538856687657,24130,0.0,1.0,0.024,0.3,0.02,-0.18,0.06,-1.0,1.63,0.0,0.02,-0.37,0.06,-0.06,-0.06,11968.47,194.0,0.0,0.0,0.0,0.0
1775763538951088419,24230,0.0,1.0,0.016,0.3,0.02,-0.12,0.06,-1.0,1.63,0.01,-0.0,-0.36,0.12,-0.12,0.0,11969.33,194.0,0.0,0.0,0.0,0.0
1775763539051230569,24330,0.0,1.1,0.012,0.2,0.02,-0.18,0.06,-1.0,1.63,0.0,-0.0,-0.38,0.06,0.12,0.06,11969.16,200.0,0.0,0.0,0.0,0.0
1775763539161622759,24429,0.0,1.0,0.004,0.1,-0.1,-0.08,0.06,-1.0,1.63,-0.01,-0.0,-0.37,0.06,-0.0,0.0,11968.64,195.0,0.0,0.0,0.0,0.0
1775763539253657756,24529,0.0,0.9,0.064,0.3,0.1,0.02,0.06,-1.0,1.63,0.01,0.01,-0.37,0.06,-0.06,0.0,11970.7,195.0,0.0,0.0,0.0,0.0
1775763539353813893,24628,0.0,1.0,0.0,0.6,-0.06,0.0,0.06,-1.0,1.63,0.0,-0.0,-0.39,-0.12,0.19,0.0,11968.64,193.0,0.0,0.0,0.0,0.0
1775763539459915902,24728,0.0,1.5,0.032,0.5,-0.02,-0.1,0.06,-1.0,1.63,0.0,-0.0,-0.41,-0.0,-0.12,-0.06,11969.5,197.0,0.0,0.0,0.0,0.0
1775763539560081410,24828,0.0,1.5,0.02,0.2,-0.08,-0.1,0.06,-1.0,1.63,-0.01,-0.0,-0.37,-0.06,-0.0,0.06,11969.33,197.0,0.0,0.0,0.0,0.0
1775763539670398217,24928,0.0,1.1,0.008,0.3,0.1,-0.04,0.06,-1.0,1.63,0.0,0.02,-0.38,-0.12,-0.06,0.0,11968.98,192.0,0.0,0.0,0.0,0.0
1775763539764457450,25028,0.0,1.0,0.02,0.5,0.12,-0.2,0.06,-1.0,1.63,0.01,-0.0,-0.36,-0.06,-0.06,0.06,11971.56,192.0,0.0,0.0,0.0,0.0
1775763539864368863,25128,0.0,1.0,0.024,0.5,0.06,-0.06,0.06,-1.0,1.63,0.0,-0.0,-0.38,-0.0,-0.06,0.0,11970.01,199.0,0.0,0.0,0.0,0.0
1775763539974840510,25228,0.0,1.0,0.012,0.5,-0.02,-0.1,0.06,-1.0,1.63,0.02,0.02,-0.39,0.06,-0.12,-0.06,11969.67,200.0,0.0,0.0,0.0,0.0
1775763540079062313,25328,0.0,1.2,0.012,0.6,-0.06,-0.04,0.06,-1.0,1.63,0.0,-0.0,-0.38,0.06,0.06,0.12,11970.87,200.0,0.0,0.0,0.0,0.0
1775763540178803099,25428,0.0,0.9,0.008,0.3,-0.06,-0.06,0.06,-1.0,1.63,0.01,0.01,-0.39,-0.0,-0.06,0.0,11972.59,199.0,0.0,0.0,0.0,0.0
1775763540270633715,25528,0.0,0.9,0.052,0.5,0.06,-0.08,0.06,-1.0,1.63,0.01,-0.0,-0.37,0.12,-0.06,0.06,11972.41,192.0,0.0,0.0,0.0,0.0
1775763540374609273,25628,0.0,0.5,0.04,0.2,-0.08,-0.12,0.06,-1.0,1.63,0.0,-0.01,-0.35,-0.0,-0.0,0.06,11973.27,192.0,0.0,0.0,0.0,0.0
1775763540482504443,25729,0.0,1.7,0.032,0.4,-0.06,-0.02,0.06,-1.0,1.63,0.01,-0.0,-0.34,0.06,-0.0,0.0,11972.93,197.0,0.0,0.0,0.0,0.0
1775763540586525585,25829,0.0,1.2,0.024,0.5,-0.12,-0.04,0.06,-1.0,1.63,-0.01,-0.0,-0.35,-0.0,-0.06,-0.12,11971.9,189.0,0.0,0.0,0.0,0.0
1775763540680433995,25929,0.0,1.4,0.012,0.3,-0.21,-0.25,0.06,-1.0,1.63,0.0,-0.0,-0.39,-0.0,0.06,0.06,11970.7,189.0,0.0,0.0,0.0,0.0
1775763540790472165,26030,0.0,1.4,0.004,0.3,-0.06,-0.16,0.06,-1.0,1.63,0.01,-0.0,-0.37,-0.06,0.06,0.12,11972.59,198.0,0.0,0.0,0.0,0.0
1775763540884319018,26129,0.0,1.3,0.0,0.3,-0.08,-0.27,0.06,-1.0,1.63,0.01,-0.0,-0.38,0.06,-0.0,0.0,11973.96,198.0,0.0,0.0,0.0,0.0
1775763540984154058,26229,0.0,1.4,0.0,0.2,-0.02,-0.1,0.06,-1.0,1.63,-0.01,-0.0,-0.38,-0.0,-0.0,0.0,11975.67,196.0,0.0,0.0,0.0,0.0
1775763541087971910,26329,0.0,1.3,0.012,0.2,-0.04,-0.16,0.06,-1.0,1.63,0.01,-0.0,-0.38,0.06,0.06,0.0,11973.1,192.0,0.0,0.0,0.0,0.0
1775763541187722630,26429,0.0,1.4,0.0,0.4,-0.1,-0.31,0.06,-1.0,1.63,0.0,-0.0,-0.36,0.06,-0.0,0.0,11974.3,192.0,0.0,0.0,0.0,0.0
1775763541289537254,26529,0.0,1.4,0.06,0.6,-0.08,-0.14,0.06,-1.0,1.63,0.0,-0.0,-0.39,0.12,-0.12,0.0,11973.44,201.0,0.0,0.0,0.0,0.0
1775763541389244262,26629,0.0,1.3,0.056,0.2,0.02,-0.27,0.06,-1.0,1.63,0.0,-0.0,-0.39,0.06,0.06,-0.06,11972.59,197.0,0.0,0.0,0.0,0.0
1775763541494978652,26729,0.0,1.3,0.036,0.2,0.04,-0.04,0.06,-1.0,1.63,0.0,-0.01,-0.38,-0.12,0.19,0.06,11970.87,197.0,0.0,0.0,0.0,0.0
1775763541594675972,26829,0.0,1.5,0.024,0.3,0.1,-0.02,0.06,-1.0,1.63,-0.01,-0.0,-0.35,0.06,-0.06,0.0,11969.5,189.0,0.0,0.0,0.0,0.0
1775763541694216565,26929,0.0,1.5,0.016,0.3,0.0,-0.04,0.06,-1.0,1.63,0.02,0.01,-0.39,0.06,-0.06,0.06,11969.33,194.0,0.0,0.0,0.0,0.0
1775763541798195791,27029,0.0,1.4,0.016,0.3,-0.1,-0.16,0.06,-1.0,1.63,-0.01,-0.02,-0.4,0.06,-0.06,-0.12,11973.79,194.0,0.0,0.0,0.0,0.0
1775763541901934022,27129,0.0,1.4,0.004,0.3,-0.06,-0.1,0.06,-1.0,1.63,0.0,-0.0,-0.4,-0.06,-0.0,-0.06,11971.56,196.0,0.0,0.0,0.0,0.0
1775763542007646162,27229,0.0,1.5,0.004,0.3,0.0,0.0,0.06,-1.0,1.63,0.0,-0.0,-0.38,0.12,-0.12,0.06,11972.59,196.0,0.0,0.0,0.0,0.0
1775763542101021966,27329,0.0,1.4,0.0,0.2,-0.04,-0.06,0.06,-1.0,1.63,0.0,-0.0,-0.38,-0.0,-0.12,-0.06,11972.24,195.0,0.0,0.0,0.0,0.0
1775763542210671133,27429,0.0,1.6,0.012,0.6,-0.12,-0.18,0.06,-1.0,1.63,-0.01,-0.0,-0.4,-0.0,-0.0,0.06,11972.93,195.0,0.0,0.0,0.0,0.0
1775763542302383822,27529,0.0,1.4,0.056,0.5,0.02,-0.06,0.06,-1.0,1.63,0.0,-0.0,-0.4,-0.06,-0.0,0.06,11969.84,195.0,0.0,0.0,0.0,0.0
1775763542405946733,27629,0.0,1.4,0.044,0.1,0.12,-0.2,0.06,-1.0,1.63,0.01,0.01,-0.39,-0.0,-0.0,0.06,11971.21,192.0,0.0,0.0,0.0,0.0
1775763542513338182,27729,0.0,1.5,0.024,0.3,-0.02,-0.1,0.06,-1.0,1.63,0.0,-0.0,-0.41,-0.06,-0.06,0.06,11970.19,190.0,0.0,0.0,0.0,0.0
1775763542606972393,27829,0.0,1.4,0.004,0.4,0.06,0.0,0.06,-1.0,1.63,0.03,-0.0,-0.38,-0.0,0.06,0.0,11961.61,190.0,0.0,0.0,0.0,0.0
1775763542716600136,27929,0.0,1.3,0.032,0.2,0.0,-0.12,0.06,-1.0,1.63,0.0,-0.0,-0.38,0.06,-0.0,-0.06,11969.5,194.0,0.0,0.0,0.0,0.0
1775763542810013690,28029,0.0,1.5,0.012,0.3,0.2,-0.31,0.06,-1.0,1.63,0.01,-0.0,-0.37,-0.0,0.06,0.12,11970.7,194.0,0.0,0.0,0.0,0.0
1775763542919637384,28129,0.0,1.3,0.012,0.5,-0.12,-0.06,0.06,-1.0,1.63,0.0,0.02,-0.38,-0.0,-0.0,0.06,11971.39,194.0,0.0,0.0,0.0,0.0
1775763543013104222,28229,0.0,1.5,0.0,0.3,0.04,-0.08,0.06,-1.0,1.63,0.0,-0.0,-0.39,-0.0,0.25,0.0,11968.81,193.0,0.0,0.0,0.0,0.0
1775763543112466235,28329,0.0,1.5,0.008,0.2,-0.1,-0.16,0.06,-1.0,1.63,0.0,-0.0,-0.38,-0.06,-0.0,-0.06,11971.21,193.0,0.0,0.0,0.0,0.0
1775763543215923865,28429,0.0,1.6,0.004,0.5,-0.02,0.0,0.06,-1.0,1.63,0.0,-0.01,-0.43,0.06,0.12,-0.06,11969.16,193.0,0.0,0.0,0.0,0.0
1775763543313513250,28529,0.0,1.6,0.056,0.3,-0.06,-0.18,0.06,-1.0,1.63,0.0,0.01,-0.39,-0.12,-0.0,0.0,11968.98,196.0,0.0,0.0,0.0,0.0
1775763543416887987,28630,0.0,1.2,0.044,0.3,0.14,-0.1,0.06,-1.0,1.63,0.02,0.01,-0.43,0.12,-0.12,0.06,11970.53,196.0,0.0,0.0,0.0,0.0
1775763543518042691,28730,0.0,1.4,0.024,0.4,-0.08,-0.2,0.06,-1.0,1.63,0.0,-0.0,-0.38,-0.19,0.12,0.0,11968.98,199.0,0.0,0.0,0.0,0.0
1775763543621552332,28830,0.0,1.4,0.016,0.5,-0.12,-0.08,0.06,-1.0,1.63,0.0,0.01,-0.42,0.06,0.12,0.0,11970.87,191.0,0.0,0.0,0.0,0.0
1775763543720963774,28930,0.0,1.1,0.012,0.5,0.0,-0.16,0.06,-1.0,1.63,0.01,0.01,-0.39,0.12,-0.06,-0.06,11971.73,191.0,0.0,0.0,0.0,0.0
1775763543824437836,29030,0.0,1.4,0.02,0.3,0.08,-0.16,0.06,-1.0,1.63,0.0,-0.0,-0.38,0.06,-0.06,0.06,11969.5,193.0,0.0,0.0,0.0,0.0
1775763543923815365,29130,0.0,1.6,0.012,0.3,0.0,-0.21,0.06,-1.0,1.63,0.01,-0.0,-0.43,-0.0,0.06,0.06,11970.36,195.0,0.0,0.0,0.0,0.0
1775763544023285203,29230,0.0,1.6,0.004,0.5,-0.06,-0.06,0.06,-1.0,1.63,0.0,-0.0,-0.43,-0.12,-0.0,0.19,11968.98,195.0,0.0,0.0,0.0,0.0
1775763544132574600,29329,0.0,1.2,0.008,0.3,-0.04,-0.21,0.06,-1.0,1.63,0.0,-0.0,-0.39,0.06,-0.19,0.06,11968.81,193.0,0.0,0.0,0.0,0.0
1775763544225832923,29429,0.0,1.4,0.012,0.5,-0.08,0.02,0.06,-1.0,1.63,0.0,-0.02,-0.41,0.12,-0.0,0.0,11968.47,193.0,0.0,0.0,0.0,0.0
1775763544327229865,29530,0.0,1.4,0.044,0.1,-0.02,-0.12,0.06,-1.0,1.63,0.0,-0.02,-0.38,-0.0,-0.0,0.0,11968.64,196.0,0.0,0.0,0.0,0.0
1775763544432386917,29630,0.0,1.6,0.048,0.5,-0.08,-0.16,0.06,-1.0,1.63,0.02,-0.0,-0.37,-0.12,-0.06,0.0,11968.64,191.0,0.0,0.0,0.0,0.0
1775763544537738787,29730,0.0,1.2,0.032,0.3,0.0,-0.06,0.06,-1.0,1.63,0.0,-0.01,-0.39,0.06,0.12,-0.06,11969.16,191.0,0.0,0.0,0.0,0.0
1775763544630881430,29831,0.0,1.4,0.02,0.2,-0.08,-0.1,0.06,-1.0,1.63,0.0,-0.0,-0.4,-0.0,-0.06,-0.06,11970.7,197.0,0.0,0.0,0.0,0.0
1775763544740263143,29931,0.0,1.5,0.02,0.2,-0.08,-0.08,0.06,-1.0,1.63,0.01,0.01,-0.4,-0.06,-0.0,0.06,11971.21,193.0,0.0,0.0,0.0,0.0
1775763544833496850,30031,0.0,1.7,0.008,0.5,0.02,-0.16,0.06,-1.0,1.63,0.0,-0.0,-0.42,-0.0,-0.06,-0.06,11969.67,193.0,0.0,0.0,0.0,0.0
1775763544942813873,30132,0.0,1.4,0.004,0.3,-0.06,-0.16,0.06,-1.0,1.63,0.0,-0.0,-0.4,-0.06,0.06,0.06,11968.13,198.0,0.0,0.0,0.0,0.0
1775763545035990195,30232,0.0,1.3,0.004,0.3,0.04,-0.08,0.06,-1.0,1.63,-0.01,-0.01,-0.4,-0.0,0.12,0.06,11968.64,199.0,0.0,0.0,0.0,0.0
1775763545145277897,30332,0.0,1.4,0.0,0.3,0.0,0.04,0.06,-1.0,1.63,0.02,-0.02,-0.41,-0.06,-0.06,0.0,11971.56,199.0,0.0,0.0,0.0,0.0
1775763545238337673,30432,0.0,1.3,0.012,0.4,0.02,-0.18,0.06,-1.0,1.63,0.03,-0.0,-0.4,-0.0,-0.0,0.06,11967.61,193.0,0.0,0.0,0.0,0.0
1775763545339714968,30532,0.0,1.2,0.056,0.5,-0.2,-0.16,0.06,-1.0,1.63,0.0,0.01,-0.41,0.06,-0.0,0.0,11970.19,193.0,0.0,0.0,0.0,0.0
1775763545438778994,30632,0.0,1.3,0.044,0.2,-0.06,-0.25,0.06,-1.0,1.63,0.0,-0.0,-0.37,0.06,-0.0,-0.06,11970.19,193.0,0.0,0.0,0.0,0.0
1775763545539758120,30732,0.0,1.3,0.032,0.5,0.12,-0.08,0.06,-1.0,1.63,0.02,-0.02,-0.39,0.12,-0.06,-0.12,11969.67,197.0,0.0,0.0,0.0,0.0
1775763545643137628,30832,0.0,1.3,0.012,0.3,-0.2,-0.14,0.06,-1.0,1.63,0.02,-0.0,-0.38,-0.0,-0.06,0.0,11970.01,197.0,0.0,0.0,0.0,0.0
1775763545742145607,30932,0.0,1.3,0.012,0.3,-0.04,-0.1,0.06,-1.0,1.63,0.0,-0.0,-0.39,-0.06,-0.06,0.06,11970.7,196.0,0.0,0.0,0.0,0.0
1775763545845381041,31032,0.0,1.4,0.012,0.3,0.12,-0.2,0.06,-1.0,1.63,-0.01,-0.0,-0.42,-0.06,0.12,-0.06,11970.7,193.0,0.0,0.0,0.0,0.0
1775763545944523050,31132,0.0,1.2,0.0,0.3,-0.12,-0.2,0.06,-1.0,1.63,0.02,-0.0,-0.39,-0.0,0.06,0.0,11970.7,193.0,0.0,0.0,0.0,0.0
1775763546047700344,31233,0.0,1.5,0.0,0.6,-0.04,-0.14,0.06,-1.0,1.63,0.0,-0.0,-0.38,-0.0,-0.06,0.06,11969.33,197.0,0.0,0.0,0.0,0.0
1775763546146701419,31333,0.0,1.3,0.004,0.3,0.18,-0.27,0.06,-1.0,1.63,0.01,-0.0,-0.38,-0.06,-0.06,-0.12,11969.84,195.0,0.0,0.0,0.0,0.0
1775763546249920931,31433,0.0,1.2,0.012,0.4,-0.08,-0.12,0.06,-1.0,1.63,0.0,-0.0,-0.4,0.12,-0.06,0.0,11973.96,195.0,0.0,0.0,0.0,0.0
1775763546347023316,31534,0.0,1.3,0.048,0.5,-0.12,-0.16,0.06,-1.0,1.63,0.0,-0.0,-0.4,0.06,-0.06,0.0,11971.39,192.0,0.0,0.0,0.0,0.0
1775763546450013946,31634,0.0,1.4,0.048,0.2,-0.06,-0.16,0.06,-1.0,1.63,0.0,-0.0,-0.39,-0.12,-0.06,-0.06,11972.41,192.0,0.0,0.0,0.0,0.0
1775763546550940902,31734,0.0,1.2,0.032,0.3,0.16,-0.16,0.06,-1.0,1.63,0.01,0.01,-0.38,-0.0,-0.19,-0.06,11972.76,197.0,0.0,0.0,0.0,0.0
1775763546660109796,31834,0.0,1.3,0.024,0.2,-0.06,-0.14,0.06,-1.0,1.63,0.0,-0.01,-0.36,-0.0,0.12,0.0,11971.56,198.0,0.0,0.0,0.0,0.0
1775763546753181053,31934,0.0,1.5,0.024,0.2,-0.14,-0.08,0.06,-1.0,1.63,0.02,0.01,-0.38,0.06,-0.06,0.06,11972.07,198.0,0.0,0.0,0.0,0.0
1775763546852109968,32034,0.0,1.3,0.008,0.6,-0.08,-0.08,0.06,-1.0,1.63,0.01,-0.0,-0.36,-0.0,0.06,0.06,11973.96,195.0,0.0,0.0,0.0,0.0
1775763546961287198,32134,0.0,1.5,0.012,0.2,0.16,-0.04,0.06,-1.0,1.63,-0.02,0.02,-0.36,0.12,-0.06,0.06,11973.62,199.0,0.0,0.0,0.0,0.0
1775763547054287910,32234,0.0,1.4,0.0,0.5,0.1,-0.14,0.06,-1.0,1.63,-0.01,-0.0,-0.39,0.06,-0.19,0.06,11972.59,199.0,0.0,0.0,0.0,0.0
1775763547163326346,32334,0.0,1.4,0.004,0.3,-0.16,-0.1,0.06,-1.0,1.63,0.0,-0.0,-0.38,-0.0,0.06,0.12,11970.19,196.0,0.0,0.0,0.0,0.0
1775763547256165065,32434,0.0,1.2,0.016,0.5,0.0,-0.18,0.06,-1.0,1.63,0.0,-0.0,-0.4,0.06,-0.12,0.0,11970.7,195.0,0.0,0.0,0.0,0.0
1775763547357291728,32534,0.0,1.4,0.056,0.2,0.06,-0.14,0.06,-1.0,1.63,0.02,-0.0,-0.38,-0.0,-0.19,0.0,11971.04,195.0,0.0,0.0,0.0,0.0
1775763547456262202,32633,0.0,1.6,0.04,0.0,-0.06,0.1,0.06,-1.0,1.63,0.0,0.01,-0.4,-0.0,0.12,0.06,11970.7,196.0,0.0,0.0,0.0,0.0
1775763547557099828,32733,0.0,1.2,0.032,0.3,0.04,-0.16,0.06,-1.0,1.63,-0.01,-0.01,-0.36,-0.0,-0.0,-0.06,11971.04,196.0,0.0,0.0,0.0,0.0
1775763547660051457,32833,0.0,1.5,0.02,0.4,-0.02,-0.14,0.06,-1.0,1.63,0.02,-0.0,-0.38,-0.0,-0.0,-0.06,11970.7,194.0,0.0,0.0,0.0,0.0
1775763547759004414,32933,0.0,1.5,0.024,0.4,-0.1,-0.08,0.06,-1.0,1.63,0.0,-0.0,-0.37,-0.0,-0.06,0.0,11969.33,192.0,0.0,0.0,0.0,0.0
1775763547868025930,33033,0.0,1.6,0.0,1.1,-0.06,0.02,0.06,-1.0,1.63,-0.01,0.01,-0.36,0.06,-0.0,0.0,11971.21,192.0,0.0,0.0,0.0,0.0
1775763547960923217,33133,0.0,0.6,0.008,0.3,0.02,-0.2,0.06,-1.0,1.63,0.0,-0.0,-0.39,0.12,-0.0,-0.06,11970.87,192.0,0.0,0.0,0.0,0.0
1775763548063932625,33233,0.0,1.0,0.008,0.7,0.2,-0.18,0.06,-1.0,1.63,0.02,-0.0,-0.36,-0.0,0.06,0.0,11969.84,198.0,0.0,0.0,0.0,0.0
1775763548162868745,33333,0.0,1.0,0.0,0.2,0.06,-0.08,0.06,-1.0,1.63,0.0,0.01,-0.36,0.12,-0.06,0.0,11970.36,198.0,0.0,0.0,0.0,0.0
1775763548261624662,33433,0.0,0.9,0.02,0.4,0.04,-0.12,0.06,-1.0,1.63,0.01,-0.01,-0.39,0.06,-0.06,0.12,11971.9,194.0,0.0,0.0,0.0,0.0
1775763548362651413,33533,0.0,0.9,0.068,0.3,0.04,-0.14,0.06,-1.0,1.63,0.01,0.01,-0.35,0.06,-0.06,0.06,11971.73,194.0,0.0,0.0,0.0,0.0
1775763548461459857,33633,0.0,0.8,0.04,0.5,-0.1,-0.14,0.06,-1.0,1.63,0.0,-0.0,-0.37,-0.06,-0.0,-0.06,11973.44,194.0,0.0,0.0,0.0,0.0
1775763548572369474,33733,0.0,1.5,0.028,0.0,0.04,-0.16,0.06,-1.0,1.63,0.0,-0.01,-0.37,-0.12,-0.06,-0.06,11971.56,195.0,0.0,0.0,0.0,0.0
1775763548671250088,33833,0.0,1.3,0.012,0.3,0.02,-0.18,0.06,-1.0,1.63,0.0,-0.0,-0.37,-0.12,-0.0,0.0,11972.24,195.0,0.0,0.0,0.0,0.0
1775763548764003337,33932,0.0,1.4,0.012,0.7,0.04,-0.14,0.06,-1.0,1.63,0.0,-0.01,-0.38,0.06,0.12,0.12,11972.41,193.0,0.0,0.0,0.0,0.0
1775763548873045482,34032,0.0,1.3,0.012,0.0,-0.06,-0.02,0.06,-1.0,1.63,0.0,0.01,-0.37,-0.0,0.12,0.06,11971.56,194.0,0.0,0.0,0.0,0.0
1775763548965956813,34132,0.0,1.5,0.012,0.3,0.12,-0.18,0.06,-1.0,1.63,0.01,-0.0,-0.37,-0.0,0.12,0.0,11973.27,194.0,0.0,0.0,0.0,0.0
1775763549064647714,34232,0.0,1.2,0.008,0.5,-0.18,-0.1,0.06,-1.0,1.63,0.0,-0.0,-0.38,0.12,0.06,0.06,11973.1,195.0,0.0,0.0,0.0,0.0
1775763549167558372,34332,0.0,1.2,0.008,0.3,-0.04,-0.16,0.06,-1.0,1.63,0.0,-0.01,-0.4,-0.0,-0.0,0.0,11970.36,193.0,0.0,0.0,0.0,0.0
1775763549276511604,34433,0.0,1.4,0.004,0.2,-0.04,-0.21,0.06,-1.0,1.63,0.0,-0.0,-0.38,-0.06,0.06,0.0,11974.13,193.0,0.0,0.0,0.0,0.0
1775763549367292548,34533,0.0,1.2,0.06,0.5,0.06,-0.08,0.06,-1.0,1.63,0.0,-0.0,-0.38,0.06,0.06,0.0,11971.39,191.0,0.0,0.0,0.0,0.0
1775763549466109859,34633,0.0,1.3,0.044,0.4,0.08,-0.23,0.06,-1.0,1.63,0.0,-0.0,-0.39,-0.0,0.06,-0.06,11970.87,196.0,0.0,0.0,0.0,0.0
1775763549576832555,34733,0.0,1.3,0.028,0.6,0.02,-0.2,0.06,-1.0,1.63,0.0,-0.0,-0.39,-0.12,0.12,-0.12,11974.13,196.0,0.0,0.0,0.0,0.0
1775763549669619833,34833,0.0,1.5,0.016,0.6,0.02,-0.33,0.06,-1.0,1.63,0.0,0.01,-0.39,-0.19,-0.0,-0.06,11968.81,193.0,0.0,0.0,0.0,0.0
1775763549770563753,34933,0.0,1.4,0.016,0.1,0.04,-0.16,0.06,-1.0,1.63,0.0,-0.0,-0.4,-0.12,-0.06,0.06,11971.73,193.0,0.0,0.0,0.0,0.0
1775763549877315631,35033,0.0,1.4,0.0,0.2,0.1,-0.21,0.06,-1.0,1.63,0.0,-0.0,-0.39,-0.12,0.06,0.0,11971.9,198.0,0.0,0.0,0.0,0.0
1775763549980192628,35133,0.0,1.4,0.008,0.5,0.12,-0.23,0.06,-1.0,1.63,0.0,0.01,-0.38,0.06,-0.06,0.0,11968.81,199.0,0.0,0.0,0.0,0.0
1775763550078933578,35233,0.0,1.4,0.008,0.4,0.02,-0.06,0.06,-1.0,1.63,0.0,-0.01,-0.37,0.12,-0.0,0.06,11972.59,199.0,0.0,0.0,0.0,0.0
1775763550181760061,35334,0.0,1.4,0.0,0.7,-0.14,-0.06,0.06,-1.0,1.63,0.0,-0.0,-0.35,0.06,-0.12,0.06,11975.33,200.0,0.0,0.0,0.0,0.0
1775763550280411002,35434,0.0,1.4,0.016,0.5,-0.1,-0.25,0.06,-1.0,1.63,0.0,-0.0,-0.39,-0.0,0.06,0.0,11973.1,197.0,0.0,0.0,0.0,0.0
1775763550375342788,35534,0.0,1.4,0.052,0.3,0.0,-0.04,0.06,-1.0,1.63,0.0,-0.0,-0.39,0.19,0.06,-0.06,11974.47,197.0,0.0,0.0,0.0,0.0
1775763550475835576,35635,0.0,1.5,0.036,0.6,-0.04,-0.06,0.06,-1.0,1.63,0.01,-0.0,-0.39,0.06,0.06,-0.06,11972.76,189.0,0.0,0.0,0.0,0.0
1775763550584800729,35734,0.0,0.7,0.036,0.6,-0.12,-0.06,0.06,-1.0,1.63,0.01,-0.0,-0.4,-0.0,0.12,0.0,11973.1,191.0,0.0,0.0,0.0,0.0
1775763550683561053,35834,0.0,1.2,0.016,0.4,0.0,-0.12,0.06,-1.0,1.63,0.01,-0.0,-0.35,-0.12,0.12,-0.06,11972.24,191.0,0.0,0.0,0.0,0.0
1775763550776222817,35935,0.0,1.1,0.02,0.2,-0.02,-0.18,0.06,-1.0,1.63,0.01,-0.0,-0.36,-0.0,0.25,0.06,11970.36,198.0,0.0,0.0,0.0,0.0
1775763550885151763,36035,0.0,1.0,0.008,0.7,0.06,-0.12,0.06,-1.0,1.63,0.0,0.02,-0.38,-0.0,0.25,0.12,11971.73,198.0,0.0,0.0,0.0,0.0
1775763550977751399,36134,0.0,1.0,0.0,0.2,-0.08,-0.08,0.06,-1.0,1.63,0.0,-0.0,-0.39,-0.06,-0.0,0.0,11971.73,196.0,0.0,0.0,0.0,0.0
1775763551076464318,36234,0.0,0.7,0.012,0.4,0.06,-0.1,0.06,-1.0,1.63,0.01,-0.0,-0.36,0.06,-0.06,0.06,11969.84,197.0,0.0,0.0,0.0,0.0
1775763551179292072,36334,0.0,0.9,0.004,0.3,-0.1,-0.14,0.06,-1.0,1.63,0.0,-0.0,-0.37,-0.06,-0.12,0.06,11971.73,197.0,0.0,0.0,0.0,0.0
1775763551277892748,36434,0.0,1.1,0.016,0.2,-0.1,-0.14,0.06,-1.0,1.63,0.0,-0.0,-0.36,-0.06,0.06,-0.06,11972.59,195.0,0.0,0.0,0.0,0.0
1775763551378768041,36534,0.0,1.2,0.056,0.2,0.02,-0.14,0.06,-1.0,1.63,0.0,-0.0,-0.37,-0.06,-0.0,-0.06,11969.33,190.0,0.0,0.0,0.0,0.0
1775763551477347082,36634,0.0,1.3,0.036,0.1,-0.04,-0.1,0.06,-1.0,1.63,0.0,-0.0,-0.38,-0.0,-0.12,-0.06,11971.39,190.0,0.0,0.0,0.0,0.0
1775763551582033045,36734,0.0,1.4,0.032,0.1,-0.06,-0.1,0.06,-1.0,1.63,0.01,-0.0,-0.39,-0.06,-0.06,-0.06,11970.36,196.0,0.0,0.0,0.0,0.0
1775763551680769104,36834,0.0,1.3,0.012,0.2,-0.1,-0.1,0.06,-1.0,1.63,0.02,-0.01,-0.41,-0.0,-0.06,-0.12,11970.7,188.0,0.0,0.0,0.0,0.0
1775763551783604051,36934,0.0,1.4,0.016,0.2,-0.02,-0.08,0.06,-1.0,1.63,0.0,-0.0,-0.36,-0.0,-0.19,0.06,11971.73,188.0,0.0,0.0,0.0,0.0
1775763551882198407,37033,0.0,1.2,0.016,0.3,0.06,-0.04,0.06,-1.0,1.63,0.0,0.01,-0.39,-0.0,-0.0,0.12,11973.27,195.0,0.0,0.0,0.0,0.0
1775763551980916102,37134,0.0,1.3,0.008,0.5,0.12,-0.04,0.06,-1.0,1.63,0.0,0.02,-0.4,0.06,-0.0,0.0,11974.3,195.0,0.0,0.0,0.0,0.0
1775763552089586016,37233,0.0,1.4,0.012,0.4,0.12,-0.14,0.06,-1.0,1.63,0.01,-0.0,-0.4,-0.06,-0.0,0.06,11969.67,197.0,0.0,0.0,0.0,0.0
1775763552182182266,37334,0.0,1.4,0.0,0.3,0.1,-0.04,0.06,-1.0,1.63,0.02,-0.0,-0.41,-0.06,-0.0,0.0,11970.19,194.0,0.0,0.0,0.0,0.0
1775763552282979948,37434,0.0,1.2,0.012,0.2,-0.02,0.02,0.06,-1.0,1.63,0.0,-0.0,-0.38,-0.0,-0.06,0.0,11971.9,194.0,0.0,0.0,0.0,0.0
1775763552381628669,37534,0.0,1.3,0.048,1.2,-0.06,-0.16,0.06,-1.0,1.63,0.0,0.01,-0.39,-0.0,-0.12,-0.06,11970.36,191.0,0.0,0.0,0.0,0.0
1775763552486203904,37634,0.0,1.0,0.052,0.5,-0.02,-0.08,0.06,-1.0,1.63,0.0,0.01,-0.37,0.06,-0.19,0.0,11968.81,192.0,0.0,0.0,0.0,0.0
1775763552590924398,37734,0.0,0.8,0.024,0.5,-0.08,-0.21,0.06,-1.0,1.63,-0.01,-0.0,-0.39,-0.06,0.19,0.0,11970.53,192.0,0.0,0.0,0.0,0.0
1775763552683475951,37834,0.0,1.1,0.024,0.5,-0.02,-0.06,0.06,-1.0,1.63,0.0,-0.0,-0.39,-0.0,0.06,0.19,11968.3,193.0,0.0,0.0,0.0,0.0
1775763552792226750,37934,0.0,1.0,0.016,0.3,-0.06,-0.14,0.06,-1.0,1.63,0.01,0.01,-0.4,-0.06,0.12,0.06,11969.5,193.0,0.0,0.0,0.0,0.0
1775763552884913401,38034,0.0,1.1,0.012,0.3,-0.02,-0.14,0.06,-1.0,1.63,0.02,-0.0,-0.39,0.06,-0.06,0.0,11969.67,193.0,0.0,0.0,0.0,0.0
1775763552983460520,38134,0.0,0.9,0.012,0.1,0.04,-0.04,0.06,-1.0,1.63,0.01,-0.0,-0.4,0.06,-0.06,0.06,11968.64,196.0,0.0,0.0,0.0,0.0
1775763553086215165,38234,0.0,1.1,0.004,0.1,0.08,0.08,0.06,-1.0,1.63,0.0,-0.0,-0.39,0.06,-0.06,0.0,11972.41,196.0,0.0,0.0,0.0,0.0
1775763553184701675,38334,0.0,1.1,0.0,0.5,-0.02,-0.06,0.06,-1.0,1.63,0.01,-0.01,-0.4,-0.0,0.12,0.06,11973.96,200.0,0.0,0.0,0.0,0.0
1775763553287392464,38434,0.0,1.1,0.02,0.5,-0.04,-0.18,0.06,-1.0,1.63,0.0,-0.02,-0.41,-0.0,0.12,0.0,11973.62,196.0,0.0,0.0,0.0,0.0
1775763553384036153,38534,0.0,0.9,0.056,0.3,-0.1,-0.1,0.06,-1.0,1.63,0.0,-0.01,-0.39,-0.06,0.06,-0.06,11974.47,196.0,0.0,0.0,0.0,0.0
1775763553486720795,38634,0.0,1.1,0.04,0.3,-0.08,-0.08,0.06,-1.0,1.63,0.0,-0.0,-0.4,-0.0,-0.06,0.06,11974.13,195.0,0.0,0.0,0.0,0.0
1775763553587191132,38734,0.0,0.9,0.04,0.4,-0.08,-0.18,0.06,-1.0,1.63,0.0,-0.0,-0.41,-0.06,-0.12,-0.06,11971.73,191.0,0.0,0.0,0.0,0.0
1775763553695922522,38834,0.0,1.0,0.02,0.0,-0.12,-0.14,0.06,-1.0,1.63,0.0,-0.0,-0.4,0.12,0.12,0.0,11973.44,191.0,0.0,0.0,0.0,0.0
1775763553788485964,38934,0.0,1.0,0.012,0.3,-0.08,-0.14,0.06,-1.0,1.63,0.0,-0.0,-0.38,-0.0,0.06,-0.12,11972.07,196.0,0.0,0.0,0.0,0.0
1775763553887003264,39034,0.0,1.2,0.004,0.2,0.0,0.02,0.06,-1.0,1.63,0.0,-0.01,-0.39,-0.0,-0.19,0.06,11971.56,192.0,0.0,0.0,0.0,0.0
1775763553995771813,39134,0.0,1.1,0.008,0.5,-0.12,-0.16,0.06,-1.0,1.63,0.0,0.02,-0.39,-0.0,0.12,0.06,11973.79,192.0,0.0,0.0,0.0,0.0
1775763554088298383,39234,0.0,1.1,0.008,0.6,-0.02,-0.04,0.06,-1.0,1.63,0.0,-0.0,-0.41,0.12,-0.06,-0.06,11973.44,195.0,0.0,0.0,0.0,0.0
1775763554196915902,39334,0.0,0.9,0.004,0.5,0.14,-0.06,0.06,-1.0,1.63,0.0,-0.01,-0.4,0.06,0.06,0.0,11973.44,195.0,0.0,0.0,0.0,0.0
1775763554295445796,39434,0.0,1.0,0.012,0.2,0.0,-0.12,0.06,-1.0,1.63,0.01,-0.0,-0.39,0.12,-0.12,0.0,11972.76,196.0,0.0,0.0,0.0,0.0
1775763554386202787,39533,0.0,1.0,0.052,0.3,-0.1,0.0,0.06,-1.0,1.63,0.0,0.01,-0.42,0.12,-0.12,-0.12,11972.76,198.0,0.0,0.0,0.0,0.0
1775763554490673282,39633,0.0,0.9,0.048,0.4,-0.12,-0.14,0.06,-1.0,1.63,0.0,0.01,-0.39,0.06,-0.0,-0.06,11973.62,198.0,0.0,0.0,0.0,0.0
1775763554589181809,39733,0.0,1.1,0.024,0.3,0.0,-0.18,0.06,-1.0,1.63,0.0,-0.0,-0.37,0.06,-0.06,0.0,11973.44,189.0,0.0,0.0,0.0,0.0
1775763554697863355,39833,0.0,1.2,0.016,0.3,-0.1,-0.18,0.06,-1.0,1.63,0.01,-0.0,-0.39,-0.06,0.12,0.06,11973.62,193.0,0.0,0.0,0.0,0.0
1775763554790519478,39933,0.0,1.4,0.004,0.5,-0.1,-0.23,0.06,-1.0,1.63,0.01,0.01,-0.39,-0.0,-0.12,-0.06,11974.3,193.0,0.0,0.0,0.0,0.0
1775763554899083235,40033,0.0,1.3,0.016,0.2,-0.06,-0.12,0.06,-1.0,1.63,-0.01,0.02,-0.37,-0.0,0.06,0.06,11973.27,194.0,0.0,0.0,0.0,0.0
1775763554991594485,40133,0.0,1.3,0.008,0.3,0.04,-0.12,0.06,-1.0,1.63,0.02,0.01,-0.41,-0.0,0.12,0.0,11972.07,196.0,0.0,0.0,0.0,0.0
1775763555090101478,40233,0.0,1.7,0.0,0.4,0.06,-0.12,0.06,-1.0,1.63,0.0,-0.01,-0.39,0.12,-0.06,0.0,11971.73,196.0,0.0,0.0,0.0,0.0
1775763555192732718,40333,0.0,1.4,0.012,0.5,0.04,-0.16,0.06,-1.0,1.63,0.03,0.02,-0.39,-0.0,-0.0,0.06,11971.04,191.0,0.0,0.0,0.0,0.0
1775763555291257863,40433,0.0,1.4,0.012,0.3,0.0,-0.23,0.06,-1.0,1.63,0.01,-0.0,-0.4,-0.0,-0.06,-0.06,11972.07,191.0,0.0,0.0,0.0,0.0
1775763555392076459,40534,0.0,1.1,0.056,0.2,-0.04,-0.14,0.06,-1.0,1.63,0.02,-0.0,-0.37,-0.0,0.06,-0.06,11972.93,196.0,0.0,0.0,0.0,0.0
1775763555490481828,40634,0.0,1.2,0.04,0.2,0.04,-0.06,0.06,-1.0,1.63,0.0,-0.0,-0.39,-0.0,0.06,0.06,11970.87,200.0,0.0,0.0,0.0,0.0
1775763555595063934,40734,0.0,1.7,0.02,0.5,0.06,-0.12,0.06,-1.0,1.63,0.01,0.01,-0.37,-0.0,0.06,0.0,11970.7,200.0,0.0,0.0,0.0,0.0
1775763555693500834,40835,0.0,1.4,0.02,0.5,-0.08,-0.04,0.06,-1.0,1.63,0.02,-0.02,-0.38,0.06,-0.0,-0.06,11971.39,196.0,0.0,0.0,0.0,0.0
1775763555796132371,40935,0.0,1.5,0.02,0.2,0.02,-0.18,0.06,-1.0,1.63,0.0,-0.0,-0.39,-0.0,-0.06,0.06,11969.16,198.0,0.0,0.0,0.0,0.0
1775763555894715399,41035,0.0,1.3,0.008,0.5,0.0,0.04,0.06,-1.0,1.63,0.01,-0.02,-0.38,0.06,0.12,-0.06,11973.79,198.0,0.0,0.0,0.0,0.0
1775763556003210487,41135,0.0,1.5,0.008,0.5,-0.04,-0.06,0.06,-1.0,1.63,0.0,-0.0,-0.41,0.06,0.25,0.0,11972.93,199.0,0.0,0.0,0.0,0.0
1775763556101748052,41235,0.0,1.3,0.004,0.4,0.0,0.08,0.06,-1.0,1.63,0.0,-0.0,-0.38,-0.0,0.06,0.0,11972.59,191.0,0.0,0.0,0.0,0.0
1775763556204353636,41335,0.0,1.3,0.0,0.6,-0.06,-0.14,0.06,-1.0,1.63,0.0,-0.01,-0.39,-0.0,0.06,-0.12,11974.64,191.0,0.0,0.0,0.0,0.0
1775763556296804507,41436,0.0,1.2,0.012,0.5,0.04,-0.18,0.06,-1.0,1.63,0.0,-0.0,-0.4,-0.06,-0.0,0.06,11972.93,194.0,0.0,0.0,0.0,0.0
1775763556397456222,41536,0.0,1.3,0.06,0.1,-0.08,-0.2,0.06,-1.0,1.63,0.0,-0.0,-0.36,-0.12,0.19,-0.06,11974.13,194.0,0.0,0.0,0.0,0.0
1775763556501936304,41636,0.0,1.4,0.044,0.4,-0.12,-0.16,0.06,-1.0,1.63,0.0,-0.0,-0.4,0.06,0.06,0.0,11975.16,199.0,0.0,0.0,0.0,0.0
1775763556606438222,41736,0.0,1.4,0.032,0.4,-0.02,-0.27,0.06,-1.0,1.63,0.0,-0.01,-0.39,-0.06,0.06,0.06,11971.9,200.0,0.0,0.0,0.0,0.0
1775763556704929812,41836,0.0,1.4,0.02,0.5,-0.06,-0.08,0.06,-1.0,1.63,0.01,-0.0,-0.37,-0.0,-0.12,-0.06,11974.99,200.0,0.0,0.0,0.0,0.0
1775763556797440127,41936,0.0,1.1,0.024,0.2,-0.1,-0.1,0.06,-1.0,1.63,0.0,-0.0,-0.4,-0.0,-0.12,-0.06,11974.64,192.0,0.0,0.0,0.0,0.0
1775763556906011271,42036,0.0,1.3,0.008,0.5,-0.18,-0.14,0.06,-1.0,1.63,0.0,-0.0,-0.4,-0.06,-0.06,-0.12,11973.44,193.0,0.0,0.0,0.0,0.0
1775763556998600679,42136,0.0,1.3,0.004,0.3,0.04,-0.16,0.06,-1.0,1.63,0.01,-0.0,-0.39,-0.0,-0.06,0.0,11974.3,193.0,0.0,0.0,0.0,0.0
1775763557107057756,42236,0.0,1.3,0.004,0.2,0.12,-0.12,0.06,-1.0,1.63,0.0,0.01,-0.36,0.06,-0.0,-0.06,11972.41,192.0,0.0,0.0,0.0,0.0
1775763557199558289,42336,0.0,1.3,0.008,0.5,0.06,-0.18,0.06,-1.0,1.63,0.01,0.02,-0.38,-0.06,-0.0,-0.06,11972.41,195.0,0.0,0.0,0.0,0.0
1775763557308113030,42436,0.0,1.4,0.024,0.5,0.08,-0.08,0.06,-1.0,1.63,0.0,-0.0,-0.35,0.06,0.12,-0.12,11972.93,195.0,0.0,0.0,0.0,0.0
1775763557398714260,42536,0.0,1.1,0.044,0.3,-0.08,-0.16,0.06,-1.0,1.63,0.0,-0.01,-0.39,-0.0,-0.0,0.06,11971.21,201.0,0.0,0.0,0.0,0.0
1775763557501170044,42636,0.0,1.4,0.036,0.2,-0.08,-0.16,0.06,-1.0,1.63,0.01,-0.01,-0.38,0.12,-0.06,0.0,11973.79,201.0,0.0,0.0,0.0,0.0
1775763557601535693,42736,0.0,1.1,0.028,0.3,-0.08,-0.2,0.06,-1.0,1.63,0.0,0.01,-0.39,0.06,-0.06,0.12,11973.44,198.0,0.0,0.0,0.0,0.0
1775763557700030753,42836,0.0,1.4,0.028,0.7,-0.06,-0.18,0.06,-1.0,1.63,-0.01,-0.0,-0.37,-0.06,-0.06,0.12,11969.5,193.0,0.0,0.0,0.0,0.0
1775763557802708159,42936,0.0,1.3,0.008,0.5,-0.14,-0.18,0.06,-1.0,1.63,0.0,-0.0,-0.39,0.06,0.06,0.06,11972.76,193.0,0.0,0.0,0.0,0.0
1775763557901081111,43036,0.0,1.1,0.012,0.3,0.12,-0.12,0.06,-1.0,1.63,0.01,-0.0,-0.38,0.06,-0.06,0.06,11974.99,198.0,0.0,0.0,0.0,0.0
1775763558003645681,43137,0.0,1.4,0.012,0.5,-0.06,-0.08,0.06,-1.0,1.63,0.01,-0.01,-0.37,0.19,0.06,0.06,11973.1,196.0,0.0,0.0,0.0,0.0
1775763558102194506,43237,0.0,1.4,0.004,0.1,0.06,-0.14,0.06,-1.0,1.63,0.0,-0.0,-0.39,0.12,-0.12,0.12,11973.62,196.0,0.0,0.0,0.0,0.0
1775763558210649470,43336,0.0,1.2,0.012,0.4,-0.14,-0.14,0.06,-1.0,1.63,0.01,-0.0,-0.38,-0.0,-0.0,0.0,11973.44,191.0,0.0,0.0,0.0,0.0
1775763558309060950,43437,0.0,1.3,0.004,0.3,-0.08,-0.12,0.06,-1.0,1.63,0.0,-0.0,-0.37,-0.0,-0.0,0.0,11974.99,194.0,0.0,0.0,0.0,0.0
1775763558403692388,43537,0.0,1.2,0.048,0.5,0.04,-0.2,0.06,-1.0,1.63,0.0,0.01,-0.36,0.06,-0.06,0.0,11973.96,194.0,0.0,0.0,0.0,0.0
1775763558508148070,43637,0.0,1.3,0.032,0.2,-0.08,-0.08,0.06,-1.0,1.63,0.0,-0.01,-0.39,-0.0,-0.06,0.0,11972.93,194.0,0.0,0.0,0.0,0.0
1775763558602604460,43737,0.0,1.2,0.024,0.5,0.04,-0.16,0.06,-1.0,1.63,0.0,-0.0,-0.37,0.06,0.06,0.12,11973.44,194.0,0.0,0.0,0.0,0.0
1775763558711054213,43837,0.0,1.4,0.02,0.3,0.0,-0.12,0.06,-1.0,1.63,0.0,-0.0,-0.38,0.12,-0.12,0.0,11974.82,197.0,0.0,0.0,0.0,0.0
1775763558803503998,43937,0.0,1.2,0.016,0.6,0.0,-0.16,0.06,-1.0,1.63,0.01,0.01,-0.38,-0.06,0.06,-0.06,11974.13,193.0,0.0,0.0,0.0,0.0
1775763558912074573,44037,0.0,1.4,0.016,0.0,-0.04,-0.27,0.06,-1.0,1.63,0.0,0.01,-0.39,0.06,-0.0,-0.06,11975.33,193.0,0.0,0.0,0.0,0.0
1775763559004485368,44137,0.0,1.4,0.0,0.2,0.06,-0.23,0.06,-1.0,1.63,0.0,-0.0,-0.38,-0.06,-0.0,0.06,11973.44,196.0,0.0,0.0,0.0,0.0
1775763559102901740,44237,0.0,1.3,0.016,0.3,-0.21,-0.16,0.06,-1.0,1.63,0.01,0.01,-0.38,-0.0,-0.06,-0.06,11974.13,195.0,0.0,0.0,0.0,0.0
1775763559205522528,44337,0.0,1.4,0.012,0.5,-0.04,-0.12,0.06,-1.0,1.63,0.0,-0.0,-0.39,-0.0,-0.06,0.0,11973.62,195.0,0.0,0.0,0.0,0.0
1775763559303842408,44437,0.0,1.3,0.016,0.4,0.04,-0.12,0.06,-1.0,1.63,0.0,-0.0,-0.37,0.12,-0.12,0.0,11974.3,195.0,0.0,0.0,0.0,0.0
1775763559404476141,44537,0.0,1.4,0.056,0.4,-0.1,-0.04,0.06,-1.0,1.63,0.0,-0.0,-0.37,0.12,-0.0,-0.12,11974.47,194.0,0.0,0.0,0.0,0.0
1775763559502851128,44637,0.0,1.7,0.036,0.0,-0.14,0.0,0.06,-1.0,1.63,0.0,-0.0,-0.37,-0.06,0.19,0.06,11976.36,194.0,0.0,0.0,0.0,0.0
1775763559613293972,44736,0.0,1.2,0.016,0.3,0.12,-0.23,0.06,-1.0,1.63,0.01,-0.02,-0.39,0.12,-0.12,-0.06,11974.64,199.0,0.0,0.0,0.0,0.0
1775763559711865205,44836,0.0,1.1,0.02,0.5,0.08,-0.16,0.06,-1.0,1.63,0.0,-0.0,-0.38,-0.0,-0.06,0.0,11974.99,199.0,0.0,0.0,0.0,0.0
1775763559804156932,44937,0.0,0.9,0.016,0.3,-0.08,-0.18,0.06,-1.0,1.63,0.0,-0.0,-0.39,-0.0,-0.06,0.06,11975.16,198.0,0.0,0.0,0.0,0.0
1775763559912708083,45037,0.0,0.9,0.02,0.5,0.06,-0.04,0.06,-1.0,1.63,0.0,0.01,-0.39,0.06,-0.19,0.12,11973.44,200.0,0.0,0.0,0.0,0.0
1775763560005201400,45137,0.0,1.0,0.008,0.1,0.0,-0.14,0.06,-1.0,1.63,0.03,-0.0,-0.37,-0.0,-0.19,0.06,11975.16,200.0,0.0,0.0,0.0,0.0
1775763560113688032,45237,0.0,0.9,0.008,0.1,0.02,-0.16,0.06,-1.0,1.63,-0.01,-0.0,-0.37,0.06,-0.0,0.0,11974.47,194.0,0.0,0.0,0.0,0.0
1775763560206040428,45337,0.0,1.1,0.008,0.2,-0.06,-0.18,0.06,-1.0,1.63,0.0,-0.0,-0.38,-0.0,0.06,0.06,11974.13,199.0,0.0,0.0,0.0,0.0
1775763560304512874,45437,0.0,1.1,0.024,0.3,-0.06,-0.06,0.06,-1.0,1.63,0.01,-0.0,-0.39,-0.12,-0.06,0.0,11974.64,199.0,0.0,0.0,0.0,0.0
1775763560405079846,45536,0.0,1.1,0.06,0.2,-0.08,-0.16,0.06,-1.0,1.63,-0.01,-0.01,-0.37,0.06,0.06,0.0,11973.44,191.0,0.0,0.0,0.0,0.0
1775763560509364094,45636,0.0,1.0,0.048,0.6,-0.04,-0.04,0.06,-1.0,1.63,0.0,-0.01,-0.36,-0.12,0.06,-0.06,11974.47,192.0,0.0,0.0,0.0,0.0
1775763560613822645,45736,0.0,1.0,0.028,0.2,0.06,-0.21,0.06,-1.0,1.63,0.0,0.02,-0.39,0.06,0.19,-0.06,11974.99,192.0,0.0,0.0,0.0,0.0
1775763560706279230,45836,0.0,1.0,0.012,0.5,-0.04,-0.04,0.06,-1.0,1.63,0.0,-0.02,-0.41,0.12,-0.0,-0.06,11973.96,198.0,0.0,0.0,0.0,0.0
1775763560814801642,45936,0.0,1.1,0.024,0.4,0.0,-0.12,0.06,-1.0,1.63,0.0,-0.02,-0.38,-0.06,-0.06,-0.06,11975.16,198.0,0.0,0.0,0.0,0.0
1775763560907267478,46035,0.0,1.1,0.004,0.5,0.1,-0.04,0.06,-1.0,1.63,0.01,-0.0,-0.37,-0.06,0.06,0.06,11975.5,192.0,0.0,0.0,0.0,0.0
1775763561005614670,46135,0.0,0.9,0.0,0.2,-0.02,-0.21,0.06,-1.0,1.63,0.0,0.01,-0.38,-0.06,-0.06,-0.06,11974.13,198.0,0.0,0.0,0.0,0.0
1775763561108182732,46235,0.0,0.9,0.012,0.3,0.16,0.0,0.06,-1.0,1.63,0.0,-0.0,-0.37,0.06,-0.06,0.06,11974.47,198.0,0.0,0.0,0.0,0.0
1775763561206503204,46336,0.0,1.1,0.0,0.6,0.0,-0.04,0.06,-1.0,1.63,0.01,0.01,-0.4,0.12,0.12,0.12,11975.5,194.0,0.0,0.0,0.0,0.0
1775763561308984034,46436,0.0,1.1,0.028,0.3,0.12,-0.16,0.06,-1.0,1.63,-0.02,-0.0,-0.39,0.06,-0.0,0.0,11973.62,194.0,0.0,0.0,0.0,0.0
1775763561405492353,46536,0.0,1.1,0.056,0.2,-0.08,-0.2,0.06,-1.0,1.63,0.03,-0.02,-0.38,0.06,-0.0,0.0,11973.96,194.0,0.0,0.0,0.0,0.0
1775763561507960041,46637,0.0,0.7,0.044,0.3,-0.04,-0.21,0.06,-1.0,1.63,0.0,-0.0,-0.39,-0.06,-0.06,0.06,11975.16,194.0,0.0,0.0,0.0,0.0
1775763561608243421,46737,0.0,0.9,0.036,0.5,-0.02,-0.14,0.06,-1.0,1.63,0.01,-0.01,-0.41,-0.06,0.12,0.0,11972.41,196.0,0.0,0.0,0.0,0.0
1775763561710895471,46837,0.0,0.9,0.016,0.5,-0.12,-0.1,0.06,-1.0,1.63,0.01,-0.0,-0.36,0.12,0.06,0.06,11974.82,196.0,0.0,0.0,0.0,0.0
1775763561809174922,46938,0.0,0.9,0.02,0.4,0.04,-0.21,0.06,-1.0,1.63,0.0,-0.0,-0.39,0.12,0.06,-0.06,11974.99,195.0,0.0,0.0,0.0,0.0
1775763561911789066,47038,0.0,1.0,0.0,0.6,-0.14,-0.06,0.06,-1.0,1.63,0.01,-0.01,-0.38,-0.0,0.06,0.0,11977.04,195.0,0.0,0.0,0.0,0.0
1775763562010066618,47138,0.0,0.9,0.004,0.2,0.08,-0.1,0.06,-1.0,1.63,0.01,-0.0,-0.41,-0.06,-0.0,0.0,11976.19,197.0,0.0,0.0,0.0,0.0
1775763562118565991,47238,0.0,1.1,0.008,0.5,-0.04,-0.08,0.06,-1.0,1.63,0.02,-0.0,-0.38,-0.12,-0.19,0.0,11973.79,196.0,0.0,0.0,0.0,0.0
1775763562216973563,47338,0.0,0.9,0.008,0.3,-0.1,-0.08,0.06,-1.0,1.63,-0.01,0.01,-0.38,0.06,-0.06,0.0,11975.84,196.0,0.0,0.0,0.0,0.0
1775763562309306610,47437,0.0,1.1,0.02,0.2,0.02,-0.08,0.06,-1.0,1.63,0.0,0.01,-0.37,0.06,0.12,-0.06,11977.22,194.0,0.0,0.0,0.0,0.0
1775763562409886661,47537,0.0,1.0,0.052,0.6,-0.02,-0.08,0.06,-1.0,1.63,0.01,-0.0,-0.39,-0.0,0.06,-0.06,11974.99,193.0,0.0,0.0,0.0,0.0
1775763562508235406,47637,0.0,0.9,0.044,0.3,-0.04,0.0,0.06,-1.0,1.63,0.01,-0.0,-0.39,-0.06,0.06,0.0,11973.27,193.0,0.0,0.0,0.0,0.0
1775763562608538243,47737,0.0,1.0,0.036,0.5,0.0,-0.21,0.06,-1.0,1.63,0.0,-0.02,-0.4,0.06,-0.06,0.0,11971.04,197.0,0.0,0.0,0.0,0.0
1775763562711037022,47837,0.0,0.9,0.024,0.5,0.04,-0.18,0.06,-1.0,1.63,0.0,-0.0,-0.4,-0.0,-0.0,0.0,11972.76,196.0,0.0,0.0,0.0,0.0
1775763562809468986,47937,0.0,1.0,0.02,0.1,0.0,-0.02,0.06,-1.0,1.63,0.01,-0.0,-0.4,0.06,-0.06,0.06,11972.93,196.0,0.0,0.0,0.0,0.0
1775763562911902877,48037,0.0,0.9,0.008,0.5,-0.06,-0.06,0.06,-1.0,1.63,0.0,-0.0,-0.4,-0.12,-0.06,0.0,11971.39,192.0,0.0,0.0,0.0,0.0
1775763563010395509,48137,0.0,1.1,0.0,0.3,-0.04,-0.14,0.06,-1.0,1.63,0.0,-0.0,-0.39,-0.12,-0.0,0.0,11974.3,192.0,0.0,0.0,0.0,0.0
1775763563112762014,48237,0.0,1.1,0.008,0.5,-0.16,-0.1,0.06,-1.0,1.63,0.0,-0.0,-0.4,-0.06,-0.06,0.06,11973.44,195.0,0.0,0.0,0.0,0.0
1775763563211137501,48337,0.0,0.8,0.008,0.5,0.02,-0.1,0.06,-1.0,1.63,0.01,-0.0,-0.42,-0.06,-0.06,0.0,11969.5,193.0,0.0,0.0,0.0,0.0
1775763563309518177,48437,0.0,0.7,0.024,0.2,-0.02,-0.06,0.06,-1.0,1.63,0.0,0.01,-0.41,-0.0,-0.25,0.0,11971.73,193.0,0.0,0.0,0.0,0.0
1775763563410124569,48537,0.0,0.7,0.056,0.1,0.06,-0.18,0.06,-1.0,1.63,0.0,-0.01,-0.39,0.06,-0.12,-0.06,11971.56,200.0,0.0,0.0,0.0,0.0
1775763563508493866,48637,0.0,1.1,0.032,0.3,-0.08,-0.1,0.06,-1.0,1.63,0.0,-0.0,-0.41,-0.06,0.12,-0.12,11972.07,197.0,0.0,0.0,0.0,0.0
1775763563618733288,48737,0.0,0.9,0.024,0.1,0.0,-0.2,0.06,-1.0,1.63,0.0,-0.01,-0.38,-0.06,0.06,-0.06,11975.16,197.0,0.0,0.0,0.0,0.0
1775763563717217837,48836,0.0,1.0,0.024,0.3,-0.16,-0.12,0.06,-1.0,1.63,0.0,-0.0,-0.41,0.12,0.06,0.0,11974.64,191.0,0.0,0.0,0.0,0.0
1775763563809741639,48936,0.0,1.0,0.012,0.4,-0.14,-0.14,0.06,-1.0,1.63,0.0,0.01,-0.39,0.06,-0.12,-0.06,11973.96,191.0,0.0,0.0,0.0,0.0
1775763563918068409,49036,0.0,1.1,0.016,0.3,-0.06,-0.16,0.06,-1.0,1.63,0.02,-0.0,-0.38,0.12,0.06,0.06,11974.3,197.0,0.0,0.0,0.0,0.0
1775763564010427931,49136,0.0,0.6,0.008,0.2,-0.14,-0.06,0.06,-1.0,1.63,0.0,-0.0,-0.4,-0.0,-0.0,0.0,11972.76,189.0,0.0,0.0,0.0,0.0
1775763564108791256,49235,0.0,0.9,0.016,0.6,0.06,-0.1,0.06,-1.0,1.63,0.01,0.01,-0.4,-0.0,0.06,-0.12,11973.96,189.0,0.0,0.0,0.0,0.0
1775763564211244127,49334,0.0,0.9,0.004,0.3,-0.1,-0.21,0.06,-1.0,1.63,0.0,-0.01,-0.37,-0.06,-0.0,-0.06,11973.27,199.0,0.0,0.0,0.0,0.0
1775763564309585123,49434,0.0,1.0,0.02,0.3,0.04,-0.04,0.06,-1.0,1.63,0.01,-0.0,-0.39,-0.0,-0.06,0.0,11974.13,195.0,0.0,0.0,0.0,0.0
1775763564406089044,49534,0.0,0.7,0.056,0.8,0.02,-0.16,0.06,-1.0,1.63,0.0,0.01,-0.37,0.06,-0.0,-0.06,11974.3,195.0,0.0,0.0,0.0,0.0
1775763564514512175,49633,0.0,0.7,0.052,0.4,0.08,0.0,0.06,-1.0,1.63,0.0,0.01,-0.39,-0.12,0.12,0.0,11972.59,197.0,0.0,0.0,0.0,0.0
1775763564608793366,49733,0.0,1.2,0.02,0.2,0.02,-0.12,0.06,-1.0,1.63,-0.02,-0.01,-0.35,-0.12,0.12,0.06,11972.59,199.0,0.0,0.0,0.0,0.0
1775763564711326437,49833,0.0,1.0,0.028,0.3,-0.02,-0.2,0.06,-1.0,1.63,0.0,-0.0,-0.39,-0.06,0.12,0.0,11974.3,199.0,0.0,0.0,0.0,0.0
1775763564815666563,49933,0.0,1.0,0.02,0.3,-0.06,-0.18,0.06,-1.0,1.63,0.01,-0.01,-0.39,-0.0,-0.12,0.12,11972.41,198.0,0.0,0.0,0.0,0.0
1775763564918125568,50033,0.0,1.1,0.016,0.6,-0.06,-0.08,0.06,-1.0,1.63,0.0,0.01,-0.38,-0.06,-0.06,0.12,11971.73,189.0,0.0,0.0,0.0,0.0
1775763565016419918,50134,0.0,0.9,0.016,0.6,-0.06,-0.02,0.06,-1.0,1.63,0.0,-0.01,-0.38,-0.12,-0.12,-0.06,11975.16,189.0,0.0,0.0,0.0,0.0
1775763565118934546,50234,0.0,1.0,0.004,0.5,-0.02,-0.06,0.06,-1.0,1.63,0.02,-0.0,-0.38,-0.06,0.06,0.0,11972.93,194.0,0.0,0.0,0.0,0.0
1775763565217302629,50334,0.0,1.1,0.004,0.2,-0.04,-0.1,0.06,-1.0,1.63,0.0,-0.0,-0.37,-0.12,-0.0,0.0,11973.96,194.0,0.0,0.0,0.0,0.0
1775763565309646903,50435,0.0,0.9,0.016,0.2,-0.08,-0.16,0.06,-1.0,1.63,0.0,0.01,-0.36,-0.0,-0.0,0.06,11973.62,194.0,0.0,0.0,0.0,0.0
1775763565410190215,50535,0.0,0.9,0.056,0.0,0.0,-0.08,0.06,-1.0,1.63,0.0,-0.0,-0.38,-0.0,-0.19,0.0,11972.07,194.0,0.0,0.0,0.0,0.0
1775763565512580235,50635,0.0,0.6,0.056,0.5,0.02,-0.12,0.06,-1.0,1.63,0.0,-0.0,-0.39,-0.06,-0.0,0.0,11974.13,194.0,0.0,0.0,0.0,0.0
1775763565618804477,50736,0.0,1.1,0.028,0.5,-0.06,-0.12,0.06,-1.0,1.63,0.01,-0.0,-0.39,-0.06,-0.12,-0.06,11971.73,193.0,0.0,0.0,0.0,0.0
1775763565721352958,50836,0.0,0.9,0.024,0.4,-0.02,-0.12,0.06,-1.0,1.63,0.0,0.01,-0.39,0.06,0.25,0.06,11971.04,196.0,0.0,0.0,0.0,0.0
1775763565813779630,50936,0.0,1.0,0.016,0.2,0.1,-0.16,0.06,-1.0,1.63,0.0,-0.0,-0.38,-0.0,0.06,0.0,11971.39,196.0,0.0,0.0,0.0,0.0
1775763565922165629,51037,0.0,0.7,0.012,0.2,0.18,-0.12,0.06,-1.0,1.63,0.0,-0.0,-0.36,0.06,0.06,0.0,11972.93,197.0,0.0,0.0,0.0,0.0
1775763566014590469,51137,0.0,1.0,0.02,0.3,-0.02,-0.21,0.06,-1.0,1.63,0.01,-0.0,-0.38,-0.0,0.06,-0.12,11971.9,197.0,0.0,0.0,0.0,0.0
1775763566112833921,51237,0.0,0.9,0.008,0.6,-0.06,-0.06,0.06,-1.0,1.63,0.0,-0.01,-0.39,0.12,0.06,0.0,11970.36,190.0,0.0,0.0,0.0,0.0
1775763566215302016,51337,0.0,0.7,0.012,0.3,0.02,-0.18,0.06,-1.0,1.63,0.0,-0.0,-0.38,-0.0,-0.0,0.06,11971.73,193.0,0.0,0.0,0.0,0.0
1775763566313728096,51437,0.0,1.1,0.024,0.5,-0.06,-0.12,0.06,-1.0,1.63,0.0,-0.0,-0.41,-0.12,-0.0,0.0,11972.41,193.0,0.0,0.0,0.0,0.0
1775763566414188384,51536,0.0,0.7,0.056,0.3,-0.1,-0.25,0.06,-1.0,1.63,0.01,-0.0,-0.38,-0.19,0.06,0.0,11972.59,193.0,0.0,0.0,0.0,0.0
1775763566512571905,51636,0.0,0.8,0.04,0.5,-0.04,-0.16,0.06,-1.0,1.63,0.0,-0.0,-0.38,-0.06,-0.0,0.0,11971.73,191.0,0.0,0.0,0.0,0.0
1775763566612715796,51736,0.0,1.0,0.04,0.3,-0.02,-0.12,0.06,-1.0,1.63,0.02,-0.0,-0.38,-0.12,0.06,-0.06,11971.9,191.0,0.0,0.0,0.0,0.0
1775763566715218723,51836,0.0,1.0,0.0,1.4,0.08,-0.14,0.06,-1.0,1.63,0.02,0.02,-0.39,0.06,-0.12,-0.06,11970.53,195.0,0.0,0.0,0.0,0.0
1775763566813589442,51936,0.0,1.2,0.008,0.3,0.02,-0.18,0.06,-1.0,1.63,0.0,0.01,-0.38,0.06,-0.06,0.06,11970.36,193.0,0.0,0.0,0.0,0.0
1775763566922118717,52036,0.0,1.2,0.016,0.3,-0.1,0.0,0.06,-1.0,1.63,0.01,-0.0,-0.38,-0.0,0.06,0.0,11972.41,193.0,0.0,0.0,0.0,0.0
1775763567014387253,52136,0.0,1.0,0.012,0.5,0.04,-0.16,0.06,-1.0,1.63,-0.01,-0.0,-0.38,-0.12,-0.0,-0.12,11969.5,197.0,0.0,0.0,0.0,0.0
1775763567122846224,52236,0.0,1.4,0.004,0.4,0.1,-0.18,0.06,-1.0,1.63,0.0,-0.0,-0.39,0.12,0.06,0.0,11970.36,201.0,0.0,0.0,0.0,0.0
1775763567221124885,52336,0.0,1.4,0.004,0.5,-0.04,-0.14,0.06,-1.0,1.63,0.0,-0.0,-0.38,0.12,0.12,0.06,11972.76,201.0,0.0,0.0,0.0,0.0
1775763567313513258,52436,0.0,1.4,0.016,0.1,0.02,-0.1,0.06,-1.0,1.63,0.01,-0.0,-0.4,-0.06,-0.0,0.0,11970.7,195.0,0.0,0.0,0.0,0.0
1775763567414057658,52536,0.0,1.5,0.052,0.5,-0.18,-0.08,0.06,-1.0,1.63,0.01,-0.01,-0.37,-0.12,0.19,-0.12,11973.1,195.0,0.0,0.0,0.0,0.0
1775763567512341192,52636,0.0,1.4,0.052,0.5,-0.04,-0.16,0.06,-1.0,1.63,0.01,0.02,-0.39,-0.12,-0.25,0.06,11971.39,194.0,0.0,0.0,0.0,0.0
1775763567622693833,52737,0.0,0.9,0.028,0.6,0.0,-0.02,0.06,-1.0,1.63,0.0,0.01,-0.38,-0.0,0.06,0.0,11970.87,193.0,0.0,0.0,0.0,0.0
1775763567715167799,52837,0.0,1.1,0.02,0.3,-0.06,-0.08,0.06,-1.0,1.63,0.0,-0.0,-0.38,-0.06,-0.0,0.06,11972.59,193.0,0.0,0.0,0.0,0.0
1775763567823499455,52937,0.0,1.0,0.032,0.6,0.06,-0.2,0.06,-1.0,1.63,0.01,-0.01,-0.37,-0.06,-0.0,0.12,11971.56,195.0,0.0,0.0,0.0,0.0
1775763567915895276,53037,0.0,0.9,0.0,0.5,0.08,-0.16,0.06,-1.0,1.63,0.0,-0.0,-0.39,0.12,0.06,-0.12,11971.21,197.0,0.0,0.0,0.0,0.0
1775763568024356740,53137,0.0,1.0,0.012,0.5,0.02,-0.12,0.06,-1.0,1.63,0.0,-0.0,-0.34,0.06,-0.12,0.06,11973.27,197.0,0.0,0.0,0.0,0.0
1775763568116645733,53237,0.0,0.9,0.012,0.2,-0.02,-0.06,0.06,-1.0,1.63,0.0,-0.0,-0.39,-0.06,0.06,0.12,11971.73,195.0,0.0,0.0,0.0,0.0
1775763568215073807,53337,0.0,1.1,0.008,0.2,-0.04,-0.08,0.06,-1.0,1.63,-0.01,-0.0,-0.37,-0.0,-0.0,-0.12,11972.24,195.0,0.0,0.0,0.0,0.0
1775763568323430694,53437,0.0,0.9,0.028,0.2,0.1,-0.2,0.06,-1.0,1.63,0.0,-0.0,-0.38,-0.0,0.12,-0.06,11974.99,190.0,0.0,0.0,0.0,0.0
1775763568413950795,53537,0.0,1.0,0.052,0.5,0.08,-0.18,0.06,-1.0,1.63,-0.01,-0.0,-0.36,0.06,-0.06,0.0,11973.44,194.0,0.0,0.0,0.0,0.0
1775763568516243498,53637,0.0,1.0,0.04,0.2,-0.04,-0.08,0.06,-1.0,1.63,0.0,-0.0,-0.4,-0.0,0.06,0.06,11973.79,194.0,0.0,0.0,0.0,0.0
1775763568616529942,53737,0.0,1.0,0.028,0.4,0.0,-0.25,0.06,-1.0,1.63,0.01,-0.0,-0.36,0.12,-0.0,0.06,11971.39,196.0,0.0,0.0,0.0,0.0
1775763568714868631,53837,0.0,1.2,0.016,0.2,0.1,-0.21,0.06,-1.0,1.63,0.02,-0.0,-0.39,-0.0,0.06,-0.06,11970.19,195.0,0.0,0.0,0.0,0.0
1775763568823360402,53937,0.0,1.0,0.016,0.2,-0.06,0.0,0.06,-1.0,1.63,0.01,-0.02,-0.36,0.06,-0.0,0.0,11972.41,195.0,0.0,0.0,0.0,0.0
1775763568915655397,54036,0.0,0.9,0.012,0.3,0.18,-0.21,0.06,-1.0,1.63,-0.01,-0.0,-0.38,-0.06,-0.12,0.0,11974.64,193.0,0.0,0.0,0.0,0.0
1775763569024031480,54136,0.0,0.7,0.008,0.6,-0.06,-0.04,0.06,-1.0,1.63,0.01,0.01,-0.4,0.19,-0.19,0.06,11973.96,195.0,0.0,0.0,0.0,0.0
1775763569122344845,54236,0.0,1.1,0.012,0.3,0.02,-0.16,0.06,-1.0,1.63,0.0,0.02,-0.39,-0.0,-0.06,0.06,11975.33,195.0,0.0,0.0,0.0,0.0
1775763569224856155,54336,0.0,1.0,0.012,0.3,-0.04,-0.16,0.06,-1.0,1.63,0.0,-0.0,-0.35,-0.12,0.06,0.06,11972.41,195.0,0.0,0.0,0.0,0.0
1775763569317170440,54436,0.0,0.9,0.028,0.2,0.04,-0.06,0.06,-1.0,1.63,0.0,-0.0,-0.37,-0.06,-0.19,-0.12,11972.24,195.0,0.0,0.0,0.0,0.0
1775763569413617038,54536,0.0,0.9,0.052,0.0,0.02,-0.12,0.06,-1.0,1.63,-0.01,-0.0,-0.38,-0.06,-0.06,0.06,11972.93,195.0,0.0,0.0,0.0,0.0
1775763569522011277,54636,0.0,1.0,0.04,0.3,0.2,-0.16,0.06,-1.0,1.63,0.0,-0.0,-0.39,-0.12,-0.06,0.0,11972.07,193.0,0.0,0.0,0.0,0.0
1775763569616308423,54736,0.0,1.1,0.04,0.3,-0.04,-0.14,0.06,-1.0,1.63,-0.01,-0.0,-0.37,0.12,0.12,-0.06,11971.39,193.0,0.0,0.0,0.0,0.0
1775763569714577662,54835,0.0,1.1,0.024,0.3,0.08,-0.16,0.06,-1.0,1.63,0.0,-0.02,-0.4,0.06,0.06,-0.06,11971.04,198.0,0.0,0.0,0.0,0.0
1775763569817033231,54935,0.0,1.1,0.02,0.3,0.0,-0.14,0.06,-1.0,1.63,0.0,-0.0,-0.41,-0.06,-0.0,0.06,11970.87,195.0,0.0,0.0,0.0,0.0
1775763569915297968,55035,0.0,1.0,0.02,0.3,0.0,0.0,0.06,-1.0,1.63,-0.01,-0.0,-0.42,0.06,0.12,-0.06,11971.04,195.0,0.0,0.0,0.0,0.0
1775763570017750166,55135,0.0,0.7,0.008,0.5,-0.02,-0.14,0.06,-1.0,1.63,0.0,-0.0,-0.4,-0.0,-0.0,0.0,11971.9,197.0,0.0,0.0,0.0,0.0
1775763570115177618,55235,0.0,1.0,0.008,0.3,-0.08,-0.12,0.06,-1.0,1.63,0.0,-0.0,-0.39,-0.0,-0.06,-0.06,11971.04,198.0,0.0,0.0,0.0,0.0
1775763570216729970,55335,0.0,1.1,0.008,0.2,0.02,-0.16,0.06,-1.0,1.63,0.0,-0.0,-0.39,-0.06,-0.06,-0.12,11972.93,198.0,0.0,0.0,0.0,0.0
1775763570314071272,55435,0.0,0.9,0.04,0.2,0.04,-0.18,0.06,-1.0,1.63,0.01,-0.01,-0.39,-0.0,0.06,-0.12,11971.73,203.0,0.0,0.0,0.0,0.0
1775763570409491223,55535,0.0,1.0,0.052,0.3,-0.02,-0.14,0.06,-1.0,1.63,0.01,-0.0,-0.37,-0.0,-0.06,-0.06,11973.44,203.0,0.0,0.0,0.0,0.0
1775763570517010816,55635,0.0,0.9,0.032,0.5,-0.08,-0.02,0.06,-1.0,1.63,-0.01,-0.0,-0.39,-0.0,0.12,0.0,11974.47,198.0,0.0,0.0,0.0,0.0
1775763570610379329,55735,0.0,1.1,0.032,0.4,-0.04,-0.25,0.06,-1.0,1.63,0.02,-0.01,-0.39,-0.0,0.06,0.19,11973.79,196.0,0.0,0.0,0.0,0.0
1775763570718030807,55835,0.0,1.0,0.02,0.7,0.02,-0.18,0.06,-1.0,1.63,0.0,-0.01,-0.38,0.06,0.12,0.06,11974.13,196.0,0.0,0.0,0.0,0.0
1775763570809309947,55936,0.0,1.0,0.02,0.1,-0.02,-0.16,0.06,-1.0,1.63,0.0,-0.0,-0.41,0.12,-0.0,-0.06,11973.79,195.0,0.0,0.0,0.0,0.0
1775763570916852591,56036,0.0,0.9,0.012,0.2,-0.02,-0.21,0.06,-1.0,1.63,0.0,-0.0,-0.39,0.19,0.06,0.06,11969.67,197.0,0.0,0.0,0.0,0.0
1775763571008301858,56136,0.0,0.7,0.008,0.4,0.18,-0.02,0.06,-1.0,1.63,0.01,-0.01,-0.4,-0.06,-0.0,0.06,11967.1,197.0,0.0,0.0,0.0,0.0
1775763571115829121,56237,0.0,0.9,0.012,0.1,-0.02,-0.12,0.06,-1.0,1.63,0.02,-0.0,-0.4,-0.0,-0.12,0.0,11971.39,197.0,0.0,0.0,0.0,0.0
1775763571207327381,56337,0.0,0.9,0.0,0.5,0.06,0.02,0.06,-1.0,1.63,-0.01,-0.0,-0.4,0.06,-0.0,-0.06,11970.19,201.0,0.0,0.0,0.0,0.0
1775763571314962638,56437,0.0,0.9,0.02,0.5,0.0,-0.04,0.06,-1.0,1.63,0.0,0.01,-0.38,0.12,0.06,0.0,11971.9,201.0,0.0,0.0,0.0,0.0
1775763571404602635,56538,0.0,1.0,0.052,0.5,-0.18,-0.08,0.06,-1.0,1.63,0.0,0.01,-0.39,-0.0,-0.06,0.06,11970.53,197.0,0.0,0.0,0.0,0.0
1775763571512057694,56638,0.0,0.7,0.044,0.4,-0.02,-0.23,0.06,-1.0,1.63,0.01,-0.0,-0.37,-0.0,-0.06,-0.06,11970.01,194.0,0.0,0.0,0.0,0.0
1775763571605638767,56738,0.0,0.8,0.024,0.3,0.04,-0.14,0.06,-1.0,1.63,0.0,-0.0,-0.4,0.06,-0.12,-0.06,11971.39,194.0,0.0,0.0,0.0,0.0
1775763571713123571,56839,0.0,1.1,0.02,0.5,0.04,-0.04,0.06,-1.0,1.63,-0.01,-0.0,-0.38,-0.0,-0.0,0.0,11969.84,196.0,0.0,0.0,0.0,0.0
1775763571804784172,56939,0.0,1.0,0.016,0.5,0.02,-0.08,0.06,-1.0,1.63,0.0,-0.0,-0.4,0.06,-0.19,0.0,11971.39,196.0,0.0,0.0,0.0,0.0
1775763571906254308,57039,0.0,1.0,0.008,0.3,-0.02,-0.2,0.06,-1.0,1.63,0.01,-0.0,-0.4,-0.12,-0.06,-0.06,11973.79,191.0,0.0,0.0,0.0,0.0
1775763572003806777,57139,0.0,1.0,0.012,0.2,-0.04,-0.08,0.06,-1.0,1.63,0.01,-0.0,-0.39,-0.06,0.06,-0.06,11973.27,198.0,0.0,0.0,0.0,0.0
1775763572111417771,57239,0.0,1.0,0.008,0.4,-0.1,-0.02,0.06,-1.0,1.63,0.02,-0.0,-0.38,-0.0,0.12,0.0,11974.13,198.0,0.0,0.0,0.0,0.0
1775763572203140255,57339,0.0,0.9,0.012,0.6,0.02,-0.21,0.06,-1.0,1.63,-0.01,-0.0,-0.4,-0.06,-0.06,0.0,11973.1,197.0,0.0,0.0,0.0,0.0
1775763572305345243,57439,0.0,0.7,0.028,0.1,0.02,-0.14,0.06,-1.0,1.63,0.01,-0.0,-0.39,0.06,-0.19,0.0,11972.24,195.0,0.0,0.0,0.0,0.0
1775763572400414011,57539,0.0,1.0,0.044,0.2,-0.1,-0.33,0.06,-1.0,1.63,0.0,-0.0,-0.39,0.06,-0.0,-0.06,11971.04,195.0,0.0,0.0,0.0,0.0
1775763572498051932,57639,0.0,0.7,0.032,0.5,0.08,-0.1,0.06,-1.0,1.63,0.01,-0.0,-0.41,0.06,-0.06,0.06,11970.53,200.0,0.0,0.0,0.0,0.0
1775763572601775175,57739,0.0,0.9,0.028,0.5,0.0,-0.14,0.06,-1.0,1.63,0.02,0.01,-0.42,-0.0,0.12,-0.06,11972.76,200.0,0.0,0.0,0.0,0.0
1775763572699293913,57838,0.0,0.8,0.02,0.2,-0.02,-0.18,0.06,-1.0,1.63,0.0,-0.01,-0.4,-0.0,0.19,0.06,11972.76,199.0,0.0,0.0,0.0,0.0
1775763572796922768,57938,0.0,0.9,0.016,0.3,-0.08,-0.18,0.06,-1.0,1.63,0.01,-0.0,-0.39,-0.0,-0.06,-0.06,11971.39,197.0,0.0,0.0,0.0,0.0
1775763572904681946,58038,0.0,0.9,0.024,0.3,0.04,-0.21,0.06,-1.0,1.63,-0.01,0.01,-0.4,-0.06,0.06,-0.06,11970.87,197.0,0.0,0.0,0.0,0.0
1775763572996212202,58138,0.0,1.0,0.008,0.5,-0.02,-0.21,0.06,-1.0,1.63,0.01,-0.0,-0.41,0.06,0.12,0.12,11972.24,195.0,0.0,0.0,0.0,0.0
1775763573103994494,58238,0.0,1.1,0.008,0.3,0.06,-0.16,0.06,-1.0,1.63,0.0,-0.02,-0.38,0.06,-0.12,0.0,11969.84,198.0,0.0,0.0,0.0,0.0
1775763573195737787,58338,0.0,0.8,0.0,0.3,0.0,-0.12,0.06,-1.0,1.63,0.01,-0.01,-0.41,-0.0,-0.0,0.12,11972.93,198.0,0.0,0.0,0.0,0.0
1775763573293351614,58437,0.0,0.7,0.028,0.1,0.0,-0.2,0.06,-1.0,1.63,0.01,-0.0,-0.39,-0.0,-0.0,-0.06,11971.9,196.0,0.0,0.0,0.0,0.0
1775763573393186128,58537,0.0,1.0,0.052,0.3,-0.04,0.02,0.06,-1.0,1.63,0.0,-0.0,-0.37,0.06,0.06,-0.06,11973.44,195.0,0.0,0.0,0.0,0.0
1775763573490844585,58637,0.0,1.0,0.04,0.4,-0.04,-0.04,0.06,-1.0,1.63,-0.01,-0.01,-0.41,0.06,-0.0,0.0,11976.19,195.0,0.0,0.0,0.0,0.0
1775763573594536365,58737,0.0,0.8,0.036,0.5,-0.16,-0.04,0.06,-1.0,1.63,0.03,-0.0,-0.36,-0.12,-0.19,-0.06,11975.84,193.0,0.0,0.0,0.0,0.0
1775763573692288521,58838,0.0,1.1,0.008,0.4,-0.1,-0.1,0.06,-1.0,1.63,0.0,-0.0,-0.39,-0.19,0.06,0.12,11976.7,192.0,0.0,0.0,0.0,0.0
1775763573794144842,58938,0.0,1.1,0.004,0.3,-0.04,-0.18,0.06,-1.0,1.63,0.01,-0.0,-0.36,0.25,0.06,0.06,11978.93,192.0,0.0,0.0,0.0,0.0
1775763573891757674,59038,0.0,1.2,0.008,0.4,-0.06,-0.16,0.06,-1.0,1.63,0.0,-0.0,-0.4,-0.0,-0.0,0.0,11976.87,197.0,0.0,0.0,0.0,0.0
1775763573993651651,59138,0.0,1.1,0.008,0.3,-0.08,-0.14,0.06,-1.0,1.63,0.0,-0.02,-0.38,-0.06,0.12,0.0,11977.22,197.0,0.0,0.0,0.0,0.0
1775763574091269105,59238,0.0,1.2,0.0,0.3,0.06,-0.25,0.06,-1.0,1.63,0.0,-0.0,-0.38,0.12,0.06,-0.06,11975.5,193.0,0.0,0.0,0.0,0.0
1775763574188962962,59338,0.0,1.1,0.012,0.3,0.08,-0.14,0.06,-1.0,1.63,0.0,-0.01,-0.37,0.12,-0.0,-0.06,11972.41,197.0,0.0,0.0,0.0,0.0
1775763574296753143,59438,0.0,1.0,0.032,0.0,0.02,-0.21,0.06,-1.0,1.63,0.0,0.02,-0.4,-0.0,-0.06,0.0,11973.62,197.0,0.0,0.0,0.0,0.0
1775763574386754687,59538,0.0,0.7,0.048,0.1,0.02,-0.1,0.06,-1.0,1.63,0.0,-0.0,-0.39,0.19,-0.06,-0.06,11973.44,197.0,0.0,0.0,0.0,0.0
1775763574494522104,59638,0.0,1.1,0.036,0.0,-0.04,-0.21,0.06,-1.0,1.63,0.01,-0.01,-0.37,0.06,-0.06,-0.06,11973.44,195.0,0.0,0.0,0.0,0.0
1775763574594078178,59738,0.0,1.0,0.024,0.4,-0.04,-0.25,0.06,-1.0,1.63,0.01,-0.0,-0.34,-0.06,-0.0,0.0,11974.13,195.0,0.0,0.0,0.0,0.0
1775763574696056681,59838,0.0,0.7,0.012,0.3,0.0,-0.04,0.06,-1.0,1.63,0.01,-0.0,-0.36,-0.0,-0.0,-0.06,11972.41,199.0,0.0,0.0,0.0,0.0
1775763574793760208,59938,0.0,1.1,0.016,0.6,-0.12,-0.14,0.06,-1.0,1.63,0.01,-0.01,-0.37,-0.06,-0.06,0.0,11974.99,199.0,0.0,0.0,0.0,0.0
1775763574895707419,60039,0.0,1.1,0.004,0.2,0.0,-0.08,0.06,-1.0,1.63,0.0,-0.01,-0.37,-0.06,-0.0,-0.12,11976.87,194.0,0.0,0.0,0.0,0.0
1775763574993406249,60139,0.0,1.2,0.008,0.4,0.08,-0.14,0.06,-1.0,1.63,0.0,0.01,-0.41,-0.0,-0.19,-0.06,11976.53,198.0,0.0,0.0,0.0,0.0
1775763575087381900,60239,0.0,1.0,0.004,0.3,0.02,-0.16,0.06,-1.0,1.63,-0.02,-0.0,-0.38,-0.0,-0.06,-0.06,11976.36,198.0,0.0,0.0,0.0,0.0
1775763575187135327,60340,0.0,1.0,0.008,0.2,-0.1,0.0,0.06,-1.0,1.63,0.0,-0.0,-0.37,-0.0,-0.0,0.0,11976.02,193.0,0.0,0.0,0.0,0.0
1775763575295003229,60440,0.0,1.1,0.024,0.4,-0.06,-0.12,0.06,-1.0,1.63,0.02,-0.01,-0.38,0.06,0.25,0.0,11977.39,185.0,0.0,0.0,0.0,0.0
1775763575384955801,60540,0.0,0.7,0.068,0.2,-0.12,-0.08,0.06,-1.0,1.63,0.0,-0.0,-0.38,-0.0,-0.0,0.06,11977.04,185.0,0.0,0.0,0.0,0.0
1775763575482818800,60639,0.0,0.9,0.04,0.3,-0.12,0.0,0.06,-1.0,1.63,0.0,-0.0,-0.36,0.06,0.12,-0.06,11975.67,194.0,0.0,0.0,0.0,0.0
1775763575592528698,60739,0.0,0.6,0.016,0.3,-0.04,-0.02,0.06,-1.0,1.63,-0.01,-0.0,-0.35,-0.0,-0.0,-0.06,11975.5,201.0,0.0,0.0,0.0,0.0
1775763575684491468,60839,0.0,0.9,0.024,0.6,-0.08,-0.08,0.06,-1.0,1.63,0.0,0.01,-0.38,-0.12,-0.0,0.0,11976.53,201.0,0.0,0.0,0.0,0.0
1775763575782206371,60938,0.0,0.9,0.024,0.5,-0.02,-0.12,0.06,-1.0,1.63,0.0,-0.0,-0.37,-0.06,-0.0,-0.19,11977.39,193.0,0.0,0.0,0.0,0.0
1775763575884148188,61038,0.0,1.0,0.008,0.0,-0.02,-0.02,0.06,-1.0,1.63,0.02,-0.0,-0.4,-0.12,-0.0,0.06,11976.19,195.0,0.0,0.0,0.0,0.0
1775763575981971638,61138,0.0,1.4,0.0,0.4,0.06,-0.16,0.06,-1.0,1.63,0.0,-0.01,-0.37,-0.0,-0.06,0.0,11978.07,195.0,0.0,0.0,0.0,0.0
1775763576089919523,61238,0.0,1.4,0.004,0.3,-0.18,-0.21,0.06,-1.0,1.63,0.0,-0.0,-0.38,-0.12,-0.06,-0.12,11976.02,198.0,0.0,0.0,0.0,0.0
1775763576181907521,61338,0.0,1.4,0.008,0.3,-0.1,-0.12,0.06,-1.0,1.63,0.0,0.01,-0.37,-0.06,-0.06,0.0,11976.7,198.0,0.0,0.0,0.0,0.0
1775763576279652214,61438,0.0,1.2,0.016,0.4,-0.18,-0.14,0.06,-1.0,1.63,0.0,0.01,-0.38,-0.0,0.12,-0.06,11977.22,191.0,0.0,0.0,0.0,0.0
1775763576379685947,61538,0.0,0.9,0.052,0.1,0.0,-0.18,0.06,-1.0,1.63,0.0,-0.0,-0.38,-0.0,-0.0,0.0,11971.04,194.0,0.0,0.0,0.0,0.0
1775763576477542584,61638,0.0,1.1,0.036,0.3,-0.18,0.0,0.06,-1.0,1.63,0.0,-0.0,-0.36,0.12,-0.0,0.0,11972.24,194.0,0.0,0.0,0.0,0.0
1775763576587419374,61737,0.0,0.7,0.036,0.1,-0.1,-0.16,0.06,-1.0,1.63,0.0,-0.0,-0.38,0.12,0.06,0.0,11971.39,197.0,0.0,0.0,0.0,0.0
1775763576679334445,61837,0.0,1.1,0.028,0.2,0.0,-0.14,0.06,-1.0,1.63,0.0,-0.0,-0.38,-0.0,-0.06,0.0,11975.84,200.0,0.0,0.0,0.0,0.0
1775763576777281914,61937,0.0,0.9,0.02,0.3,-0.04,-0.04,0.06,-1.0,1.63,0.02,0.01,-0.39,-0.06,0.12,0.06,11975.16,200.0,0.0,0.0,0.0,0.0
1775763576879168305,62038,0.0,1.0,0.02,0.5,0.06,-0.16,0.06,-1.0,1.63,0.01,-0.0,-0.36,-0.0,-0.0,0.06,11974.82,188.0,0.0,0.0,0.0,0.0
1775763576987189063,62138,0.0,0.8,0.024,0.2,-0.04,-0.23,0.06,-1.0,1.63,0.01,0.02,-0.39,-0.06,0.06,0.06,11976.36,188.0,0.0,0.0,0.0,0.0
1775763577079048226,62238,0.0,1.1,0.0,0.2,-0.1,-0.08,0.06,-1.0,1.63,0.01,0.02,-0.38,-0.25,-0.12,0.0,11976.87,189.0,0.0,0.0,0.0,0.0
1775763577176971845,62338,0.0,0.8,0.004,0.1,0.02,-0.14,0.06,-1.0,1.63,0.02,-0.0,-0.37,-0.0,0.12,0.0,11976.36,198.0,0.0,0.0,0.0,0.0
1775763577284945941,62438,0.0,1.1,0.036,0.2,-0.1,-0.16,0.06,-1.0,1.63,0.0,0.01,-0.39,-0.0,0.12,0.06,11976.87,198.0,0.0,0.0,0.0,0.0
1775763577375018539,62538,0.0,1.1,0.048,0.3,0.12,-0.1,0.06,-1.0,1.63,0.0,-0.0,-0.38,0.06,-0.06,-0.06,11976.36,195.0,0.0,0.0,0.0,0.0
1775763577482961310,62638,0.0,0.8,0.056,0.2,0.1,-0.21,0.06,-1.0,1.63,0.0,-0.0,-0.37,-0.0,0.06,0.0,11973.27,196.0,0.0,0.0,0.0,0.0
1775763577582751695,62738,0.0,0.9,0.028,0.5,0.02,-0.02,0.06,-1.0,1.63,0.0,0.01,-0.38,-0.0,-0.19,0.12,11973.62,196.0,0.0,0.0,0.0,0.0
1775763577674769021,62838,0.0,0.7,0.016,0.2,-0.16,-0.04,0.06,-1.0,1.63,0.0,-0.0,-0.39,-0.12,-0.12,0.06,11972.41,193.0,0.0,0.0,0.0,0.0
1775763577782759479,62938,0.0,0.7,0.02,0.5,-0.06,-0.08,0.06,-1.0,1.63,0.0,0.02,-0.38,-0.0,0.12,0.0,11971.9,200.0,0.0,0.0,0.0,0.0
1775763577874778520,63038,0.0,1.0,0.016,0.4,0.0,-0.06,0.06,-1.0,1.63,0.01,-0.01,-0.39,-0.06,-0.0,-0.06,11975.16,200.0,0.0,0.0,0.0,0.0
1775763577982687107,63138,0.0,1.1,0.024,0.2,-0.1,-0.14,0.06,-1.0,1.63,0.01,-0.0,-0.38,0.06,-0.06,0.0,11972.93,194.0,0.0,0.0,0.0,0.0
1775763578080630854,63238,0.0,1.1,0.012,0.3,-0.12,-0.06,0.06,-1.0,1.63,0.02,-0.0,-0.39,0.06,-0.06,0.06,11973.27,194.0,0.0,0.0,0.0,0.0
1775763578182690992,63338,0.0,1.2,0.004,0.5,-0.1,-0.12,0.06,-1.0,1.63,-0.02,-0.0,-0.39,-0.12,0.12,-0.12,11975.16,193.0,0.0,0.0,0.0,0.0
1775763578280347585,63438,0.0,0.8,0.02,0.5,-0.14,-0.08,0.06,-1.0,1.63,0.0,-0.0,-0.35,-0.06,-0.25,0.0,11973.44,196.0,0.0,0.0,0.0,0.0
1775763578370711887,63538,0.0,0.7,0.052,0.3,-0.06,-0.12,0.06,-1.0,1.63,0.01,-0.0,-0.38,-0.12,-0.06,0.0,11975.84,196.0,0.0,0.0,0.0,0.0
1775763578474607269,63638,0.0,0.7,0.04,0.3,-0.02,-0.12,0.06,-1.0,1.63,0.0,0.01,-0.37,-0.0,0.06,0.0,11974.13,202.0,0.0,0.0,0.0,0.0
1775763578572636259,63738,0.0,0.8,0.028,0.6,0.04,-0.23,0.06,-1.0,1.63,0.03,-0.0,-0.38,-0.06,0.06,-0.06,11969.16,194.0,0.0,0.0,0.0,0.0
1775763578680686607,63838,0.0,1.2,0.024,0.6,-0.1,-0.02,0.06,-1.0,1.63,0.0,-0.0,-0.4,0.06,-0.06,0.06,11976.02,194.0,0.0,0.0,0.0,0.0
1775763578772675113,63938,0.0,1.1,0.016,0.5,-0.04,-0.06,0.06,-1.0,1.63,0.0,0.01,-0.39,0.12,0.12,0.06,11973.79,195.0,0.0,0.0,0.0,0.0
1775763578880719057,64038,0.0,0.9,0.016,0.2,0.06,-0.06,0.06,-1.0,1.63,0.0,-0.0,-0.36,0.06,-0.06,-0.06,11973.96,197.0,0.0,0.0,0.0,0.0
1775763578972775259,64138,0.0,1.0,0.0,0.3,-0.04,-0.16,0.06,-1.0,1.63,0.01,-0.0,-0.39,0.19,-0.06,-0.06,11974.82,197.0,0.0,0.0,0.0,0.0
1775763579070678554,64237,0.0,1.1,0.008,0.5,0.1,-0.23,0.06,-1.0,1.63,0.0,-0.0,-0.36,-0.06,-0.12,0.0,11973.62,189.0,0.0,0.0,0.0,0.0
1775763579172905791,64337,0.0,0.9,0.008,0.3,-0.08,-0.1,0.06,-1.0,1.63,0.0,-0.0,-0.38,-0.19,0.12,0.0,11974.64,189.0,0.0,0.0,0.0,0.0
1775763579270753821,64437,0.0,0.7,0.028,0.4,-0.04,-0.02,0.06,-1.0,1.63,0.0,-0.0,-0.38,-0.12,0.19,-0.06,11976.87,194.0,0.0,0.0,0.0,0.0
1775763579370955557,64537,0.0,1.0,0.052,0.6,0.02,-0.06,0.06,-1.0,1.63,0.01,-0.01,-0.38,0.12,-0.0,0.0,11976.53,201.0,0.0,0.0,0.0,0.0
1775763579468893518,64637,0.0,1.0,0.028,0.2,0.06,-0.04,0.06,-1.0,1.63,0.0,0.01,-0.37,-0.0,0.06,-0.06,11977.04,201.0,0.0,0.0,0.0,0.0
1775763579568834842,64737,0.0,0.9,0.028,0.3,0.1,0.04,0.06,-1.0,1.63,0.01,-0.0,-0.39,0.06,-0.06,-0.12,11973.27,197.0,0.0,0.0,0.0,0.0
1775763579676934959,64837,0.0,1.0,0.02,0.3,0.06,-0.1,0.06,-1.0,1.63,0.0,-0.0,-0.39,-0.06,-0.0,0.06,11971.9,192.0,0.0,0.0,0.0,0.0
1775763579769030890,64937,0.0,0.7,0.024,0.5,-0.16,-0.1,0.06,-1.0,1.63,0.03,-0.0,-0.37,-0.0,-0.0,-0.06,11974.47,192.0,0.0,0.0,0.0,0.0
1775763579877033064,65037,0.0,0.8,0.016,0.1,0.0,-0.1,0.06,-1.0,1.63,0.0,-0.0,-0.39,-0.06,0.06,0.06,11972.07,198.0,0.0,0.0,0.0,0.0
1775763579974977357,65137,0.0,0.9,0.016,0.2,-0.02,-0.2,0.06,-1.0,1.63,0.0,-0.0,-0.39,-0.0,-0.06,0.0,11972.07,192.0,0.0,0.0,0.0,0.0
1775763580077213962,65238,0.0,1.0,0.012,0.5,0.16,-0.1,0.06,-1.0,1.63,0.02,0.01,-0.4,0.06,0.12,0.0,11974.64,192.0,0.0,0.0,0.0,0.0
1775763580175146522,65337,0.0,0.5,0.016,0.2,-0.06,-0.25,0.06,-1.0,1.63,0.0,-0.0,-0.38,-0.0,0.19,-0.06,11972.59,196.0,0.0,0.0,0.0,0.0
1775763580267297063,65437,0.0,0.9,0.02,0.4,-0.12,-0.02,0.06,-1.0,1.63,0.0,-0.0,-0.36,-0.0,0.12,0.0,11973.79,196.0,0.0,0.0,0.0,0.0
1775763580367401315,65538,0.0,1.0,0.06,0.2,0.08,-0.06,0.06,-1.0,1.63,0.02,-0.0,-0.39,0.06,-0.06,-0.12,11974.3,200.0,0.0,0.0,0.0,0.0
1775763580465484039,65638,0.0,1.1,0.044,0.3,0.0,-0.25,0.06,-1.0,1.63,0.02,-0.0,-0.4,0.06,-0.06,-0.12,11975.16,197.0,0.0,0.0,0.0,0.0
1775763580569551008,65738,0.0,1.0,0.016,0.3,-0.1,-0.1,0.06,-1.0,1.63,0.02,-0.01,-0.39,-0.0,0.19,0.06,11978.59,197.0,0.0,0.0,0.0,0.0
1775763580667508075,65838,0.0,0.9,0.008,0.6,0.16,-0.2,0.06,-1.0,1.63,0.0,0.01,-0.41,-0.0,0.06,-0.06,11976.7,196.0,0.0,0.0,0.0,0.0
1775763580769619357,65938,0.0,0.5,0.028,0.6,-0.06,-0.16,0.06,-1.0,1.63,0.0,-0.01,-0.41,0.06,-0.12,-0.06,11976.19,195.0,0.0,0.0,0.0,0.0
1775763580867741437,66038,0.0,0.9,0.02,0.6,-0.08,-0.14,0.06,-1.0,1.63,0.0,-0.01,-0.38,-0.06,-0.06,0.0,11978.59,195.0,0.0,0.0,0.0,0.0
1775763580969775207,66139,0.0,0.9,0.016,0.2,0.04,-0.16,0.06,-1.0,1.63,0.0,-0.0,-0.4,0.06,-0.0,0.0,11977.22,199.0,0.0,0.0,0.0,0.0
1775763581067859569,66239,0.0,0.9,0.008,0.2,-0.12,-0.18,0.06,-1.0,1.63,0.0,-0.0,-0.4,0.06,-0.12,0.0,11977.73,196.0,0.0,0.0,0.0,0.0
1775763581170053219,66339,0.0,1.1,0.004,0.0,0.0,-0.29,0.06,-1.0,1.63,0.0,-0.0,-0.41,-0.0,-0.12,0.0,11976.87,196.0,0.0,0.0,0.0,0.0
1775763581268059041,66439,0.0,0.9,0.036,0.3,0.12,-0.04,0.06,-1.0,1.63,0.01,0.01,-0.4,-0.12,-0.0,0.0,11976.7,201.0,0.0,0.0,0.0,0.0
1775763581368231969,66539,0.0,1.0,0.048,0.5,0.16,-0.16,0.06,-1.0,1.63,0.0,-0.0,-0.39,-0.06,-0.12,-0.06,11975.33,201.0,0.0,0.0,0.0,0.0
1775763581472258154,66639,0.0,1.0,0.04,0.4,0.0,-0.2,0.06,-1.0,1.63,0.01,-0.01,-0.41,-0.12,-0.06,0.0,11975.33,196.0,0.0,0.0,0.0,0.0
1775763581566248099,66739,0.0,1.1,0.02,0.1,-0.08,-0.21,0.06,-1.0,1.63,0.0,-0.0,-0.4,-0.12,-0.0,0.0,11978.07,189.0,0.0,0.0,0.0,0.0
1775763581674488029,66839,0.0,0.7,0.028,0.5,-0.08,-0.12,0.06,-1.0,1.63,0.0,-0.0,-0.4,-0.06,0.06,0.0,11973.96,189.0,0.0,0.0,0.0,0.0
1775763581766514297,66939,0.0,0.9,0.02,0.3,-0.04,-0.1,0.06,-1.0,1.63,0.01,-0.0,-0.4,0.06,-0.06,-0.06,11978.42,196.0,0.0,0.0,0.0,0.0
1775763581874656651,67039,0.0,0.9,0.016,0.0,-0.1,-0.06,0.06,-1.0,1.63,-0.01,-0.0,-0.37,-0.06,-0.06,-0.06,11977.22,195.0,0.0,0.0,0.0,0.0
1775763581972637904,67139,0.0,0.9,0.0,0.5,-0.1,-0.14,0.06,-1.0,1.63,0.01,-0.0,-0.41,-0.06,-0.19,0.0,11978.07,195.0,0.0,0.0,0.0,0.0
1775763582064791145,67239,0.0,1.1,0.004,0.2,-0.06,-0.04,0.06,-1.0,1.63,0.01,-0.0,-0.42,-0.0,-0.12,-0.06,11976.02,198.0,0.0,0.0,0.0,0.0
1775763582172947641,67339,0.0,1.1,0.004,0.1,0.04,-0.02,0.06,-1.0,1.63,0.02,-0.01,-0.42,-0.0,-0.0,-0.06,11976.53,192.0,0.0,0.0,0.0,0.0
1775763582265124176,67439,0.0,1.0,0.024,0.4,0.0,-0.2,0.06,-1.0,1.63,0.03,-0.0,-0.42,-0.0,-0.06,0.0,11976.53,192.0,0.0,0.0,0.0,0.0
1775763582365300753,67539,0.0,0.7,0.056,0.2,0.0,-0.1,0.06,-1.0,1.63,0.0,-0.01,-0.39,-0.06,0.12,0.0,11975.16,197.0,0.0,0.0,0.0,0.0
1775763582463346819,67639,0.0,1.0,0.04,0.3,-0.04,-0.06,0.06,-1.0,1.63,0.0,-0.0,-0.41,-0.06,-0.0,0.0,11977.22,197.0,0.0,0.0,0.0,0.0
1775763582573393355,67739,0.0,1.0,0.036,0.3,0.18,-0.14,0.06,-1.0,1.63,0.0,-0.01,-0.34,0.06,-0.0,-0.06,11976.36,188.0,0.0,0.0,0.0,0.0
1775763582665570075,67840,0.0,1.1,0.028,0.5,-0.02,-0.18,0.06,-1.0,1.63,0.0,-0.0,-0.4,-0.12,-0.12,0.06,11975.5,196.0,0.0,0.0,0.0,0.0
1775763582773672504,67940,0.0,0.9,0.024,0.5,-0.06,-0.08,0.06,-1.0,1.63,0.0,-0.01,-0.39,-0.0,-0.0,-0.06,11978.07,196.0,0.0,0.0,0.0,0.0
1775763582865855895,68039,0.0,1.0,0.02,0.5,-0.1,-0.16,0.06,-1.0,1.63,0.0,-0.0,-0.38,-0.0,0.19,0.06,11978.93,190.0,0.0,0.0,0.0,0.0
1775763582968017690,68140,0.0,0.6,0.012,0.5,-0.21,-0.2,0.06,-1.0,1.63,0.0,-0.0,-0.37,0.06,-0.0,-0.06,11977.04,191.0,0.0,0.0,0.0,0.0
1775763583066161015,68240,0.0,0.7,0.008,0.5,0.0,-0.14,0.06,-1.0,1.63,0.01,-0.0,-0.39,-0.0,0.06,0.06,11977.73,191.0,0.0,0.0,0.0,0.0
1775763583168284961,68340,0.0,0.8,0.004,0.5,0.0,-0.08,0.06,-1.0,1.63,0.0,-0.0,-0.38,-0.0,-0.06,0.06,11977.9,197.0,0.0,0.0,0.0,0.0
1775763583266372624,68440,0.0,0.9,0.04,0.3,0.04,-0.18,0.06,-1.0,1.63,0.0,-0.0,-0.4,0.06,-0.0,-0.06,11978.07,200.0,0.0,0.0,0.0,0.0
1775763583362589601,68540,0.0,1.0,0.052,0.3,-0.1,-0.16,0.06,-1.0,1.63,0.03,-0.02,-0.37,-0.19,-0.12,0.12,11978.42,200.0,0.0,0.0,0.0,0.0
1775763583466625391,68640,0.0,1.0,0.04,0.2,-0.16,0.0,0.06,-1.0,1.63,0.02,-0.0,-0.37,-0.0,0.06,0.0,11977.39,197.0,0.0,0.0,0.0,0.0
1775763583564839080,68740,0.0,0.8,0.028,0.5,0.02,0.0,0.06,-1.0,1.63,0.0,-0.0,-0.37,-0.06,-0.19,-0.06,11974.3,197.0,0.0,0.0,0.0,0.0
1775763583662889632,68839,0.0,0.6,0.024,0.2,0.06,-0.21,0.06,-1.0,1.63,0.0,-0.0,-0.39,-0.0,-0.06,-0.06,11978.07,192.0,0.0,0.0,0.0,0.0
1775763583771093405,68939,0.0,0.7,0.016,0.3,-0.04,-0.27,0.06,-1.0,1.63,0.02,-0.01,-0.38,0.06,-0.12,0.0,11976.7,193.0,0.0,0.0,0.0,0.0
1775763583863269609,69039,0.0,1.0,0.0,0.4,-0.12,-0.25,0.06,-1.0,1.63,0.01,-0.0,-0.39,-0.0,-0.06,0.0,11978.07,193.0,0.0,0.0,0.0,0.0
1775763583971376075,69138,0.0,1.1,0.008,0.3,-0.14,-0.04,0.06,-1.0,1.63,0.0,0.01,-0.38,-0.06,-0.06,-0.12,11979.79,193.0,0.0,0.0,0.0,0.0
1775763584063498548,69238,0.0,1.0,0.008,0.1,0.04,-0.08,0.06,-1.0,1.63,0.01,-0.0,-0.36,0.19,-0.12,-0.06,11978.25,192.0,0.0,0.0,0.0,0.0
1775763584161712254,69338,0.0,0.9,0.016,0.4,0.04,-0.08,0.06,-1.0,1.63,-0.01,-0.0,-0.36,-0.06,-0.06,0.06,11978.25,192.0,0.0,0.0,0.0,0.0
1775763584266159902,69438,0.0,0.9,0.04,0.5,0.06,-0.1,0.06,-1.0,1.63,0.0,0.02,-0.39,-0.0,-0.06,0.0,11977.22,192.0,0.0,0.0,0.0,0.0
1775763584360103660,69538,0.0,1.1,0.048,0.1,-0.14,-0.25,0.06,-1.0,1.63,0.02,-0.01,-0.37,0.19,-0.06,0.0,11977.39,194.0,0.0,0.0,0.0,0.0
1775763584464186337,69638,0.0,1.0,0.04,0.5,0.04,-0.16,0.06,-1.0,1.63,0.02,-0.0,-0.37,-0.0,-0.0,0.06,11977.56,194.0,0.0,0.0,0.0,0.0
1775763584562254601,69737,0.0,0.7,0.032,0.3,0.02,-0.21,0.06,-1.0,1.63,0.01,-0.01,-0.39,-0.12,-0.12,-0.12,11976.53,197.0,0.0,0.0,0.0,0.0
1775763584660523300,69837,0.0,1.1,0.016,0.2,0.14,-0.1,0.06,-1.0,1.63,0.0,-0.0,-0.39,-0.0,-0.06,0.06,11979.45,197.0,0.0,0.0,0.0,0.0
1775763584758534316,69937,0.0,1.0,0.012,0.4,-0.02,-0.21,0.06,-1.0,1.63,0.01,-0.0,-0.4,-0.0,0.06,0.06,11976.19,196.0,0.0,0.0,0.0,0.0
1775763584866781537,70037,0.0,0.9,0.012,0.2,0.0,0.02,0.06,-1.0,1.63,0.01,0.02,-0.36,-0.12,0.06,-0.12,11974.99,196.0,0.0,0.0,0.0,0.0
1775763584958954989,70137,0.0,1.1,0.016,0.3,0.18,-0.08,0.06,-1.0,1.63,0.0,-0.0,-0.39,0.06,0.12,0.06,11975.16,196.0,0.0,0.0,0.0,0.0
1775763585067103219,70237,0.0,0.9,0.0,0.2,0.06,-0.1,0.06,-1.0,1.63,0.02,-0.0,-0.4,-0.06,-0.0,-0.06,11975.67,200.0,0.0,0.0,0.0,0.0
1775763585159227284,70337,0.0,1.0,0.004,0.2,0.0,-0.14,0.06,-1.0,1.63,0.0,-0.01,-0.37,-0.12,0.06,0.06,11973.96,196.0,0.0,0.0,0.0,0.0
1775763585267505091,70437,0.0,1.1,0.036,0.7,-0.04,-0.18,0.06,-1.0,1.63,0.0,-0.0,-0.38,-0.06,0.06,0.06,11978.59,196.0,0.0,0.0,0.0,0.0
1775763585357705515,70537,0.0,0.9,0.06,0.3,-0.02,-0.12,0.06,-1.0,1.63,0.01,0.01,-0.34,-0.0,-0.0,-0.06,11978.42,198.0,0.0,0.0,0.0,0.0
1775763585461733182,70637,0.0,1.2,0.044,0.3,-0.02,-0.18,0.06,-1.0,1.63,0.0,0.01,-0.38,-0.0,-0.06,0.0,11978.42,198.0,0.0,0.0,0.0,0.0
1775763585559952360,70736,0.0,0.7,0.028,0.6,0.02,-0.18,0.06,-1.0,1.63,0.0,0.01,-0.41,-0.06,0.12,-0.06,11978.93,191.0,0.0,0.0,0.0,0.0
1775763585658109639,70836,0.0,0.9,0.024,0.4,0.08,-0.12,0.06,-1.0,1.63,0.0,-0.01,-0.37,0.06,-0.0,0.0,11977.22,193.0,0.0,0.0,0.0,0.0
1775763585766398835,70936,0.0,0.9,0.024,0.2,0.02,0.04,0.06,-1.0,1.63,0.0,-0.01,-0.39,-0.12,-0.06,-0.12,11977.56,193.0,0.0,0.0,0.0,0.0
1775763585858509865,71035,0.0,1.1,0.012,0.3,0.0,-0.1,0.06,-1.0,1.63,0.01,0.01,-0.37,-0.0,-0.0,-0.06,11977.22,196.0,0.0,0.0,0.0,0.0
1775763585962526828,71135,0.0,1.0,0.008,0.3,-0.04,-0.2,0.06,-1.0,1.63,0.0,-0.01,-0.38,0.06,-0.19,-0.06,11975.84,193.0,0.0,0.0,0.0,0.0
1775763586056944901,71235,0.0,0.8,0.0,0.2,-0.14,-0.14,0.06,-1.0,1.63,0.0,-0.01,-0.38,-0.0,-0.0,0.0,11974.99,193.0,0.0,0.0,0.0,0.0
1775763586162994991,71334,0.0,1.0,0.012,0.1,-0.06,-0.04,0.06,-1.0,1.63,0.0,-0.0,-0.39,-0.0,-0.06,-0.06,11973.79,197.0,0.0,0.0,0.0,0.0
1775763586255204885,71434,0.0,1.1,0.028,0.2,0.0,-0.18,0.06,-1.0,1.63,0.01,-0.0,-0.38,0.06,-0.12,0.0,11976.7,188.0,0.0,0.0,0.0,0.0
1775763586355543326,71534,0.0,1.2,0.052,0.2,0.08,-0.16,0.06,-1.0,1.63,-0.01,-0.0,-0.4,-0.0,-0.06,0.06,11977.56,188.0,0.0,0.0,0.0,0.0
1775763586459622739,71634,0.0,1.1,0.032,0.3,-0.04,-0.02,0.06,-1.0,1.63,0.0,-0.01,-0.4,0.19,-0.0,0.0,11976.36,203.0,0.0,0.0,0.0,0.0
1775763586563753500,71734,0.0,1.1,0.036,0.5,0.02,-0.02,0.06,-1.0,1.63,0.0,-0.0,-0.39,-0.0,-0.06,0.0,11977.04,195.0,0.0,0.0,0.0,0.0
1775763586656066480,71834,0.0,1.0,0.012,0.3,0.1,-0.21,0.06,-1.0,1.63,0.0,-0.01,-0.36,-0.06,0.06,0.12,11977.39,195.0,0.0,0.0,0.0,0.0
1775763586754111245,71934,0.0,0.9,0.02,0.3,0.02,-0.18,0.06,-1.0,1.63,0.01,-0.0,-0.37,-0.0,0.12,0.12,11976.02,194.0,0.0,0.0,0.0,0.0
1775763586856466555,72034,0.0,1.1,0.012,0.3,0.14,-0.06,0.06,-1.0,1.63,0.02,-0.01,-0.41,0.06,0.19,0.0,11978.07,194.0,0.0,0.0,0.0,0.0
1775763586954516979,72134,0.0,0.9,0.004,0.4,-0.02,-0.1,0.06,-1.0,1.63,0.01,-0.01,-0.38,0.06,0.06,-0.06,11977.56,196.0,0.0,0.0,0.0,0.0
1775763587056776562,72235,0.0,1.4,0.008,0.3,-0.06,-0.21,0.06,-1.0,1.63,0.03,-0.0,-0.38,-0.12,-0.0,-0.06,11976.36,195.0,0.0,0.0,0.0,0.0
1775763587155011210,72335,0.0,0.8,0.012,0.5,0.08,-0.1,0.06,-1.0,1.63,-0.01,-0.01,-0.4,-0.06,-0.06,0.0,11976.7,195.0,0.0,0.0,0.0,0.0
1775763587257174372,72435,0.0,1.0,0.036,0.4,0.0,-0.12,0.06,-1.0,1.63,0.0,-0.0,-0.38,0.06,-0.06,-0.06,11975.5,197.0,0.0,0.0,0.0,0.0
1775763587353520205,72535,0.0,0.9,0.052,0.3,0.06,-0.12,0.06,-1.0,1.63,0.01,-0.01,-0.39,-0.12,0.12,0.0,11973.44,193.0,0.0,0.0,0.0,0.0
1775763587455651189,72635,0.0,1.1,0.048,0.5,0.06,-0.21,0.06,-1.0,1.63,0.02,-0.0,-0.34,-0.06,0.19,0.0,11975.84,193.0,0.0,0.0,0.0,0.0
1775763587555726864,72735,0.0,1.0,0.036,0.1,0.16,-0.12,0.06,-1.0,1.63,0.0,-0.0,-0.41,-0.06,-0.12,-0.19,11974.64,199.0,0.0,0.0,0.0,0.0
1775763587654003270,72835,0.0,0.9,0.012,0.3,-0.06,-0.1,0.06,-1.0,1.63,0.0,0.02,-0.39,0.06,0.06,-0.12,11974.99,199.0,0.0,0.0,0.0,0.0
1775763587756178766,72935,0.0,1.0,0.012,0.2,-0.02,-0.1,0.06,-1.0,1.63,0.0,-0.0,-0.38,-0.06,0.12,0.06,11975.16,194.0,0.0,0.0,0.0,0.0
1775763587854373543,73035,0.0,1.1,0.016,0.4,-0.04,-0.16,0.06,-1.0,1.63,0.0,0.01,-0.41,-0.0,-0.12,0.0,11973.62,193.0,0.0,0.0,0.0,0.0
1775763587954702408,73135,0.0,1.2,0.004,0.3,0.04,-0.16,0.06,-1.0,1.63,0.0,-0.01,-0.38,-0.0,-0.0,0.0,11975.16,193.0,0.0,0.0,0.0,0.0
1775763588060705754,73235,0.0,0.9,0.02,0.0,-0.08,-0.12,0.06,-1.0,1.63,0.02,0.01,-0.37,0.19,-0.0,0.06,11974.82,195.0,0.0,0.0,0.0,0.0
1775763588163051265,73335,0.0,1.1,0.016,0.2,-0.04,-0.16,0.06,-1.0,1.63,0.0,-0.0,-0.38,-0.0,0.06,0.0,11973.96,194.0,0.0,0.0,0.0,0.0
1775763588256764536,73435,0.0,1.0,0.04,0.3,-0.02,-0.21,0.06,-1.0,1.63,0.03,-0.01,-0.4,-0.0,-0.0,0.0,11974.64,194.0,0.0,0.0,0.0,0.0
1775763588355590734,73535,0.0,1.0,0.048,0.5,-0.02,-0.04,0.06,-1.0,1.63,0.0,-0.0,-0.42,-0.12,-0.0,0.06,11974.47,196.0,0.0,0.0,0.0,0.0
1775763588455591356,73635,0.0,0.9,0.028,0.5,-0.16,-0.18,0.06,-1.0,1.63,0.01,-0.01,-0.38,0.06,0.12,0.06,11978.42,203.0,0.0,0.0,0.0,0.0
1775763588553894475,73735,0.0,1.0,0.028,0.2,0.02,-0.12,0.06,-1.0,1.63,0.03,-0.0,-0.39,-0.0,-0.06,-0.06,11977.9,203.0,0.0,0.0,0.0,0.0
