timestamp_ns,time_ms,voltage_left,current_left_ma,voltage_right,current_right_ma,motor_current_left,motor_current_right,euler_x,euler_y,euler_z,acc_lin_x,acc_lin_y,acc_lin_z,gyro_x,gyro_y,gyro_z,sonar_mm,tof_mm,rpm_left,rpm_right,rotations_left,rotations_right
1776451782935104672,47922,0.092,0.2,0.0,1.2,0.06,-0.12,0.12,-3.38,4.06,0.04,0.01,,-0.01,0.36,-0.06,-0.06,-0.06,165.67,207.0,0.0,0.0
1776451783836783130,47922,0.092,0.2,0.0,1.2,0.06,-0.12,0.12,-3.38,4.06,0.04,0.01,-0.37,,0.36,-0.06,-0.06,-0.06,165.67,207.0,0.0,0.0
1776451786425641993,47922,0.092,0.2,0.0,1.2,0.06,-0.12,0.12,-3.38,4.06,0.04,0.01,-0.37,,,,,,,,,
1776451786441833247,1903,0.0,0.5,0.0,0.8,0.21,-0.04,0.06,-3.44,4.06,0.05,0.02,-0.36,-0.06,0.12,0.0,164.98,198.0,0.0,0.0,0.0,0.0
1776451786445926338,2002,0.092,0.2,0.0,1.5,0.0,-0.08,0.06,-3.44,4.06,0.04,0.01,-0.36,0.06,-0.06,0.0,165.15,193.0,0.0,0.0,0.0,0.0
1776451786450168298,2103,0.092,0.1,0.0,1.2,0.04,0.04,0.06,-3.44,4.06,0.01,0.05,-0.36,0.06,-0.0,0.0,165.15,193.0,0.0,0.0,0.0,0.0
1776451786454290115,2203,0.0,1.4,0.072,0.3,0.02,-0.02,0.06,-3.44,4.06,0.01,0.02,-0.37,-0.0,-0.06,0.06,165.15,193.0,0.0,0.0,0.0,0.0
1776451786458370409,2304,0.0,1.2,0.076,0.2,0.2,0.02,0.06,-3.44,4.06,0.02,0.03,-0.36,-0.0,-0.06,0.0,165.15,192.0,0.0,0.0,0.0,0.0
1776451786462401364,2404,0.0,1.1,0.0,1.2,0.12,0.06,0.06,-3.44,4.06,0.02,0.01,-0.38,0.19,-0.06,-0.06,165.15,192.0,0.0,0.0,0.0,0.0
1776451786466395111,2505,0.0,0.7,0.072,0.1,0.08,-0.02,0.06,-3.44,4.06,0.03,0.03,-0.32,-0.0,0.12,0.0,165.15,204.0,0.0,0.0,0.0,0.0
1776451786544229135,2605,0.0,0.7,0.068,0.2,0.0,-0.06,0.06,-3.44,4.06,0.02,0.02,-0.33,-0.0,0.06,0.06,165.15,192.0,0.0,0.0,0.0,0.0
1776451786642546990,2705,0.0,0.9,0.064,0.3,0.06,0.0,0.06,-3.44,4.06,0.01,0.02,-0.34,-0.0,-0.06,-0.12,169.27,192.0,0.0,0.0,0.0,0.0
1776451786745004034,2805,0.0,0.9,0.0,1.6,0.0,0.02,0.06,-3.44,4.06,0.03,0.02,-0.36,-0.0,-0.06,-0.06,165.15,199.0,0.0,0.0,0.0,0.0
1776451786843300145,2905,0.092,0.1,0.0,1.6,0.06,-0.14,0.06,-3.44,4.06,0.02,0.04,-0.35,-0.06,-0.0,0.06,165.15,195.0,0.0,0.0,0.0,0.0
1776451786945713425,3005,0.096,0.1,0.076,0.3,0.0,-0.04,0.06,-3.44,4.06,0.0,0.01,-0.34,-0.06,0.12,0.12,165.15,195.0,0.0,0.0,0.0,0.0
1776451787044030574,3105,0.0,0.2,0.012,1.7,0.12,-0.02,0.06,-3.44,4.06,0.02,0.02,-0.33,-0.12,0.12,0.12,165.15,185.0,0.0,0.0,0.0,0.0
1776451787146439586,3205,0.088,0.4,0.0,0.2,-0.04,-0.04,0.06,-3.44,4.06,0.02,0.02,-0.34,-0.06,-0.06,0.06,165.15,185.0,0.0,0.0,0.0,0.0
1776451787244756812,3305,0.0,1.4,0.0,0.7,0.04,-0.25,0.06,-3.44,4.06,0.03,0.01,-0.35,-0.12,-0.0,0.0,164.98,195.0,0.0,0.0,0.0,0.0
1776451787347163472,3405,0.092,0.1,0.0,1.6,0.1,-0.06,0.06,-3.44,4.06,0.03,0.02,-0.34,-0.0,0.06,0.06,165.15,214.0,0.0,0.0,0.0,0.0
1776451787445451231,3506,0.0,0.1,0.0,1.1,0.0,-0.08,0.06,-3.44,4.06,0.04,-0.0,-0.37,0.06,-0.06,0.06,165.15,214.0,0.0,0.0,0.0,0.0
1776451787543715600,3606,0.092,0.3,0.0,1.4,0.1,0.06,0.06,-3.44,4.06,0.02,0.01,-0.34,0.06,-0.0,0.06,164.98,180.0,0.0,0.0,0.0,0.0
1776451787646182673,3705,0.092,-0.1,0.0,1.1,0.08,-0.06,0.06,-3.44,4.06,0.03,0.01,-0.36,0.06,-0.06,0.0,165.15,209.0,0.0,0.0,0.0,0.0
1776451787744516327,3805,0.092,1.0,0.0,1.6,-0.08,-0.12,0.06,-3.44,4.06,0.03,0.01,-0.35,-0.0,0.19,-0.06,165.15,209.0,0.0,0.0,0.0,0.0
1776451787846871907,3906,0.092,0.3,0.0,1.5,0.12,0.04,0.06,-3.44,4.06,0.02,0.01,-0.37,-0.0,0.06,-0.06,168.76,191.0,0.0,0.0,0.0,0.0
1776451787945214932,4005,0.0,0.0,0.0,1.1,0.0,-0.12,0.06,-3.44,4.06,0.03,0.03,-0.34,-0.06,0.12,0.12,164.13,195.0,0.0,0.0,0.0,0.0
1776451788053605134,4105,0.0,1.1,0.064,0.1,-0.06,-0.04,0.06,-3.44,4.06,0.03,0.01,-0.38,0.12,0.12,-0.06,168.76,195.0,0.0,0.0,0.0,0.0
1776451788145930314,4205,0.0,0.8,0.0,1.4,-0.06,0.0,0.06,-3.44,4.06,0.01,0.02,-0.34,-0.0,0.06,0.0,168.76,195.0,0.0,0.0,0.0,0.0
1776451788244246267,4304,0.096,0.3,0.0,0.3,-0.1,0.0,0.06,-3.44,4.06,0.02,0.02,-0.34,0.12,-0.06,0.0,168.76,195.0,0.0,0.0,0.0,0.0
1776451788346668519,4404,0.0,1.3,0.06,0.2,0.04,-0.12,0.06,-3.44,4.06,0.01,0.01,-0.37,0.06,-0.06,0.06,165.15,196.0,0.0,0.0,0.0,0.0
1776451788444918782,4505,0.088,0.1,0.0,1.5,-0.04,-0.1,0.06,-3.44,4.06,0.0,0.01,-0.34,0.06,-0.0,0.06,164.98,187.0,0.0,0.0,0.0,0.0
1776451788543231605,4604,0.092,0.2,0.064,0.1,-0.02,-0.08,0.06,-3.44,4.06,0.02,-0.0,-0.36,-0.12,-0.06,0.0,168.58,187.0,0.0,0.0,0.0,0.0
1776451788645739884,4704,0.0,0.5,0.06,0.2,-0.04,-0.04,0.06,-3.44,4.06,0.02,0.01,-0.35,-0.0,-0.06,-0.06,168.76,191.0,0.0,0.0,0.0,0.0
1776451788743998110,4804,0.0,1.4,0.064,0.3,-0.12,-0.2,0.06,-3.44,4.06,0.02,0.03,-0.34,0.06,0.06,-0.06,165.15,190.0,0.0,0.0,0.0,0.0
1776451788846416639,4903,0.0,1.3,0.072,0.3,-0.04,-0.02,0.06,-3.44,4.06,0.02,0.01,-0.34,-0.06,-0.12,0.06,165.15,190.0,0.0,0.0,0.0,0.0
1776451788944692070,5003,0.0,1.2,0.064,0.3,0.12,0.04,0.06,-3.44,4.06,0.03,-0.0,-0.36,-0.0,-0.06,0.06,164.98,200.0,0.0,0.0,0.0,0.0
1776451789043005205,5103,0.0,1.3,0.064,0.3,0.16,-0.04,0.06,-3.44,4.06,0.02,0.02,-0.34,-0.06,-0.0,0.0,165.15,199.0,0.0,0.0,0.0,0.0
1776451789145416051,5202,0.092,0.3,0.0,1.1,0.1,-0.12,0.06,-3.44,4.06,0.0,0.01,-0.36,0.12,-0.0,0.0,165.15,199.0,0.0,0.0,0.0,0.0
1776451789243724659,5302,0.092,0.0,0.0,1.1,0.23,0.1,0.06,-3.44,4.06,0.02,0.02,-0.36,-0.0,-0.06,0.12,166.18,207.0,0.0,0.0,0.0,0.0
1776451789346139838,5403,0.088,0.3,0.0,1.3,0.2,-0.1,0.06,-3.44,4.06,0.02,0.03,-0.33,-0.06,0.12,-0.06,165.15,207.0,0.0,0.0,0.0,0.0
1776451789444405776,5502,0.092,0.3,0.0,1.2,0.0,-0.16,0.06,-3.44,4.06,0.03,-0.0,-0.34,0.06,0.06,-0.06,165.15,207.0,0.0,0.0,0.0,0.0
1776451789542699254,5602,0.096,0.2,0.0,1.1,0.18,-0.14,0.06,-3.44,4.06,0.01,0.01,-0.36,0.06,0.19,-0.06,165.15,197.0,0.0,0.0,0.0,0.0
1776451789645172068,5702,0.096,0.0,0.0,1.4,0.16,0.0,0.06,-3.44,4.06,0.02,0.03,-0.36,0.12,-0.25,-0.12,165.15,197.0,0.0,0.0,0.0,0.0
1776451790225618334,5801,0.0,1.3,0.064,0.2,0.27,-0.1,0.06,-3.44,4.06,0.03,0.03,-0.35,-0.0,0.06,-0.06,165.15,200.0,0.0,0.0,0.0,0.0
1776451790243139596,5901,0.0,1.6,0.06,0.5,0.08,-0.02,0.06,-3.44,4.06,0.03,0.03,-0.36,-0.0,0.06,0.06,165.15,196.0,0.0,0.0,0.0,0.0
1776451790254737419,6002,0.0,0.3,0.0,1.3,0.08,-0.08,0.06,-3.44,4.06,0.02,0.02,-0.38,0.06,0.12,0.0,165.15,196.0,0.0,0.0,0.0,0.0
1776451790266191692,6102,0.0,0.6,0.06,0.3,0.02,0.0,0.06,-3.44,4.06,0.03,0.01,-0.36,-0.0,0.06,0.06,164.98,207.0,0.0,0.0,0.0,0.0
1776451790277608555,6202,0.0,0.9,0.0,1.3,0.02,-0.04,0.06,-3.44,4.06,0.02,0.01,-0.37,0.06,-0.06,0.0,165.15,207.0,0.0,0.0,0.0,0.0
1776451790345597633,6303,0.0,0.3,0.0,0.3,-0.02,-0.02,0.06,-3.44,4.06,0.02,0.02,-0.36,-0.0,-0.0,0.06,165.15,196.0,0.0,0.0,0.0,0.0
1776451790353949203,6403,0.0,0.6,0.0,1.4,-0.04,-0.02,0.06,-3.44,4.06,0.0,0.02,-0.37,0.19,-0.06,0.06,165.15,193.0,0.0,0.0,0.0,0.0
1776451790447980164,6503,0.096,0.2,0.0,1.4,-0.02,-0.02,0.06,-3.44,4.06,0.03,0.01,-0.37,0.12,-0.06,0.06,165.15,193.0,0.0,0.0,0.0,0.0
1776451790546276501,6604,0.088,0.2,0.068,0.2,0.04,0.1,0.06,-3.44,4.06,0.02,-0.0,-0.35,-0.06,-0.0,-0.12,165.15,189.0,0.0,0.0,0.0,0.0
1776451790648721500,6704,0.0,1.3,0.068,0.2,-0.12,0.02,0.06,-3.44,4.06,0.02,0.04,-0.35,-0.0,-0.06,0.0,165.15,210.0,0.0,0.0,0.0,0.0
1776451790747013633,6804,0.0,1.3,0.06,0.1,0.0,-0.14,0.06,-3.44,4.06,0.01,0.02,-0.36,-0.12,0.12,0.0,165.15,210.0,0.0,0.0,0.0,0.0
1776451790855301677,6905,0.0,0.4,0.0,1.0,0.04,-0.04,0.06,-3.44,4.06,0.01,0.02,-0.34,0.19,-0.06,0.0,165.15,196.0,0.0,0.0,0.0,0.0
1776451790947700946,7005,0.0,0.7,0.06,0.2,0.14,0.04,0.06,-3.44,4.06,0.0,0.04,-0.33,0.12,0.12,0.06,165.15,194.0,0.0,0.0,0.0,0.0
1776451791045966163,7105,0.0,0.0,0.0,1.4,0.02,-0.14,0.06,-3.44,4.06,0.02,0.02,-0.34,0.06,0.06,0.06,165.15,194.0,0.0,0.0,0.0,0.0
1776451791193586355,7205,0.0,1.4,0.072,0.3,0.16,-0.14,0.06,-3.44,4.06,0.02,0.02,-0.38,-0.0,-0.0,0.06,165.15,186.0,0.0,0.0,0.0,0.0
1776451791246697670,7305,0.0,1.3,0.068,0.3,0.06,-0.1,0.06,-3.44,4.06,0.02,0.01,-0.35,-0.06,0.06,0.0,169.27,199.0,0.0,0.0,0.0,0.0
1776451791349093963,7405,0.0,0.2,0.0,1.2,0.08,-0.06,0.06,-3.44,4.06,0.01,0.03,-0.36,0.06,0.06,0.0,166.18,199.0,0.0,0.0,0.0,0.0
1776451791447440901,7505,0.088,0.3,0.0,1.2,0.23,-0.04,0.06,-3.44,4.06,0.03,0.03,-0.34,-0.0,-0.12,-0.06,164.98,196.0,0.0,0.0,0.0,0.0
1776451791549841620,7605,0.0,0.9,0.056,0.2,0.04,-0.06,0.06,-3.44,4.06,0.02,-0.0,-0.34,0.06,0.12,0.06,165.15,196.0,0.0,0.0,0.0,0.0
1776451791869578649,7705,0.0,0.0,0.0,1.2,-0.16,-0.14,0.06,-3.44,4.06,0.0,0.02,-0.35,-0.06,0.06,-0.06,165.15,200.0,0.0,0.0,0.0,0.0
1776451791880894222,7804,0.0,1.2,0.0,0.3,-0.08,0.0,0.06,-3.44,4.06,0.01,0.03,-0.35,-0.0,-0.0,-0.06,165.15,203.0,0.0,0.0,0.0,0.0
1776451791947155199,7905,0.0,0.7,0.06,0.2,0.14,0.04,0.06,-3.44,4.06,0.01,0.02,-0.34,-0.06,-0.0,0.06,165.15,203.0,0.0,0.0,0.0,0.0
1776451791958252032,8005,0.0,0.9,0.0,1.2,-0.02,-0.1,0.06,-3.44,4.06,0.02,0.03,-0.35,-0.06,-0.0,0.06,165.15,186.0,0.0,0.0,0.0,0.0
1776451792049557330,8105,0.0,1.0,0.0,1.2,0.18,-0.08,0.06,-3.44,4.06,0.03,0.01,-0.35,0.06,-0.25,-0.12,169.27,177.0,0.0,0.0,0.0,0.0
1776451792147859616,8205,0.0,0.7,0.056,0.3,0.02,0.02,0.06,-3.44,4.06,0.0,0.02,-0.35,-0.0,0.12,-0.06,165.15,177.0,0.0,0.0,0.0,0.0
1776451792250265074,8305,0.0,-0.1,0.0,1.4,0.18,-0.18,0.06,-3.44,4.06,0.01,-0.0,-0.36,0.19,0.06,0.0,169.27,218.0,0.0,0.0,0.0,0.0
1776451792348564026,8404,0.088,0.2,0.0,0.6,0.08,0.0,0.06,-3.44,4.06,0.02,0.03,-0.34,-0.0,0.12,0.0,169.61,198.0,0.0,0.0,0.0,0.0
1776451792450974966,8505,0.0,1.1,0.072,1.0,-0.02,-0.21,0.06,-3.44,4.06,0.04,0.02,-0.37,0.06,-0.12,0.0,168.76,198.0,0.0,0.0,0.0,0.0
1776451792549292735,8606,0.092,0.0,0.0,1.1,0.16,-0.08,0.06,-3.44,4.06,0.03,0.04,-0.34,0.12,-0.0,0.06,164.98,191.0,0.0,0.0,0.0,0.0
1776451792651687192,8706,0.092,0.1,0.0,1.1,0.1,0.02,0.06,-3.44,4.06,0.0,0.03,-0.36,-0.12,-0.0,0.0,165.15,191.0,0.0,0.0,0.0,0.0
1776451792749989830,8807,0.0,0.3,0.0,1.5,0.06,-0.06,0.06,-3.44,4.06,0.03,0.03,-0.39,0.06,-0.06,0.12,169.27,177.0,0.0,0.0,0.0,0.0
1776451792852395954,8906,0.096,0.1,0.0,1.3,0.12,-0.04,0.06,-3.44,4.06,0.0,0.01,-0.34,0.06,0.12,-0.06,164.47,217.0,0.0,0.0,0.0,0.0
1776451792985581361,9007,0.092,0.2,0.0,1.6,0.1,-0.2,0.06,-3.44,4.06,0.02,0.02,-0.37,-0.06,-0.12,0.06,169.27,217.0,0.0,0.0,0.0,0.0
1776451793053131167,9108,0.0,1.4,0.0,1.0,0.12,-0.06,0.06,-3.44,4.06,0.03,0.03,-0.36,0.06,0.12,0.06,168.58,195.0,0.0,0.0,0.0,0.0
1776451793151422074,9207,0.0,0.7,0.0,1.6,0.18,-0.04,0.06,-3.44,4.06,0.01,0.04,-0.38,0.06,0.06,0.0,168.58,211.0,0.0,0.0,0.0,0.0
1776451793253819246,9308,0.0,1.3,0.072,0.2,0.0,-0.12,0.06,-3.44,4.06,0.03,0.03,-0.35,-0.06,-0.06,0.06,168.76,211.0,0.0,0.0,0.0,0.0
1776451793352128284,9409,0.0,1.3,0.064,0.5,-0.04,0.02,0.06,-3.44,4.06,0.03,0.02,-0.36,-0.0,0.19,0.06,168.76,179.0,0.0,0.0,0.0,0.0
1776451793454534549,9508,0.0,0.3,0.0,0.3,0.02,-0.08,0.06,-3.44,4.06,0.01,0.01,-0.37,-0.06,0.12,-0.06,168.58,201.0,0.0,0.0,0.0,0.0
1776451793552815104,9609,0.0,0.7,0.0,1.5,0.14,-0.02,0.06,-3.44,4.06,0.02,0.01,-0.36,-0.06,0.06,-0.06,165.15,201.0,0.0,0.0,0.0,0.0
1776451793655243315,9710,0.088,0.1,0.0,1.4,0.02,-0.14,0.06,-3.44,4.06,0.02,0.03,-0.36,0.12,-0.06,0.0,164.98,195.0,0.0,0.0,0.0,0.0
1776451793753554168,9809,0.096,0.2,0.0,1.4,0.08,0.12,0.06,-3.44,4.06,0.01,0.01,-0.37,-0.0,-0.0,0.0,164.98,191.0,0.0,0.0,0.0,0.0
1776451793855968730,9910,0.092,0.3,0.0,1.4,0.14,-0.14,0.06,-3.44,4.06,0.0,0.04,-0.36,0.19,-0.06,-0.06,165.15,191.0,0.0,0.0,0.0,0.0
1776451793954245266,10011,0.088,0.1,0.0,1.6,0.1,-0.14,0.06,-3.44,4.06,0.03,0.02,-0.37,-0.06,-0.12,0.0,165.15,200.0,0.0,0.0,0.0,0.0
1776451794056715832,10110,0.0,0.6,0.0,1.6,0.1,-0.06,0.06,-3.44,4.06,0.03,0.01,-0.34,0.06,-0.19,0.06,165.15,200.0,0.0,0.0,0.0,0.0
1776451794154984055,10210,0.084,0.2,0.0,0.3,0.06,-0.06,0.06,-3.44,4.06,0.03,0.02,-0.36,-0.12,-0.06,0.06,165.15,206.0,0.0,0.0,0.0,0.0
1776451794253286317,10309,0.092,0.1,0.056,0.7,0.04,-0.12,0.06,-3.44,4.06,0.02,0.03,-0.38,0.06,-0.12,-0.12,165.15,206.0,0.0,0.0,0.0,0.0
1776451794355681955,10408,0.0,1.0,0.056,0.5,0.12,-0.16,0.06,-3.44,4.06,0.0,0.02,-0.34,-0.0,-0.0,0.0,164.98,206.0,0.0,0.0,0.0,0.0
1776451794454005534,10508,0.0,0.1,0.0,1.6,0.18,0.12,0.06,-3.44,4.06,0.03,0.03,-0.35,-0.19,-0.06,0.06,165.15,207.0,0.0,0.0,0.0,0.0
1776451794556395856,10609,0.0,1.2,0.0,1.1,0.08,-0.1,0.06,-3.44,4.06,0.02,0.02,-0.36,-0.06,0.06,0.12,165.15,197.0,0.0,0.0,0.0,0.0
1776451794654693896,10708,0.092,0.1,0.0,1.2,0.14,-0.02,0.06,-3.44,4.06,0.01,0.03,-0.36,-0.06,-0.12,0.06,166.18,197.0,0.0,0.0,0.0,0.0
1776451794763024955,10809,0.092,0.3,0.0,1.0,0.16,-0.12,0.06,-3.44,4.06,0.02,0.02,-0.35,0.06,-0.06,0.12,164.98,196.0,0.0,0.0,0.0,0.0
1776451794855426872,10909,0.092,0.2,0.0,0.3,0.04,-0.1,0.06,-3.44,4.06,0.02,0.02,-0.35,-0.06,-0.0,0.06,163.95,211.0,0.0,0.0,0.0,0.0
1776451794957825807,11010,0.0,0.1,0.0,1.5,0.12,-0.12,0.06,-3.44,4.06,0.02,0.03,-0.36,0.19,0.06,-0.12,165.15,211.0,0.0,0.0,0.0,0.0
1776451795056130941,11110,0.092,0.2,0.0,1.5,0.12,-0.04,0.06,-3.44,4.06,0.0,0.03,-0.35,-0.0,-0.0,-0.06,165.15,197.0,0.0,0.0,0.0,0.0
1776451795154438233,11209,0.0,1.2,0.0,0.3,0.06,-0.08,0.06,-3.44,4.06,0.0,0.01,-0.4,-0.06,0.06,-0.06,165.84,197.0,0.0,0.0,0.0,0.0
1776451795256905369,11310,0.0,0.6,0.0,1.5,0.06,-0.14,0.06,-3.44,4.06,0.04,0.02,-0.36,0.06,-0.0,-0.06,165.15,212.0,0.0,0.0,0.0,0.0
1776451795377621536,11410,0.0,1.3,0.0,1.2,0.12,0.0,0.06,-3.44,4.06,0.01,0.03,-0.36,0.06,-0.12,-0.19,165.15,197.0,0.0,0.0,0.0,0.0
1776451795457628867,11510,0.088,0.4,0.0,1.0,0.06,-0.06,0.06,-3.44,4.06,0.02,0.03,-0.37,0.12,-0.19,-0.06,165.15,197.0,0.0,0.0,0.0,0.0
1776451795555876617,11610,0.088,0.3,0.0,1.3,0.1,-0.14,0.06,-3.44,4.06,0.02,0.02,-0.34,-0.06,-0.06,0.0,165.15,210.0,0.0,0.0,0.0,0.0
1776451795654181890,11710,0.096,0.3,0.0,1.4,-0.02,-0.1,0.06,-3.44,4.06,0.01,0.01,-0.38,0.06,0.12,-0.06,165.15,188.0,0.0,0.0,0.0,0.0
1776451795756629951,11809,0.088,0.6,0.0,1.2,0.12,0.0,0.06,-3.44,4.06,0.03,0.02,-0.34,-0.0,-0.0,0.0,165.15,188.0,0.0,0.0,0.0,0.0
1776451795864994926,11910,0.0,0.9,0.068,1.3,0.04,-0.2,0.06,-3.44,4.06,0.01,0.04,-0.37,-0.0,0.19,0.0,165.15,201.0,0.0,0.0,0.0,0.0
1776451795957353560,12010,0.092,1.1,0.064,0.3,0.16,-0.14,0.06,-3.44,4.06,0.03,0.01,-0.37,-0.06,-0.0,-0.06,165.15,189.0,0.0,0.0,0.0,0.0
1776451796055653454,12110,0.0,1.5,0.0,1.1,0.1,-0.14,0.06,-3.44,4.06,0.01,0.02,-0.38,0.06,0.06,0.19,165.15,189.0,0.0,0.0,0.0,0.0
1776451796158045475,12210,0.092,0.1,0.0,0.1,0.06,-0.16,0.06,-3.44,4.06,0.04,0.01,-0.36,0.06,-0.06,0.19,165.15,191.0,0.0,0.0,0.0,0.0
1776451796256413138,12310,0.0,0.6,0.064,0.3,0.16,-0.02,0.06,-3.44,4.06,0.01,0.02,-0.36,0.12,-0.0,0.0,165.15,191.0,0.0,0.0,0.0,0.0
1776451796354628830,12409,0.0,0.5,0.0,1.8,0.04,0.06,0.06,-3.44,4.06,0.03,0.02,-0.35,-0.0,0.06,0.0,165.15,206.0,0.0,0.0,0.0,0.0
1776451796457055761,12510,0.092,0.5,0.068,0.5,0.0,-0.1,0.06,-3.44,4.06,0.03,0.04,-0.37,0.12,0.06,0.0,169.27,194.0,0.0,0.0,0.0,0.0
1776451796555324937,12610,0.0,1.5,0.068,0.8,0.06,0.1,0.06,-3.44,4.06,0.01,0.03,-0.37,0.06,-0.06,0.06,169.27,194.0,0.0,0.0,0.0,0.0
1776451796657739774,12709,0.092,0.0,0.0,1.3,-0.04,0.06,0.06,-3.44,4.06,0.03,0.02,-0.37,-0.0,-0.0,0.06,169.27,200.0,0.0,0.0,0.0,0.0
1776451797009622591,12809,0.096,0.4,0.068,0.3,0.02,-0.2,0.06,-3.44,4.06,0.02,0.01,-0.39,-0.06,0.19,0.06,169.27,202.0,0.0,0.0,0.0,0.0
1776451797059192157,12909,0.0,0.7,0.068,0.3,0.08,-0.16,0.06,-3.44,4.06,0.02,0.03,-0.36,0.06,-0.0,0.06,169.27,202.0,0.0,0.0,0.0,0.0
1776451797071723658,13008,0.0,0.7,0.06,0.2,-0.02,-0.08,0.06,-3.44,4.06,0.02,-0.0,-0.4,0.06,-0.12,0.06,169.27,204.0,0.0,0.0,0.0,0.0
1776451797083722223,13109,0.0,0.7,0.064,0.7,0.18,0.04,0.06,-3.44,4.06,0.02,0.02,-0.37,0.06,0.06,0.0,165.15,204.0,0.0,0.0,0.0,0.0
1776451797157480170,13210,0.0,0.1,0.0,1.6,-0.02,0.04,0.06,-3.44,4.06,0.0,0.01,-0.36,-0.06,0.06,0.12,165.15,204.0,0.0,0.0,0.0,0.0
1776451797255798241,13309,0.092,0.2,0.0,1.8,-0.02,0.04,0.06,-3.44,4.06,0.03,0.04,-0.4,-0.06,0.19,0.19,164.98,204.0,0.0,0.0,0.0,0.0
1776451797358190917,13409,0.092,0.3,0.0,1.3,0.08,-0.04,0.06,-3.44,4.06,0.01,0.02,-0.39,-0.06,-0.06,-0.06,165.15,204.0,0.0,0.0,0.0,0.0
1776451797456522340,13509,0.092,0.3,0.0,0.2,0.16,-0.12,0.06,-3.44,4.06,0.02,0.04,-0.37,-0.12,0.06,0.06,165.15,205.0,0.0,0.0,0.0,0.0
1776451797558859291,13609,0.0,1.5,0.06,0.2,0.0,-0.06,0.06,-3.44,4.06,0.01,0.01,-0.35,-0.06,0.19,0.06,169.27,199.0,0.0,0.0,0.0,0.0
1776451797657214734,13709,0.092,0.3,0.0,0.6,0.16,-0.02,0.06,-3.44,4.06,0.01,0.02,-0.36,-0.0,0.06,0.0,169.27,199.0,0.0,0.0,0.0,0.0
1776451797755524081,13809,0.0,0.0,0.0,1.7,-0.08,-0.2,0.06,-3.44,4.06,0.04,0.02,-0.38,0.06,0.06,0.06,165.15,206.0,0.0,0.0,0.0,0.0
1776451797857930944,13908,0.088,0.4,0.0,1.2,-0.16,-0.2,0.06,-3.44,4.06,0.02,0.02,-0.37,0.06,-0.06,0.06,169.27,190.0,0.0,0.0,0.0,0.0
1776451797956190622,14009,0.088,0.4,0.0,1.2,0.12,0.1,0.06,-3.44,4.06,0.03,-0.0,-0.38,0.06,0.06,0.0,165.67,190.0,0.0,0.0,0.0,0.0
1776451798058659552,14110,0.1,0.0,0.0,1.0,0.1,-0.02,0.06,-3.44,4.06,0.03,0.01,-0.36,-0.06,-0.0,0.0,165.15,175.0,0.0,0.0,0.0,0.0
1776451798166963367,14210,0.0,0.9,0.0,1.5,0.1,-0.1,0.06,-3.44,4.06,0.02,0.01,-0.37,0.06,-0.12,0.0,165.15,180.0,0.0,0.0,0.0,0.0
1776451798259330739,14311,0.0,1.3,0.064,0.2,0.12,-0.02,0.06,-3.44,4.06,0.01,-0.0,-0.38,0.06,-0.06,0.06,164.98,180.0,0.0,0.0,0.0,0.0
1776451798357579164,14411,0.0,1.2,0.0,0.7,0.02,-0.04,0.06,-3.44,4.06,0.03,-0.0,-0.38,0.06,-0.0,0.12,164.98,196.0,0.0,0.0,0.0,0.0
1776451798460030169,14511,0.0,0.7,0.064,0.3,0.02,-0.08,0.06,-3.44,4.06,0.01,0.01,-0.39,-0.0,0.12,0.0,165.15,199.0,0.0,0.0,0.0,0.0
1776451798562413134,14611,0.0,1.0,0.0,0.5,0.2,-0.04,0.06,-3.44,4.06,0.0,0.02,-0.35,-0.0,0.12,0.12,165.15,199.0,0.0,0.0,0.0,0.0
1776451798660749656,14712,0.0,1.4,0.068,0.2,0.02,-0.12,0.06,-3.44,4.06,0.03,0.03,-0.41,-0.0,0.12,-0.12,165.15,186.0,0.0,0.0,0.0,0.0
1776451798759028841,14812,0.0,1.3,0.064,0.1,0.08,-0.14,0.06,-3.44,4.06,0.02,0.02,-0.36,-0.06,-0.0,0.06,165.15,186.0,0.0,0.0,0.0,0.0
1776451798861462438,14912,0.096,0.2,0.068,0.3,0.04,-0.14,0.06,-3.44,4.06,0.03,0.03,-0.37,-0.12,-0.0,0.0,165.15,202.0,0.0,0.0,0.0,0.0
1776451798959739253,15012,0.0,0.6,0.0,1.3,0.08,-0.02,0.06,-3.44,4.06,0.01,0.01,-0.4,0.06,-0.06,0.06,165.15,180.0,0.0,0.0,0.0,0.0
1776451799177628158,15113,0.096,-0.2,0.0,1.2,0.1,0.08,0.06,-3.44,4.06,0.01,0.03,-0.37,0.12,0.06,0.0,169.27,180.0,0.0,0.0,0.0,0.0
1776451799190077575,15213,0.084,0.5,0.068,0.3,0.02,-0.14,0.06,-3.44,4.06,0.0,0.01,-0.37,-0.12,0.06,0.0,165.15,197.0,0.0,0.0,0.0,0.0
1776451799262884594,15313,0.0,0.6,0.064,0.4,0.0,0.04,0.06,-3.44,4.06,0.03,0.04,-0.38,-0.0,-0.06,0.12,166.18,203.0,0.0,0.0,0.0,0.0
1776451799365295185,15414,0.0,1.1,0.052,0.3,0.04,-0.06,0.06,-3.44,4.06,0.0,0.02,-0.37,-0.06,-0.06,0.06,166.18,203.0,0.0,0.0,0.0,0.0
1776451799463645919,15515,0.0,0.1,0.0,1.3,0.08,-0.12,0.06,-3.44,4.06,0.02,0.02,-0.38,0.12,0.06,0.06,165.15,189.0,0.0,0.0,0.0,0.0
1776451799561839850,15614,0.0,1.0,0.076,0.5,0.0,0.08,0.06,-3.44,4.06,0.03,0.04,-0.4,-0.0,-0.0,0.0,165.15,189.0,0.0,0.0,0.0,0.0
1776451799664276275,15714,0.0,0.5,0.0,1.2,0.06,-0.18,0.06,-3.44,4.06,0.03,0.02,-0.38,0.06,-0.12,-0.12,165.15,206.0,0.0,0.0,0.0,0.0
1776451799762600823,15814,0.096,0.1,0.0,1.7,-0.04,-0.02,0.06,-3.44,4.06,0.01,0.03,-0.39,-0.0,-0.06,0.19,166.18,186.0,0.0,0.0,0.0,0.0
1776451799865006191,15915,0.096,0.2,0.0,1.5,-0.08,-0.08,0.06,-3.44,4.06,0.01,0.03,-0.37,0.19,-0.0,0.12,165.15,186.0,0.0,0.0,0.0,0.0
1776451799963309701,16015,0.088,0.3,0.0,1.7,0.1,-0.02,0.06,-3.44,4.06,0.03,0.02,-0.37,-0.0,-0.0,0.06,165.15,199.0,0.0,0.0,0.0,0.0
1776451800065696707,16115,0.092,1.4,0.0,0.4,-0.04,-0.1,0.06,-3.44,4.06,0.03,0.02,-0.36,-0.0,-0.06,0.06,165.15,212.0,0.0,0.0,0.0,0.0
1776451800163999929,16215,0.0,0.2,0.06,0.1,0.08,0.1,0.06,-3.44,4.06,0.0,0.02,-0.37,0.06,0.06,-0.06,165.15,212.0,0.0,0.0,0.0,0.0
1776451800262238778,16315,0.0,0.4,0.0,1.3,0.2,-0.1,0.06,-3.44,4.06,0.03,0.02,-0.35,-0.06,0.06,0.0,165.15,197.0,0.0,0.0,0.0,0.0
1776451800364714535,16414,0.0,0.2,0.0,1.7,0.04,-0.08,0.06,-3.44,4.06,0.02,0.01,-0.36,0.06,0.06,0.06,165.15,215.0,0.0,0.0,0.0,0.0
1776451800463029405,16514,0.096,0.5,0.0,1.4,-0.1,-0.02,0.06,-3.44,4.06,0.04,0.02,-0.4,-0.06,-0.19,0.0,165.15,215.0,0.0,0.0,0.0,0.0
1776451800565360267,16614,0.096,0.2,0.0,1.5,0.08,0.1,0.06,-3.44,4.06,0.02,0.02,-0.38,0.06,-0.12,0.06,165.15,185.0,0.0,0.0,0.0,0.0
1776451800663680656,16713,0.096,0.5,0.0,1.0,0.02,-0.02,0.06,-3.44,4.06,0.02,0.03,-0.33,-0.0,-0.19,0.06,165.15,196.0,0.0,0.0,0.0,0.0
1776451800766122690,16814,0.0,0.3,0.072,0.3,0.0,-0.21,0.06,-3.44,4.06,0.01,-0.0,-0.36,-0.0,-0.12,0.0,165.15,196.0,0.0,0.0,0.0,0.0
1776451800864432894,16915,0.0,1.6,0.0,1.1,0.06,-0.04,0.06,-3.44,4.06,0.02,0.03,-0.36,0.06,-0.06,0.06,165.15,197.0,0.0,0.0,0.0,0.0
1776451800966827388,17015,0.092,0.5,0.0,1.0,0.06,-0.14,0.06,-3.44,4.06,0.01,0.03,-0.35,-0.0,0.19,-0.06,165.15,197.0,0.0,0.0,0.0,0.0
1776451801065140269,17115,0.0,0.1,0.0,1.6,0.16,-0.06,0.06,-3.44,4.06,0.04,0.04,-0.35,-0.06,0.12,-0.06,165.15,204.0,0.0,0.0,0.0,0.0
1776451801167529889,17215,0.0,1.2,0.0,1.2,-0.02,-0.12,0.06,-3.44,4.06,0.03,0.04,-0.35,-0.0,0.06,-0.06,165.15,196.0,0.0,0.0,0.0,0.0
1776451801265834583,17315,0.092,0.3,0.0,0.5,0.12,-0.12,0.06,-3.44,4.06,0.02,0.02,-0.35,0.06,0.12,-0.06,165.15,196.0,0.0,0.0,0.0,0.0
1776451801368236630,17415,0.0,0.4,0.0,1.7,0.1,0.04,0.06,-3.44,4.06,0.02,0.05,-0.36,-0.12,0.06,0.0,166.18,200.0,0.0,0.0,0.0,0.0
1776451801466556694,17516,0.096,0.4,0.0,1.3,-0.1,-0.02,0.06,-3.44,4.06,0.03,0.02,-0.34,0.06,-0.0,0.19,165.15,190.0,0.0,0.0,0.0,0.0
1776451801568896294,17616,0.0,1.2,0.0,1.5,0.06,-0.27,0.06,-3.44,4.06,0.03,0.01,-0.34,0.12,-0.06,0.12,165.15,190.0,0.0,0.0,0.0,0.0
1776451801667240525,17717,0.092,0.0,0.0,1.2,0.06,-0.02,0.06,-3.44,4.06,0.01,0.01,-0.38,0.06,-0.06,0.0,165.15,187.0,0.0,0.0,0.0,0.0
1776451801769646980,17817,0.088,0.2,0.0,1.1,0.08,-0.21,0.06,-3.44,4.06,0.02,0.01,-0.38,0.06,-0.0,0.0,165.15,196.0,0.0,0.0,0.0,0.0
1776451801867951562,17917,0.0,0.7,0.0,1.4,0.02,-0.04,0.06,-3.44,4.06,0.02,0.02,-0.38,0.12,-0.06,0.0,165.15,196.0,0.0,0.0,0.0,0.0
1776451801970356868,18017,0.0,1.5,0.068,0.4,0.1,-0.04,0.06,-3.44,4.06,0.02,0.03,-0.35,0.12,-0.12,0.0,165.15,211.0,0.0,0.0,0.0,0.0
1776451802068654500,18117,0.0,1.2,0.072,0.7,0.06,0.02,0.06,-3.44,4.06,0.03,0.03,-0.36,-0.0,0.06,0.0,165.15,211.0,0.0,0.0,0.0,0.0
1776451802166956644,18216,0.0,0.9,0.064,0.3,-0.04,-0.06,0.06,-3.44,4.06,0.02,0.01,-0.36,0.06,-0.0,0.12,165.15,199.0,0.0,0.0,0.0,0.0
1776451802269360427,18317,0.0,0.5,0.068,0.7,0.04,-0.04,0.06,-3.44,4.06,0.02,0.01,-0.37,-0.0,-0.06,0.0,165.15,215.0,0.0,0.0,0.0,0.0
1776451802367670368,18417,0.0,0.6,0.0,1.5,0.04,-0.12,0.06,-3.44,4.06,0.03,0.02,-0.37,-0.0,0.12,0.0,165.15,215.0,0.0,0.0,0.0,0.0
1776451802465948974,18516,0.096,0.6,0.064,0.3,0.12,0.0,0.06,-3.44,4.06,0.03,0.04,-0.36,-0.19,0.12,0.0,165.15,200.0,0.0,0.0,0.0,0.0
1776451802568334886,18616,0.0,1.3,0.072,0.3,0.2,-0.02,0.06,-3.44,4.06,0.02,0.01,-0.35,0.06,-0.06,-0.06,164.98,195.0,0.0,0.0,0.0,0.0
1776451802666660920,18716,0.0,0.2,0.0,1.1,-0.06,-0.06,0.06,-3.44,4.06,0.01,0.04,-0.37,0.19,-0.06,0.06,165.15,195.0,0.0,0.0,0.0,0.0
1776451802769076871,18817,0.092,0.2,0.0,1.1,0.12,-0.1,0.06,-3.44,4.06,0.03,0.02,-0.34,0.06,0.06,-0.19,165.15,214.0,0.0,0.0,0.0,0.0
1776451802867342273,18918,0.0,0.9,0.064,0.4,0.06,-0.02,0.06,-3.44,4.06,0.02,-0.0,-0.35,0.06,-0.0,0.0,165.15,198.0,0.0,0.0,0.0,0.0
1776451802969783336,19017,0.0,0.9,0.068,0.5,-0.04,0.02,0.06,-3.44,4.06,0.02,0.02,-0.36,0.12,0.06,0.0,165.15,198.0,0.0,0.0,0.0,0.0
1776451803068095081,19117,0.0,0.8,0.064,0.1,0.16,-0.2,0.06,-3.44,4.06,0.02,0.04,-0.37,-0.0,-0.0,0.06,165.15,195.0,0.0,0.0,0.0,0.0
1776451803170487876,19217,0.096,0.2,0.0,1.5,0.16,-0.02,0.06,-3.44,4.06,0.01,0.01,-0.38,-0.0,-0.12,-0.06,165.15,207.0,0.0,0.0,0.0,0.0
1776451803268787394,19316,0.1,0.3,0.0,1.6,0.14,0.04,0.06,-3.44,4.06,0.01,0.01,-0.37,-0.0,-0.0,0.06,165.15,207.0,0.0,0.0,0.0,0.0
1776451803367098431,19416,0.096,0.2,0.0,1.7,0.2,-0.08,0.06,-3.44,4.06,0.03,0.02,-0.34,-0.0,-0.0,0.0,165.15,205.0,0.0,0.0,0.0,0.0
1776451803469490042,19516,0.0,1.2,0.06,0.4,0.1,-0.12,0.06,-3.44,4.06,0.01,0.03,-0.34,-0.25,0.06,0.06,165.15,205.0,0.0,0.0,0.0,0.0
1776451803577874646,19617,0.0,1.4,0.0,1.2,-0.04,-0.02,0.06,-3.44,4.06,0.04,0.02,-0.35,0.06,-0.19,-0.12,165.15,183.0,0.0,0.0,0.0,0.0
1776451803670192763,19718,0.088,0.1,0.0,1.0,0.16,-0.06,0.06,-3.44,4.06,0.02,0.02,-0.35,-0.0,0.06,0.0,165.15,190.0,0.0,0.0,0.0,0.0
1776451803772593522,19819,0.088,0.2,0.0,1.1,0.0,-0.04,0.06,-3.44,4.06,0.01,0.01,-0.37,-0.0,-0.0,0.0,165.15,190.0,0.0,0.0,0.0,0.0
1776451803870899429,19918,0.092,0.1,0.0,1.1,0.12,-0.06,0.06,-3.44,4.06,0.03,0.03,-0.36,-0.12,-0.06,0.06,165.15,203.0,0.0,0.0,0.0,0.0
1776451803979261589,20018,0.0,0.0,0.0,0.3,0.06,0.02,0.06,-3.44,4.06,0.02,0.02,-0.37,-0.06,-0.06,-0.06,165.15,195.0,0.0,0.0,0.0,0.0
1776451804071604549,20118,0.0,1.4,0.0,0.4,-0.02,-0.06,0.06,-3.44,4.06,0.02,-0.0,-0.35,-0.0,0.19,0.06,165.15,195.0,0.0,0.0,0.0,0.0
1776451804169915864,20218,0.0,0.8,0.0,0.6,0.0,0.08,0.06,-3.44,4.06,0.02,-0.0,-0.35,0.06,0.06,0.0,165.15,207.0,0.0,0.0,0.0,0.0
1776451804272310354,20318,0.0,1.5,0.072,0.3,0.25,-0.08,0.06,-3.44,4.06,0.03,0.01,-0.37,0.12,-0.0,-0.19,165.15,207.0,0.0,0.0,0.0,0.0
1776451804370619076,20418,0.0,0.1,0.064,0.3,0.0,-0.12,0.06,-3.44,4.06,0.04,0.03,-0.36,-0.0,0.06,0.0,165.15,214.0,0.0,0.0,0.0,0.0
1776451804468969540,20517,0.096,0.7,0.06,0.1,0.08,-0.08,0.06,-3.44,4.06,0.03,0.01,-0.33,-0.19,0.06,0.0,165.15,205.0,0.0,0.0,0.0,0.0
1776451804571277416,20618,0.0,1.4,0.0,1.0,0.04,0.04,0.06,-3.44,4.06,0.0,0.02,-0.38,-0.0,-0.0,0.06,165.15,205.0,0.0,0.0,0.0,0.0
1776451804669586712,20718,0.092,0.3,0.0,1.1,0.16,-0.04,0.06,-3.44,4.06,0.03,0.02,-0.35,-0.0,-0.06,0.06,166.18,197.0,0.0,0.0,0.0,0.0
1776451804772019667,20818,0.092,0.4,0.0,1.8,0.08,0.12,0.06,-3.44,4.06,0.03,0.02,-0.36,0.06,0.12,-0.06,165.15,203.0,0.0,0.0,0.0,0.0
1776451804870290628,20918,0.096,0.4,0.0,1.1,0.02,-0.04,0.06,-3.44,4.06,0.03,0.02,-0.34,-0.0,0.06,-0.12,165.15,203.0,0.0,0.0,0.0,0.0
1776451804972727435,21019,0.088,0.0,0.0,1.1,0.06,-0.04,0.06,-3.44,4.06,0.03,0.03,-0.35,0.06,-0.06,0.0,165.15,196.0,0.0,0.0,0.0,0.0
1776451805071077955,21118,0.0,0.7,0.068,0.6,0.16,0.02,0.06,-3.44,4.06,0.02,0.02,-0.37,0.06,-0.06,0.06,165.15,179.0,0.0,0.0,0.0,0.0
1776451805173437153,21218,0.092,0.1,0.0,1.7,0.1,-0.12,0.06,-3.44,4.06,0.02,0.02,-0.33,-0.0,-0.06,0.06,165.15,179.0,0.0,0.0,0.0,0.0
1776451805271742037,21318,0.092,-0.1,0.0,0.4,0.12,-0.1,0.06,-3.44,4.06,0.02,0.02,-0.34,-0.0,-0.06,0.0,169.27,191.0,0.0,0.0,0.0,0.0
1776451805370021624,21417,0.0,1.2,0.068,0.3,-0.04,-0.04,0.06,-3.44,4.06,0.01,0.02,-0.34,-0.06,-0.06,0.06,169.27,189.0,0.0,0.0,0.0,0.0
1776451805472395878,21518,0.0,1.4,0.072,0.7,0.14,-0.1,0.06,-3.44,4.06,0.01,0.03,-0.35,-0.0,-0.0,0.0,165.15,189.0,0.0,0.0,0.0,0.0
1776451805570706743,21618,0.0,1.0,0.0,1.4,0.14,-0.1,0.06,-3.44,4.06,0.03,0.01,-0.35,-0.06,-0.06,0.06,169.96,196.0,0.0,0.0,0.0,0.0
1776451805673183630,21718,0.092,0.2,0.0,1.7,0.12,0.06,0.06,-3.44,4.06,0.02,0.03,-0.34,-0.0,-0.12,0.12,165.67,196.0,0.0,0.0,0.0,0.0
1776451805771434512,21818,0.088,1.2,0.064,0.5,0.12,-0.16,0.06,-3.44,4.06,0.01,0.03,-0.36,0.06,0.06,-0.06,165.67,199.0,0.0,0.0,0.0,0.0
1776451805873849027,21918,0.0,1.3,0.068,0.3,0.16,-0.06,0.06,-3.44,4.06,0.02,0.03,-0.34,-0.06,-0.0,0.0,165.67,200.0,0.0,0.0,0.0,0.0
1776451805972130688,22019,0.0,1.7,0.072,1.0,0.0,-0.02,0.06,-3.44,4.06,0.01,0.02,-0.35,0.06,0.06,-0.06,165.84,200.0,0.0,0.0,0.0,0.0
1776451806080468137,22119,0.096,0.3,0.0,1.0,0.1,-0.02,0.06,-3.44,4.06,0.03,0.03,-0.35,-0.12,0.12,0.0,165.84,188.0,0.0,0.0,0.0,0.0
1776451806172844834,22218,0.0,0.7,0.076,0.8,0.1,-0.2,0.06,-3.44,4.06,0.02,0.01,-0.37,-0.06,-0.0,0.0,165.67,190.0,0.0,0.0,0.0,0.0
1776451806271118781,22318,0.0,0.6,0.0,1.6,0.02,-0.08,0.06,-3.44,4.06,0.01,0.01,-0.35,-0.19,-0.06,0.12,166.87,190.0,0.0,0.0,0.0,0.0
1776451806373583298,22419,0.092,0.2,0.0,1.3,0.1,-0.04,0.06,-3.44,4.06,0.04,0.02,-0.34,-0.06,-0.0,0.0,165.67,184.0,0.0,0.0,0.0,0.0
1776451806471866004,22518,0.0,1.3,0.068,0.1,0.12,-0.02,0.06,-3.44,4.06,0.01,0.04,-0.36,0.12,-0.0,0.06,165.84,194.0,0.0,0.0,0.0,0.0
1776451806574209035,22619,0.0,0.2,0.0,1.2,0.18,0.06,0.06,-3.44,4.06,0.01,0.01,-0.34,-0.19,0.19,0.06,165.84,194.0,0.0,0.0,0.0,0.0
1776451806672543373,22719,0.088,-0.1,0.0,0.2,0.08,-0.02,0.06,-3.44,4.06,0.03,0.02,-0.35,0.06,-0.0,0.12,165.67,198.0,0.0,0.0,0.0,0.0
1776451806770856803,22818,0.092,0.3,0.0,0.5,0.08,-0.18,0.06,-3.44,4.06,0.01,0.02,-0.36,0.12,0.12,-0.06,165.84,198.0,0.0,0.0,0.0,0.0
1776451806873265595,22918,0.0,0.3,0.0,1.3,0.02,-0.06,0.06,-3.44,4.06,0.03,0.02,-0.37,-0.06,-0.0,0.06,165.67,204.0,0.0,0.0,0.0,0.0
1776451806971563580,23018,0.0,0.5,0.0,1.3,0.1,0.08,0.06,-3.44,4.06,0.03,0.04,-0.35,-0.0,0.06,-0.12,165.67,211.0,0.0,0.0,0.0,0.0
1776451807069827202,23117,0.0,1.4,0.068,0.3,0.25,0.0,0.06,-3.44,4.06,0.03,-0.0,-0.34,0.06,-0.0,-0.12,165.67,211.0,0.0,0.0,0.0,0.0
1776451807172265712,23217,0.0,0.9,0.0,1.2,0.14,-0.12,0.06,-3.44,4.06,0.01,0.02,-0.34,-0.0,0.06,-0.06,165.67,193.0,0.0,0.0,0.0,0.0
1776451807270527272,23317,0.092,0.1,0.0,1.0,0.02,-0.14,0.06,-3.44,4.06,0.03,0.01,-0.35,-0.06,0.19,-0.06,165.84,191.0,0.0,0.0,0.0,0.0
1776451807372956726,23417,0.092,0.1,0.0,1.5,0.16,-0.06,0.06,-3.44,4.06,0.02,0.03,-0.33,-0.0,0.19,0.06,165.67,191.0,0.0,0.0,0.0,0.0
1776451807471209822,23517,0.0,1.4,0.064,0.2,0.02,-0.08,0.06,-3.44,4.06,0.02,0.03,-0.35,-0.12,-0.06,-0.06,165.67,200.0,0.0,0.0,0.0,0.0
1776451807573638313,23618,0.0,1.4,0.0,1.3,-0.1,-0.25,0.06,-3.44,4.06,0.02,0.03,-0.37,0.06,-0.0,0.06,165.67,207.0,0.0,0.0,0.0,0.0
1776451807671981635,23717,0.088,0.3,0.064,0.3,-0.08,-0.06,0.06,-3.44,4.06,0.02,0.02,-0.36,-0.06,-0.19,0.0,165.84,207.0,0.0,0.0,0.0,0.0
1776451807774378403,23817,0.0,0.7,0.0,1.5,0.04,-0.16,0.06,-3.44,4.06,0.01,-0.0,-0.35,-0.12,-0.12,0.12,165.84,188.0,0.0,0.0,0.0,0.0
1776451807872693316,23917,0.096,0.0,0.0,1.4,0.2,-0.06,0.06,-3.44,4.06,0.02,0.02,-0.35,-0.06,-0.12,0.06,165.84,188.0,0.0,0.0,0.0,0.0
1776451807970990544,24016,0.092,0.2,0.0,1.4,0.02,-0.02,0.06,-3.44,4.06,0.02,0.02,-0.36,0.06,0.12,-0.06,165.84,206.0,0.0,0.0,0.0,0.0
1776451808073375915,24117,0.096,0.2,0.0,0.5,-0.04,-0.04,0.06,-3.44,4.06,0.0,0.03,-0.35,0.06,-0.06,0.06,165.84,198.0,0.0,0.0,0.0,0.0
1776451808171697786,24217,0.0,1.1,0.064,0.3,0.04,0.06,0.06,-3.44,4.06,0.03,0.03,-0.35,0.12,-0.0,0.06,169.44,198.0,0.0,0.0,0.0,0.0
1776451808274092764,24317,0.0,1.3,0.0,1.2,0.18,-0.12,0.06,-3.44,4.06,0.03,0.01,-0.34,0.06,0.06,0.0,169.27,189.0,0.0,0.0,0.0,0.0
1776451808372383357,24417,0.0,0.3,0.0,1.4,0.18,-0.02,0.06,-3.44,4.06,0.02,0.03,-0.32,-0.06,0.06,0.06,169.44,194.0,0.0,0.0,0.0,0.0
1776451808474762372,24517,0.088,1.0,0.072,1.0,-0.04,-0.18,0.06,-3.44,4.06,0.01,0.03,-0.34,-0.0,0.12,0.12,169.44,194.0,0.0,0.0,0.0,0.0
1776451808573054724,24616,0.0,0.5,0.068,0.5,0.1,0.0,0.06,-3.44,4.06,0.03,-0.0,-0.34,-0.19,0.06,-0.12,169.44,209.0,0.0,0.0,0.0,0.0
1776451808675494537,24717,0.0,0.7,0.0,0.3,0.0,-0.04,0.06,-3.44,4.06,0.01,0.02,-0.34,0.06,-0.0,-0.12,169.44,200.0,0.0,0.0,0.0,0.0
1776451808773794667,24817,0.0,1.4,0.0,1.2,0.08,-0.04,0.06,-3.44,4.06,0.02,0.03,-0.35,0.06,0.06,0.06,165.15,200.0,0.0,0.0,0.0,0.0
1776451808872099260,24916,0.092,0.1,0.068,0.7,-0.04,-0.04,0.06,-3.44,4.06,0.02,0.01,-0.35,-0.06,-0.0,0.0,169.27,198.0,0.0,0.0,0.0,0.0
1776451808974488423,25016,0.092,0.1,0.0,1.6,0.06,-0.1,0.06,-3.44,4.06,0.02,0.04,-0.39,0.06,0.06,0.12,169.27,198.0,0.0,0.0,0.0,0.0
1776451809072808921,25116,0.088,0.0,0.0,0.2,-0.08,0.06,0.06,-3.44,4.06,0.04,0.04,-0.35,0.12,0.12,0.0,169.27,192.0,0.0,0.0,0.0,0.0
1776451809171056852,25216,0.0,1.0,0.0,1.2,-0.02,-0.02,0.06,-3.44,4.06,0.02,0.03,-0.35,0.06,-0.06,0.0,169.27,208.0,0.0,0.0,0.0,0.0
1776451809273501793,25316,0.0,0.9,0.0,1.6,0.2,-0.02,0.06,-3.44,4.06,0.03,0.02,-0.36,-0.06,-0.0,0.0,165.15,208.0,0.0,0.0,0.0,0.0
1776451809371777354,25416,0.1,0.3,0.0,1.4,-0.08,-0.08,0.06,-3.44,4.06,0.0,0.01,-0.37,0.06,-0.0,0.0,165.15,199.0,0.0,0.0,0.0,0.0
1776451809474212837,25516,0.0,0.0,0.0,1.0,0.0,-0.08,0.06,-3.44,4.06,0.02,0.03,-0.34,-0.0,-0.0,0.06,169.44,191.0,0.0,0.0,0.0,0.0
1776451809572462011,25616,0.088,0.1,0.0,0.1,0.08,-0.06,0.06,-3.44,4.06,0.02,0.03,-0.37,-0.06,-0.0,0.06,165.15,191.0,0.0,0.0,0.0,0.0
1776451809670747368,25716,0.0,0.7,0.0,1.5,0.04,-0.06,0.06,-3.44,4.06,0.01,0.03,-0.35,0.06,-0.12,0.0,165.33,201.0,0.0,0.0,0.0,0.0
1776451809773163033,25816,0.056,1.1,0.0,1.0,0.0,0.02,0.06,-3.44,4.06,0.02,0.02,-0.37,-0.19,-0.12,-0.06,169.44,193.0,0.0,0.0,0.0,0.0
1776451809871437077,25916,0.088,0.1,0.0,1.4,0.06,-0.16,0.06,-3.44,4.06,0.03,0.01,-0.36,-0.06,-0.12,0.0,169.27,193.0,0.0,0.0,0.0,0.0
1776451809973877129,26016,0.0,1.1,0.06,0.2,0.02,0.06,0.06,-3.44,4.06,0.04,0.02,-0.35,-0.0,0.19,-0.06,165.15,202.0,0.0,0.0,0.0,0.0
1776451810072086153,26116,0.0,0.6,0.0,1.6,0.1,-0.06,0.06,-3.44,4.06,0.01,0.02,-0.36,-0.06,-0.06,0.0,165.15,202.0,0.0,0.0,0.0,0.0
1776451810174430670,26217,0.0,1.3,0.0,1.4,0.23,-0.06,0.06,-3.44,4.06,0.02,0.02,-0.34,-0.06,0.12,0.0,165.15,197.0,0.0,0.0,0.0,0.0
1776451810272716021,26316,0.088,0.4,0.064,0.4,-0.08,-0.08,0.06,-3.44,4.06,0.01,0.01,-0.37,0.06,0.12,0.0,165.15,206.0,0.0,0.0,0.0,0.0
1776451810374991886,26417,0.0,0.8,0.068,0.5,0.02,0.08,0.06,-3.44,4.06,0.03,0.03,-0.35,0.12,0.12,0.0,165.15,206.0,0.0,0.0,0.0,0.0
1776451810473195410,26518,0.0,0.7,0.068,0.5,0.12,-0.04,0.06,-3.44,4.06,0.03,0.02,-0.34,-0.0,-0.12,-0.12,165.15,198.0,0.0,0.0,0.0,0.0
1776451810575490631,26617,0.0,0.1,0.08,0.4,0.06,-0.12,0.06,-3.44,4.06,0.02,0.03,-0.37,-0.06,-0.0,0.06,165.15,191.0,0.0,0.0,0.0,0.0
1776451810673746522,26717,0.0,0.3,0.064,0.3,-0.1,-0.08,0.06,-3.44,4.06,0.02,0.03,-0.36,-0.0,0.25,0.0,165.15,191.0,0.0,0.0,0.0,0.0
1776451810776055196,26818,0.0,0.7,0.064,0.2,-0.04,-0.12,0.06,-3.44,4.06,0.02,0.03,-0.37,0.06,-0.0,-0.12,165.15,217.0,0.0,0.0,0.0,0.0
1776451810874341916,26917,0.0,0.7,0.0,1.5,0.08,-0.04,0.06,-3.44,4.06,0.03,0.03,-0.37,0.06,0.12,-0.06,169.27,194.0,0.0,0.0,0.0,0.0
1776451810972501307,27017,0.0,1.1,0.068,0.1,0.06,-0.1,0.06,-3.44,4.06,0.03,0.01,-0.39,0.12,-0.0,0.06,165.15,194.0,0.0,0.0,0.0,0.0
1776451811074834113,27117,0.0,1.1,0.0,1.2,0.08,-0.02,0.06,-3.44,4.06,0.03,-0.0,-0.33,0.06,0.12,0.0,166.18,184.0,0.0,0.0,0.0,0.0
1776451811173060033,27217,0.0,0.2,0.0,1.6,-0.04,-0.04,0.06,-3.44,4.06,0.03,0.01,-0.37,0.06,-0.0,0.06,165.15,184.0,0.0,0.0,0.0,0.0
1776451811275382234,27318,0.0,1.2,0.056,0.2,-0.04,-0.08,0.06,-3.44,4.06,0.03,0.02,-0.34,0.12,-0.0,0.0,165.15,194.0,0.0,0.0,0.0,0.0
1776451811377736782,27419,0.0,1.2,0.0,1.1,0.1,0.02,0.06,-3.44,4.06,0.02,0.02,-0.38,-0.06,-0.0,0.0,165.15,194.0,0.0,0.0,0.0,0.0
1776451811475947991,27518,0.0,1.0,0.056,0.0,0.1,-0.04,0.06,-3.44,4.06,0.03,0.03,-0.39,0.06,-0.06,0.06,165.15,194.0,0.0,0.0,0.0,0.0
1776451811574147025,27618,0.0,0.7,0.06,0.4,0.12,-0.06,0.06,-3.44,4.06,0.03,0.03,-0.38,-0.0,-0.06,0.12,165.15,204.0,0.0,0.0,0.0,0.0
1776451811676491765,27718,0.096,0.4,0.0,1.1,0.08,-0.06,0.06,-3.44,4.06,0.02,0.01,-0.36,-0.0,-0.06,0.0,165.15,178.0,0.0,0.0,0.0,0.0
1776451811774712652,27817,0.0,1.4,0.0,0.8,-0.1,-0.08,0.06,-3.44,4.06,0.03,0.02,-0.38,0.06,0.06,0.0,165.84,178.0,0.0,0.0,0.0,0.0
1776451811872871104,27917,0.08,0.1,0.064,0.8,0.0,-0.1,0.06,-3.44,4.06,0.02,0.02,-0.39,0.12,-0.12,0.06,169.96,199.0,0.0,0.0,0.0,0.0
1776451811975258646,28018,0.096,0.3,0.0,1.3,0.06,0.06,0.06,-3.44,4.06,0.02,0.03,-0.37,-0.06,0.06,0.06,169.27,198.0,0.0,0.0,0.0,0.0
1776451812077627872,28119,0.088,0.3,0.068,0.5,0.08,-0.08,0.06,-3.44,4.06,0.0,0.02,-0.36,-0.0,-0.0,0.06,165.33,198.0,0.0,0.0,0.0,0.0
1776451812175823163,28220,0.0,1.0,0.0,1.4,0.23,0.08,0.06,-3.44,4.06,0.02,0.02,-0.36,-0.0,0.19,0.12,169.44,192.0,0.0,0.0,0.0,0.0
1776451812274025913,28319,0.088,0.2,0.0,1.5,0.0,-0.04,0.06,-3.44,4.06,0.02,0.02,-0.37,-0.0,-0.06,0.0,169.44,183.0,0.0,0.0,0.0,0.0
1776451812376360149,28419,0.088,0.0,0.0,1.5,0.1,-0.04,0.06,-3.44,4.06,0.02,0.05,-0.35,-0.0,0.06,0.06,165.15,183.0,0.0,0.0,0.0,0.0
1776451812474585549,28519,0.096,0.1,0.0,1.6,0.0,-0.02,0.06,-3.44,4.06,0.01,0.02,-0.37,0.06,-0.0,-0.06,165.15,206.0,0.0,0.0,0.0,0.0
1776451812576888807,28619,0.088,0.3,0.0,1.5,0.02,0.04,0.06,-3.44,4.06,0.02,0.03,-0.38,0.06,-0.06,0.0,165.15,206.0,0.0,0.0,0.0,0.0
1776451812675157916,28719,0.096,0.3,0.0,1.4,-0.12,0.0,0.06,-3.44,4.06,0.03,0.03,-0.36,0.06,-0.0,0.0,165.15,185.0,0.0,0.0,0.0,0.0
1776451812783411537,28819,0.088,-0.1,0.0,1.2,0.04,-0.16,0.06,-3.44,4.06,0.03,0.01,-0.35,-0.0,0.19,-0.12,165.15,211.0,0.0,0.0,0.0,0.0
1776451812875701027,28918,0.0,0.6,0.068,0.5,-0.02,-0.04,0.06,-3.44,4.06,0.02,0.02,-0.35,0.12,-0.0,-0.06,165.15,211.0,0.0,0.0,0.0,0.0
1776451812978011188,29019,0.0,0.9,0.072,0.3,0.12,-0.23,0.06,-3.44,4.06,0.03,0.01,-0.38,0.12,-0.06,0.19,165.15,200.0,0.0,0.0,0.0,0.0
1776451813076252841,29119,0.0,0.9,0.076,0.1,0.18,-0.04,0.06,-3.44,4.06,0.0,0.02,-0.38,-0.06,0.06,0.06,165.15,199.0,0.0,0.0,0.0,0.0
1776451813174503028,29219,0.0,0.7,0.06,0.5,0.2,0.02,0.06,-3.44,4.06,0.03,0.02,-0.36,0.06,-0.0,0.0,165.15,199.0,0.0,0.0,0.0,0.0
1776451813276815350,29319,0.0,1.0,0.0,1.6,0.1,0.06,0.06,-3.44,4.06,0.03,0.03,-0.39,0.06,-0.25,0.06,165.15,211.0,0.0,0.0,0.0,0.0
1776451813374973712,29420,0.092,0.1,0.0,1.5,0.08,0.02,0.06,-3.44,4.06,0.02,0.04,-0.36,0.06,-0.19,0.12,164.13,211.0,0.0,0.0,0.0,0.0
1776451813477314719,29519,0.096,0.4,0.0,1.5,0.08,-0.02,0.06,-3.44,4.06,0.02,0.01,-0.37,-0.0,0.06,0.0,165.15,211.0,0.0,0.0,0.0,0.0
1776451813575619885,29619,0.088,0.1,0.076,0.3,0.1,-0.14,0.06,-3.44,4.06,0.03,0.04,-0.38,0.06,0.06,0.0,165.33,190.0,0.0,0.0,0.0,0.0
1776451813677922659,29720,0.0,0.3,0.056,0.2,-0.04,-0.2,0.06,-3.44,4.06,0.02,0.02,-0.37,0.06,-0.19,0.0,165.15,190.0,0.0,0.0,0.0,0.0
1776451813776150954,29819,0.0,0.9,0.0,0.5,0.12,0.02,0.06,-3.44,4.06,0.02,-0.0,-0.38,-0.06,-0.0,-0.06,165.15,200.0,0.0,0.0,0.0,0.0
1776451813878503767,29920,0.0,1.1,0.068,0.2,0.14,0.0,0.06,-3.44,4.06,0.01,-0.0,-0.36,-0.0,-0.06,0.06,165.15,198.0,0.0,0.0,0.0,0.0
1776451813976709373,30020,0.0,1.4,0.056,0.2,0.14,0.02,0.06,-3.44,4.06,0.02,0.03,-0.37,0.12,-0.0,0.06,166.36,198.0,0.0,0.0,0.0,0.0
1776451814079050781,30120,0.088,0.1,0.0,1.4,0.1,0.06,0.06,-3.44,4.06,0.03,0.02,-0.36,0.06,0.06,0.0,165.15,177.0,0.0,0.0,0.0,0.0
1776451814177262127,30220,0.0,0.2,0.0,1.5,0.16,0.0,0.06,-3.44,4.06,0.03,0.03,-0.37,-0.06,-0.0,0.06,165.15,196.0,0.0,0.0,0.0,0.0
1776451814279629623,30321,0.0,1.2,0.068,0.2,0.0,-0.08,0.06,-3.44,4.06,0.01,0.02,-0.37,0.06,0.06,0.0,165.15,196.0,0.0,0.0,0.0,0.0
1776451814377845003,30420,0.088,0.2,0.06,0.3,0.14,-0.02,0.06,-3.44,4.06,0.02,0.02,-0.36,-0.06,0.12,0.12,169.27,200.0,0.0,0.0,0.0,0.0
1776451814480189126,30520,0.0,0.6,0.068,0.5,0.14,-0.14,0.06,-3.44,4.06,0.03,0.02,-0.36,0.06,-0.12,0.0,165.15,192.0,0.0,0.0,0.0,0.0
1776451814578362553,30621,0.0,0.0,0.0,0.3,0.04,0.0,0.06,-3.44,4.06,0.02,0.03,-0.35,-0.0,-0.06,0.06,165.15,192.0,0.0,0.0,0.0,0.0
1776451814686693394,30721,0.0,1.5,0.068,0.3,-0.02,-0.02,0.06,-3.44,4.06,0.03,0.02,-0.37,-0.0,-0.12,0.12,169.27,194.0,0.0,0.0,0.0,0.0
1776451814778948889,30822,0.0,1.2,0.0,1.1,0.1,0.04,0.06,-3.44,4.06,0.0,0.03,-0.37,-0.06,0.06,0.06,165.15,194.0,0.0,0.0,0.0,0.0
1776451814887245198,30922,0.088,0.3,0.068,0.3,0.21,-0.12,0.06,-3.44,4.06,0.0,0.02,-0.38,-0.0,-0.0,0.06,169.27,217.0,0.0,0.0,0.0,0.0
1776451814979518551,31022,0.0,0.2,0.0,1.6,0.04,-0.08,0.06,-3.44,4.06,0.01,0.02,-0.36,0.06,-0.06,0.0,165.15,194.0,0.0,0.0,0.0,0.0
1776451815077744461,31122,0.092,1.6,0.08,0.1,0.12,-0.04,0.06,-3.44,4.06,0.03,0.02,-0.36,-0.0,0.19,0.06,165.15,194.0,0.0,0.0,0.0,0.0
1776451815180067303,31222,0.0,1.1,0.06,0.5,0.2,-0.04,0.06,-3.44,4.06,0.01,0.02,-0.36,-0.0,-0.0,-0.12,166.18,206.0,0.0,0.0,0.0,0.0
1776451815282408078,31323,0.0,1.3,0.0,1.2,0.2,0.06,0.06,-3.44,4.06,0.02,0.03,-0.36,-0.06,-0.06,0.0,165.15,201.0,0.0,0.0,0.0,0.0
1776451815380645016,31424,0.092,0.2,0.068,0.4,0.06,-0.04,0.06,-3.44,4.06,0.03,0.03,-0.36,-0.12,0.06,0.12,169.27,201.0,0.0,0.0,0.0,0.0
1776451815482956163,31524,0.0,1.0,0.072,0.3,0.04,-0.02,0.06,-3.44,4.06,0.02,0.01,-0.36,0.06,-0.12,0.06,165.15,194.0,0.0,0.0,0.0,0.0
1776451815581182460,31624,0.0,1.0,0.068,0.1,0.1,-0.12,0.06,-3.44,4.06,0.0,0.03,-0.34,0.06,-0.0,-0.06,165.15,189.0,0.0,0.0,0.0,0.0
1776451815679431945,31724,0.088,0.0,0.0,1.6,0.02,-0.1,0.06,-3.44,4.06,0.02,0.02,-0.37,-0.0,0.06,0.06,165.15,189.0,0.0,0.0,0.0,0.0
1776451815781760487,31823,0.092,0.2,0.0,0.2,0.08,-0.06,0.06,-3.44,4.06,0.02,0.02,-0.35,-0.0,-0.0,0.0,169.79,206.0,0.0,0.0,0.0,0.0
1776451815879994650,31923,0.0,1.4,0.072,0.6,0.12,0.12,0.06,-3.44,4.06,0.02,0.02,-0.35,-0.0,0.06,0.06,165.15,206.0,0.0,0.0,0.0,0.0
1776451815978253573,32023,0.0,1.3,0.0,1.0,0.16,0.14,0.06,-3.44,4.06,0.01,0.01,-0.36,0.06,-0.06,0.0,169.27,191.0,0.0,0.0,0.0,0.0
1776451816080568587,32122,0.092,0.2,0.0,1.3,0.14,0.08,0.06,-3.44,4.06,0.01,0.02,-0.36,-0.0,0.06,0.06,169.27,198.0,0.0,0.0,0.0,0.0
1776451816178794585,32222,0.096,0.2,0.0,1.2,0.12,-0.12,0.06,-3.44,4.06,0.01,0.02,-0.32,-0.0,-0.06,0.0,169.27,198.0,0.0,0.0,0.0,0.0
1776451816277028375,32322,0.092,0.3,0.0,1.2,-0.1,-0.02,0.06,-3.44,4.06,0.03,0.04,-0.35,0.06,0.25,0.0,169.27,201.0,0.0,0.0,0.0,0.0
1776451816379404439,32421,0.092,0.4,0.0,0.9,0.02,-0.1,0.06,-3.44,4.06,0.03,0.01,-0.34,0.06,0.06,0.06,169.27,190.0,0.0,0.0,0.0,0.0
1776451816477633269,32522,0.088,0.2,0.0,1.0,-0.1,-0.1,0.06,-3.44,4.06,0.01,0.01,-0.34,-0.12,0.06,-0.06,169.44,190.0,0.0,0.0,0.0,0.0
1776451816579933400,32622,0.088,0.4,0.068,1.4,0.08,-0.14,0.06,-3.44,4.06,0.0,0.04,-0.35,0.06,-0.0,0.06,165.33,194.0,0.0,0.0,0.0,0.0
1776451816678175166,32721,0.092,-0.1,0.0,1.6,0.06,-0.04,0.06,-3.44,4.06,0.03,0.02,-0.34,0.12,0.06,-0.12,165.84,197.0,0.0,0.0,0.0,0.0
1776451816780511293,32821,0.0,1.2,0.076,0.4,0.12,-0.1,0.06,-3.44,4.06,0.01,0.01,-0.33,0.19,-0.12,-0.06,169.27,197.0,0.0,0.0,0.0,0.0
1776451818177636099,32921,0.0,1.6,0.068,0.3,0.2,-0.21,0.06,-3.44,4.06,0.02,0.01,-0.34,-0.0,0.06,-0.06,165.84,195.0,0.0,0.0,0.0,0.0
1776451818181791879,33020,0.0,1.3,0.072,0.5,0.1,-0.1,0.06,-3.44,4.06,0.02,0.03,-0.35,0.19,-0.06,0.0,165.84,195.0,0.0,0.0,0.0,0.0
1776451818185012766,33120,0.0,1.2,0.064,1.1,0.02,-0.12,0.06,-3.44,4.06,0.03,0.02,-0.35,0.06,0.06,0.06,165.84,175.0,0.0,0.0,0.0,0.0
1776451818196767282,33220,0.084,0.5,0.0,0.9,0.06,-0.1,0.06,-3.44,4.06,0.02,0.01,-0.35,-0.0,0.06,0.06,165.84,196.0,0.0,0.0,0.0,0.0
1776451818211475033,33320,0.0,1.1,0.0,1.3,0.0,-0.14,0.06,-3.44,4.06,0.02,0.02,-0.34,0.19,-0.06,0.06,165.84,196.0,0.0,0.0,0.0,0.0
1776451818274564162,33420,0.092,0.9,0.068,0.7,0.08,0.08,0.06,-3.44,4.06,0.03,0.03,-0.34,-0.06,-0.0,-0.06,165.84,193.0,0.0,0.0,0.0,0.0
1776451818286108917,33520,0.0,0.0,0.0,1.3,0.1,0.08,0.06,-3.44,4.06,0.02,0.01,-0.34,-0.06,-0.06,0.06,165.84,208.0,0.0,0.0,0.0,0.0
1776451818297910792,33619,0.0,0.3,0.0,1.4,0.06,-0.1,0.06,-3.44,4.06,0.02,0.02,-0.35,-0.06,-0.0,0.0,165.84,208.0,0.0,0.0,0.0,0.0
1776451818311359978,33719,0.1,0.2,0.0,1.1,-0.08,-0.08,0.06,-3.44,4.06,0.01,0.02,-0.36,-0.12,0.19,0.0,165.84,198.0,0.0,0.0,0.0,0.0
1776451818372831835,33819,0.092,0.2,0.068,0.2,0.16,-0.04,0.06,-3.44,4.06,0.02,0.03,-0.35,-0.06,-0.0,0.06,165.84,189.0,0.0,0.0,0.0,0.0
1776451818384811750,33918,0.0,0.8,0.056,0.2,-0.02,-0.14,0.06,-3.44,4.06,0.01,0.02,-0.36,-0.0,-0.0,-0.06,166.36,189.0,0.0,0.0,0.0,0.0
1776451818398047380,34019,0.0,0.2,0.072,0.2,0.08,0.04,0.06,-3.44,4.06,0.01,0.04,-0.36,-0.06,-0.0,-0.06,169.44,198.0,0.0,0.0,0.0,0.0
1776451818410138857,34118,0.0,1.4,0.064,0.5,0.02,0.0,0.06,-3.44,4.06,0.01,0.02,-0.35,0.06,0.12,0.0,165.84,198.0,0.0,0.0,0.0,0.0
1776451818475160807,34217,0.0,1.0,0.076,0.3,0.04,0.0,0.06,-3.44,4.06,0.0,0.02,-0.35,-0.0,0.12,0.0,165.84,200.0,0.0,0.0,0.0,0.0
1776451818479276482,34318,0.0,0.1,0.0,1.3,-0.02,-0.1,0.06,-3.44,4.06,0.03,0.02,-0.35,0.06,-0.06,-0.12,165.84,191.0,0.0,0.0,0.0,0.0
1776451818483424933,34417,0.088,0.0,0.0,1.2,0.04,-0.04,0.06,-3.44,4.06,0.03,0.02,-0.35,0.19,-0.0,-0.12,165.84,191.0,0.0,0.0,0.0,0.0
1776451818487654409,34516,0.092,0.3,0.064,0.4,0.02,-0.14,0.06,-3.44,4.06,0.03,0.03,-0.38,0.12,-0.06,0.0,165.84,197.0,0.0,0.0,0.0,0.0
1776451818573334167,34616,0.0,0.6,0.076,0.2,0.14,-0.21,0.06,-3.44,4.06,0.02,0.02,-0.35,-0.0,-0.12,-0.06,165.67,200.0,0.0,0.0,0.0,0.0
1776451818675704096,34717,0.0,0.4,0.0,1.6,0.02,-0.16,0.06,-3.44,4.06,0.02,0.02,-0.37,-0.12,0.06,-0.12,165.84,200.0,0.0,0.0,0.0,0.0
1776451818773952854,34817,0.096,0.2,0.0,1.6,0.0,-0.06,0.06,-3.44,4.06,0.02,0.03,-0.35,-0.0,0.06,0.0,165.84,195.0,0.0,0.0,0.0,0.0
1776451818872188416,34917,0.096,0.3,0.0,1.5,0.1,-0.04,0.06,-3.44,4.06,0.03,0.01,-0.34,0.06,-0.06,0.0,170.13,199.0,0.0,0.0,0.0,0.0
1776451818974547426,35016,0.0,1.3,0.076,0.2,0.06,-0.04,0.06,-3.44,4.06,0.03,0.03,-0.35,-0.0,0.12,0.06,165.84,199.0,0.0,0.0,0.0,0.0
1776451819381619696,35116,0.0,0.5,0.0,1.1,0.14,-0.1,0.06,-3.44,4.06,0.02,0.03,-0.34,0.12,-0.25,-0.06,165.84,192.0,0.0,0.0,0.0,0.0
1776451819385384610,35216,0.084,0.2,0.0,1.1,0.06,0.02,0.06,-3.44,4.06,0.02,0.03,-0.38,-0.0,-0.0,0.06,165.84,192.0,0.0,0.0,0.0,0.0
1776451819397375474,35316,0.092,-0.1,0.0,1.3,0.06,-0.08,0.06,-3.44,4.06,0.02,0.02,-0.34,0.12,-0.06,0.0,166.53,185.0,0.0,0.0,0.0,0.0
1776451819473935830,35417,0.092,0.1,0.0,1.5,0.16,0.04,0.06,-3.44,4.06,0.02,0.02,-0.36,-0.0,-0.06,0.0,165.84,205.0,0.0,0.0,0.0,0.0
1776451819482221726,35517,0.096,0.2,0.0,1.1,-0.02,-0.12,0.06,-3.44,4.06,0.03,0.02,-0.36,-0.0,-0.06,0.0,165.84,205.0,0.0,0.0,0.0,0.0
1776451819576257876,35617,0.0,0.7,0.0,1.4,0.08,-0.1,0.06,-3.44,4.06,0.02,0.01,-0.35,-0.06,0.06,0.0,165.84,203.0,0.0,0.0,0.0,0.0
1776451819674493385,35718,0.092,0.2,0.0,1.1,0.06,-0.06,0.06,-3.44,4.06,0.03,0.03,-0.36,-0.0,0.06,0.12,165.84,192.0,0.0,0.0,0.0,0.0
1776451819776843452,35818,0.0,0.2,0.0,1.5,0.1,-0.16,0.06,-3.44,4.06,0.02,0.02,-0.34,-0.0,-0.0,0.0,165.67,192.0,0.0,0.0,0.0,0.0
1776451819875087604,35918,0.092,0.2,0.0,1.4,0.04,-0.02,0.06,-3.44,4.06,0.04,0.02,-0.35,-0.06,0.19,0.19,165.84,192.0,0.0,0.0,0.0,0.0
1776451820209623043,36018,0.088,0.4,0.076,0.3,0.06,-0.08,0.06,-3.44,4.06,0.01,0.02,-0.36,-0.06,0.19,-0.06,165.84,192.0,0.0,0.0,0.0,0.0
1776451820276251095,36118,0.0,0.1,0.0,1.0,-0.06,-0.08,0.06,-3.44,4.06,0.02,0.02,-0.34,-0.12,0.12,0.06,165.84,192.0,0.0,0.0,0.0,0.0
1776451820288893811,36217,0.092,0.2,0.0,1.2,0.1,-0.04,0.06,-3.44,4.06,0.01,0.01,-0.37,0.12,-0.06,0.06,165.84,216.0,0.0,0.0,0.0,0.0
1776451820302625749,36317,0.088,0.1,0.068,0.3,0.0,-0.08,0.06,-3.44,4.06,0.01,0.02,-0.36,0.12,-0.06,0.06,165.84,216.0,0.0,0.0,0.0,0.0
1776451820374487888,36417,0.0,0.7,0.0,1.5,0.06,-0.08,0.06,-3.44,4.06,0.02,0.03,-0.37,-0.0,0.06,0.06,165.67,197.0,0.0,0.0,0.0,0.0
1776451820472686982,36517,0.084,0.2,0.0,1.0,0.06,-0.02,0.06,-3.44,4.06,0.01,0.01,-0.37,0.19,-0.06,0.06,166.36,216.0,0.0,0.0,0.0,0.0
1776451820575051539,36617,0.0,0.9,0.06,0.4,0.12,-0.18,0.06,-3.44,4.06,0.0,0.02,-0.36,0.12,0.06,-0.06,167.38,216.0,0.0,0.0,0.0,0.0
1776451820677412580,36718,0.0,0.9,0.0,1.5,0.1,-0.18,0.06,-3.44,4.06,0.03,-0.0,-0.34,-0.0,-0.0,0.06,166.36,194.0,0.0,0.0,0.0,0.0
1776451820775654630,36818,0.0,0.3,0.0,0.9,0.0,0.02,0.06,-3.44,4.06,0.03,0.02,-0.34,-0.06,0.06,0.0,169.96,189.0,0.0,0.0,0.0,0.0
1776451820877977471,36918,0.084,0.1,0.0,0.3,-0.04,-0.12,0.06,-3.44,4.06,0.01,0.01,-0.34,0.06,-0.0,-0.06,165.84,189.0,0.0,0.0,0.0,0.0
1776451820976242378,37019,0.0,1.0,0.0,1.5,0.06,-0.02,0.06,-3.44,4.06,0.03,0.03,-0.35,-0.06,-0.0,0.06,165.84,193.0,0.0,0.0,0.0,0.0
1776451821074488574,37118,0.092,0.2,0.0,1.4,0.16,0.0,0.06,-3.44,4.06,0.03,0.04,-0.36,0.06,-0.06,0.0,165.84,202.0,0.0,0.0,0.0,0.0
1776451821176823096,37218,0.088,0.3,0.0,1.6,0.04,0.0,0.06,-3.44,4.06,0.01,0.03,-0.35,-0.0,0.12,0.0,165.84,202.0,0.0,0.0,0.0,0.0
1776451821275066623,37318,0.096,0.3,0.0,1.5,0.04,-0.08,0.06,-3.44,4.06,0.01,0.02,-0.34,-0.0,-0.06,-0.06,166.87,201.0,0.0,0.0,0.0,0.0
1776451821377411084,37419,0.0,1.2,0.072,0.3,0.02,0.04,0.06,-3.44,4.06,0.03,0.03,-0.34,0.06,-0.12,0.0,165.84,180.0,0.0,0.0,0.0,0.0
1776451821475619815,37519,0.0,1.4,0.064,0.2,0.0,0.02,0.06,-3.44,4.06,0.0,0.03,-0.36,0.12,-0.0,-0.12,165.67,180.0,0.0,0.0,0.0,0.0
1776451821577938994,37619,0.0,1.2,0.076,0.2,0.08,-0.12,0.06,-3.44,4.06,0.01,0.03,-0.35,-0.06,-0.0,-0.06,165.84,196.0,0.0,0.0,0.0,0.0
1776451821676212282,37720,0.0,1.4,0.068,0.3,0.1,-0.1,0.06,-3.44,4.06,0.03,0.02,-0.35,-0.0,0.31,0.06,165.67,196.0,0.0,0.0,0.0,0.0
1776451821778572420,37820,0.0,1.4,0.056,0.5,0.21,-0.02,0.06,-3.44,4.06,0.03,0.03,-0.36,-0.0,0.06,0.0,165.67,210.0,0.0,0.0,0.0,0.0
1776451821876815761,37920,0.0,1.3,0.0,0.9,-0.06,-0.12,0.06,-3.44,4.06,0.02,0.01,-0.36,-0.19,0.12,0.0,165.84,197.0,0.0,0.0,0.0,0.0
1776451821979150025,38020,0.092,0.9,0.0,0.6,0.16,0.06,0.06,-3.44,4.06,0.02,0.03,-0.34,-0.0,-0.19,0.0,165.84,197.0,0.0,0.0,0.0,0.0
1776451822077398199,38120,0.0,0.0,0.0,1.2,0.04,0.08,0.06,-3.44,4.06,0.03,0.03,-0.35,-0.0,0.06,0.0,165.84,176.0,0.0,0.0,0.0,0.0
1776451822175666901,38220,0.0,0.2,0.0,1.7,0.1,-0.18,0.06,-3.44,4.06,0.01,0.02,-0.35,-0.06,-0.06,0.06,165.84,201.0,0.0,0.0,0.0,0.0
1776451822277989902,38320,0.092,0.0,0.0,-0.1,-0.06,-0.08,0.06,-3.44,4.06,0.01,0.02,-0.31,-0.12,-0.12,0.12,165.67,201.0,0.0,0.0,0.0,0.0
1776451822376236635,38420,0.0,0.1,0.072,0.2,0.14,-0.06,0.06,-3.44,4.06,0.01,0.01,-0.34,0.06,-0.0,0.0,165.84,190.0,0.0,0.0,0.0,0.0
1776451822478530856,38519,0.0,0.8,0.052,0.5,0.06,0.02,0.06,-3.44,4.06,0.02,0.01,-0.36,-0.0,-0.0,0.0,170.47,190.0,0.0,0.0,0.0,0.0
1776451822576784362,38619,0.088,0.0,0.072,0.3,0.04,-0.02,0.06,-3.44,4.06,0.02,-0.01,-0.34,-0.06,0.06,0.0,165.84,189.0,0.0,0.0,0.0,0.0
1776451822679160686,38720,0.0,1.5,0.064,0.2,0.12,-0.1,0.06,-3.44,4.06,0.01,0.02,-0.37,0.06,-0.06,0.06,165.84,203.0,0.0,0.0,0.0,0.0
1776451822777431257,38820,0.0,1.3,0.068,0.3,0.2,-0.18,0.06,-3.44,4.06,0.03,0.02,-0.35,0.06,-0.0,0.0,169.96,203.0,0.0,0.0,0.0,0.0
1776451822879751964,38920,0.0,0.2,0.0,1.2,0.18,-0.1,0.06,-3.44,4.06,0.02,0.03,-0.38,0.06,-0.0,-0.06,165.84,201.0,0.0,0.0,0.0,0.0
1776451822977984426,39021,0.0,0.7,0.0,0.6,-0.06,-0.08,0.06,-3.44,4.06,0.01,0.01,-0.35,0.12,-0.06,0.12,165.67,193.0,0.0,0.0,0.0,0.0
1776451823409632698,39120,0.0,1.4,0.076,0.6,0.14,0.04,0.06,-3.44,4.06,0.03,0.02,-0.37,0.06,-0.06,0.06,165.84,193.0,0.0,0.0,0.0,0.0
1776451823477361815,39221,0.0,0.3,0.0,1.0,0.14,0.06,0.06,-3.44,4.06,0.0,0.02,-0.36,0.12,-0.0,-0.06,165.67,185.0,0.0,0.0,0.0,0.0
1776451823481497075,39321,0.092,0.3,0.0,1.1,0.04,-0.16,0.06,-3.44,4.06,0.03,0.04,-0.33,-0.0,0.12,0.0,165.67,208.0,0.0,0.0,0.0,0.0
1776451823493390941,39421,0.096,0.4,0.068,0.1,0.04,-0.04,0.06,-3.44,4.06,0.03,0.01,-0.34,-0.0,-0.06,0.06,165.84,208.0,0.0,0.0,0.0,0.0
1776451823505722482,39521,0.0,0.5,0.076,0.1,-0.08,-0.06,0.06,-3.44,4.06,0.04,0.03,-0.37,0.06,-0.19,0.0,165.84,191.0,0.0,0.0,0.0,0.0
1776451823579761163,39621,0.0,0.7,0.064,0.3,0.06,0.0,0.06,-3.44,4.06,0.02,0.03,-0.36,0.12,-0.06,-0.06,165.84,183.0,0.0,0.0,0.0,0.0
1776451823678087256,39720,0.0,0.5,0.068,0.4,0.0,-0.06,0.06,-3.44,4.06,0.01,0.02,-0.36,0.06,0.06,0.0,165.84,183.0,0.0,0.0,0.0,0.0
1776451823786326289,39820,0.0,0.9,0.072,0.1,0.06,-0.12,0.06,-3.44,4.06,0.02,0.04,-0.35,-0.06,-0.0,0.0,165.84,199.0,0.0,0.0,0.0,0.0
1776451823878600513,39920,0.0,1.0,0.06,0.5,0.06,0.08,0.06,-3.44,4.06,0.02,0.03,-0.34,0.06,-0.0,0.06,165.67,199.0,0.0,0.0,0.0,0.0
1776451823976839782,40019,0.0,0.7,0.052,0.1,-0.04,-0.04,0.06,-3.44,4.06,0.01,0.01,-0.35,0.12,-0.0,0.0,165.84,191.0,0.0,0.0,0.0,0.0
1776451824079199499,40120,0.0,0.4,0.0,1.5,0.08,-0.02,0.06,-3.44,4.06,0.02,0.02,-0.37,-0.0,0.06,0.06,165.84,197.0,0.0,0.0,0.0,0.0
1776451824177457690,40219,0.088,0.3,0.064,0.3,0.04,-0.1,0.06,-3.44,4.06,0.01,0.03,-0.35,0.12,0.06,0.06,165.84,197.0,0.0,0.0,0.0,0.0
1776451824275699241,40318,0.0,1.4,0.0,1.2,0.08,-0.04,0.06,-3.44,4.06,0.02,0.02,-0.35,0.12,-0.0,0.0,165.84,212.0,0.0,0.0,0.0,0.0
1776451824378062062,40419,0.092,0.2,0.0,1.1,-0.02,-0.04,0.06,-3.44,4.06,0.01,0.03,-0.34,0.06,-0.06,-0.06,165.67,207.0,0.0,0.0,0.0,0.0
1776451824476276775,40519,0.092,0.2,0.0,1.2,-0.06,-0.04,0.06,-3.44,4.06,0.03,-0.0,-0.34,-0.0,-0.0,0.0,170.64,207.0,0.0,0.0,0.0,0.0
1776451824578607909,40620,0.088,0.1,0.0,1.0,0.18,0.02,0.06,-3.44,4.06,0.01,0.03,-0.37,-0.12,-0.06,0.06,165.84,188.0,0.0,0.0,0.0,0.0
1776451824686928176,40721,0.0,1.0,0.0,1.5,0.06,-0.08,0.06,-3.44,4.06,0.02,0.03,-0.36,0.06,-0.06,-0.06,169.44,198.0,0.0,0.0,0.0,0.0
1776451824779227735,40820,0.0,0.2,0.0,0.5,-0.06,-0.08,0.06,-3.44,4.06,0.02,0.03,-0.35,-0.0,-0.0,0.0,165.84,198.0,0.0,0.0,0.0,0.0
1776451825013619254,40920,0.0,1.3,0.072,0.5,-0.06,-0.16,0.06,-3.44,4.06,0.01,0.02,-0.36,0.06,-0.12,0.06,166.87,198.0,0.0,0.0,0.0,0.0
1776451825078071118,41021,0.0,0.2,0.0,0.3,0.1,0.0,0.06,-3.44,4.06,0.0,0.03,-0.35,-0.06,-0.12,-0.06,165.84,198.0,0.0,0.0,0.0,0.0
1776451825090334052,41121,0.0,0.2,0.0,1.6,0.04,-0.14,0.06,-3.44,4.06,0.04,0.01,-0.38,-0.0,-0.06,0.06,169.44,198.0,0.0,0.0,0.0,0.0
1776451825180408692,41221,0.088,0.5,0.0,1.7,-0.04,-0.16,0.06,-3.44,4.06,0.01,0.01,-0.36,-0.0,0.12,0.0,165.84,204.0,0.0,0.0,0.0,0.0
1776451825283254029,41322,0.092,0.0,0.0,1.0,0.02,0.0,0.06,-3.44,4.06,0.01,0.03,-0.37,-0.0,-0.12,-0.12,165.67,204.0,0.0,0.0,0.0,0.0
1776451825381014009,41422,0.088,0.1,0.068,0.5,0.14,0.02,0.06,-3.44,4.06,0.03,0.01,-0.37,-0.06,-0.06,0.0,165.67,202.0,0.0,0.0,0.0,0.0
1776451825479171732,41522,0.0,0.9,0.072,0.6,0.06,-0.02,0.06,-3.44,4.06,0.0,0.03,-0.36,0.06,-0.06,0.0,165.84,201.0,0.0,0.0,0.0,0.0
1776451825581661101,41623,0.0,1.3,0.072,0.4,0.14,-0.08,0.06,-3.44,4.06,0.01,0.02,-0.34,-0.0,0.12,0.12,165.67,201.0,0.0,0.0,0.0,0.0
1776451825679864135,41722,0.0,0.3,0.0,1.1,0.1,-0.18,0.06,-3.44,4.06,0.01,0.01,-0.38,-0.0,0.06,0.0,165.84,193.0,0.0,0.0,0.0,0.0
1776451825801626562,41823,0.096,0.1,0.0,0.1,-0.02,0.06,0.06,-3.44,4.06,0.04,0.03,-0.38,0.12,0.12,-0.06,165.67,192.0,0.0,0.0,0.0,0.0
1776451825880452201,41923,0.0,1.5,0.068,0.1,0.1,-0.08,0.06,-3.44,4.06,0.0,-0.0,-0.34,0.06,-0.0,0.06,165.84,192.0,0.0,0.0,0.0,0.0
1776451825978696602,42022,0.0,0.0,0.0,1.1,0.08,0.02,0.06,-3.44,4.06,0.02,0.03,-0.33,-0.0,0.12,-0.12,165.84,209.0,0.0,0.0,0.0,0.0
1776451826081048786,42122,0.088,0.3,0.0,1.3,0.12,0.08,0.06,-3.44,4.06,0.03,0.08,-0.37,-0.06,-0.0,0.0,165.84,209.0,0.0,0.0,0.0,0.0
1776451826179294997,42222,0.092,0.3,0.0,1.3,0.02,0.02,0.06,-3.44,4.06,0.02,0.05,-0.37,-0.0,0.19,-0.06,161.55,188.0,0.0,0.0,0.0,0.0
1776451826277526642,42321,0.092,0.1,0.0,1.1,0.02,-0.08,0.06,-3.44,4.06,0.02,0.04,-0.37,-0.12,-0.06,0.12,165.84,204.0,0.0,0.0,0.0,0.0
1776451826379889013,42421,0.092,0.2,0.06,0.1,0.14,0.0,0.06,-3.44,4.06,0.0,0.02,-0.38,-0.06,-0.06,0.06,161.55,204.0,0.0,0.0,0.0,0.0
1776451826478156584,42521,0.088,0.1,0.0,1.5,0.0,-0.1,0.06,-3.44,4.06,0.01,0.04,-0.34,0.25,0.06,0.0,165.84,193.0,0.0,0.0,0.0,0.0
1776451826576313969,42620,0.088,0.1,0.0,1.3,0.02,-0.06,0.06,-3.44,4.06,0.03,0.01,-0.39,-0.0,-0.12,0.0,161.72,210.0,0.0,0.0,0.0,0.0
1776451826678735348,42720,0.092,0.6,0.0,0.3,0.02,-0.14,0.06,-3.44,4.06,0.02,0.01,-0.37,0.06,0.06,-0.06,165.84,210.0,0.0,0.0,0.0,0.0
1776451826776963383,42820,0.0,1.4,0.068,0.2,0.12,0.04,0.06,-3.44,4.06,0.0,0.01,-0.3,-0.12,0.06,0.12,165.67,198.0,0.0,0.0,0.0,0.0
1776451826879342283,42920,0.0,0.3,0.0,1.3,-0.04,-0.1,0.06,-3.44,4.06,0.0,0.04,-0.34,-0.0,-0.12,0.0,169.44,188.0,0.0,0.0,0.0,0.0
1776451826977593955,43020,0.088,0.3,0.0,1.1,0.06,-0.06,0.06,-3.44,4.06,-0.01,0.03,-0.32,0.12,-0.12,0.06,170.47,188.0,0.0,0.0,0.0,0.0
1776451827079949108,43121,0.092,0.1,0.0,1.3,0.1,-0.06,0.06,-3.44,4.06,0.07,0.03,-0.36,-0.0,-0.19,0.06,169.44,191.0,0.0,0.0,0.0,0.0
1776451827178199402,43220,0.0,0.9,0.064,0.0,-0.04,0.0,0.06,-3.44,4.06,0.04,-0.0,-0.41,-0.0,-0.12,-0.19,166.36,191.0,0.0,0.0,0.0,0.0
1776451827280546843,43321,0.0,0.6,0.068,0.3,0.12,-0.16,0.06,-3.44,4.06,0.21,0.05,-0.25,-0.63,-0.31,0.12,165.33,195.0,0.0,0.0,0.0,0.0
1776451827378728670,43422,0.0,0.4,0.0,1.3,0.02,0.02,-0.0,-3.44,3.94,0.21,0.03,-0.32,-0.5,-0.31,-0.19,165.15,182.0,0.0,0.0,0.0,0.0
1776451827481136065,43522,0.088,0.9,0.064,0.2,0.06,0.04,-0.0,-3.44,3.88,0.09,0.09,-0.4,-0.12,-0.06,-0.56,165.33,182.0,0.0,0.0,0.0,0.0
1776451827579414938,43622,0.0,1.3,0.06,0.2,0.04,-0.02,-0.0,-3.44,3.88,-0.03,0.01,-0.37,-0.31,-0.0,-0.25,165.33,201.0,0.0,0.0,0.0,0.0
1776451827681751995,43722,0.0,1.2,0.0,1.1,0.04,0.04,0.06,-3.44,3.94,-0.02,-0.02,-0.37,-0.5,-0.06,-0.31,165.33,186.0,0.0,0.0,0.0,0.0
1776451827779998847,43822,0.092,0.2,0.0,0.8,0.12,-0.02,-0.0,-3.44,3.75,0.61,0.06,-0.36,-1.31,-0.56,-1.06,165.15,186.0,0.0,0.0,0.0,0.0
1776451827882349490,43923,0.0,1.0,0.06,0.3,-0.02,-0.04,-0.12,-3.44,3.69,0.09,0.03,-0.37,-0.56,-0.06,-1.19,164.64,201.0,0.0,0.0,0.0,0.0
1776451827980606337,44023,0.0,0.7,0.064,0.3,0.08,0.1,-0.25,-3.38,3.63,0.23,0.05,-0.38,-0.81,-0.69,-2.06,169.44,202.0,0.0,0.0,0.0,0.0
1776451828082950267,44123,0.0,0.9,0.068,0.4,0.0,-0.04,-0.5,-3.38,3.5,0.1,0.08,-0.35,-0.37,-0.44,-2.81,165.33,202.0,0.0,0.0,0.0,0.0
1776451828181215452,44223,0.0,0.4,0.0,1.4,0.1,0.0,-0.75,-3.38,3.44,0.06,0.09,-0.35,-0.19,-0.31,-2.25,165.33,192.0,0.0,0.0,0.0,0.0
1776451828279434899,44322,0.084,0.1,0.0,1.4,0.16,-0.1,-0.94,-3.38,3.44,-0.07,0.03,-0.37,-0.69,-0.25,-1.25,165.33,191.0,0.0,0.0,0.0,0.0
1776451828381764334,44423,0.096,0.3,0.0,1.4,-0.04,-0.1,-1.0,-3.38,3.38,-0.13,0.1,-0.37,0.37,0.06,-0.94,165.33,191.0,0.0,0.0,0.0,0.0
1776451828480017265,44523,0.084,0.3,0.0,1.5,0.1,-0.18,-1.06,-3.38,3.56,-0.27,0.01,-0.35,-0.37,0.19,-0.5,165.84,191.0,0.0,0.0,0.0,0.0
1776451828582414854,44623,0.096,0.3,0.0,1.6,0.14,-0.08,-1.06,-3.38,3.63,-0.02,0.05,-0.4,-0.5,0.12,-0.06,165.84,191.0,0.0,0.0,0.0,0.0
1776451828684767223,44723,0.092,0.3,0.0,1.6,-0.02,-0.04,-1.06,-3.38,3.75,-0.22,0.01,-0.4,-0.06,0.25,-0.06,165.84,192.0,0.0,0.0,0.0,0.0
1776451828783028965,44824,0.0,1.3,0.064,0.2,-0.02,0.02,-1.06,-3.38,3.81,0.19,0.01,-0.36,-1.0,-0.31,0.0,161.72,199.0,0.0,0.0,0.0,0.0
1776451828881273011,44923,0.0,1.5,0.06,0.1,-0.06,-0.12,-1.06,-3.31,3.81,0.05,0.07,-0.38,0.37,0.5,0.06,165.84,199.0,0.0,0.0,0.0,0.0
1776451828983625232,45023,0.0,0.3,0.0,1.1,0.21,-0.12,-1.06,-3.31,3.81,0.21,0.1,-0.35,0.19,-0.25,0.0,165.15,197.0,0.0,0.0,0.0,0.0
1776451829081875678,45123,0.0,1.1,0.0,1.2,0.0,-0.04,-1.12,-3.31,3.69,0.56,0.13,-0.39,0.44,-0.06,-1.19,165.15,198.0,0.0,0.0,0.0,0.0
1776451829180163453,45222,0.092,0.3,0.0,1.2,0.08,-0.06,-1.25,-3.31,3.63,0.28,0.04,-0.31,-1.06,-0.06,-1.19,165.15,198.0,0.0,0.0,0.0,0.0
1776451829282492074,45322,0.088,0.7,0.06,0.4,-0.14,-0.08,-1.37,-3.31,3.5,0.2,0.11,-0.32,-0.25,0.25,-1.0,165.15,193.0,0.0,0.0,0.0,0.0
1776451829380699349,45422,0.0,1.1,0.072,0.2,-0.02,-0.02,-1.44,-3.31,3.44,0.01,0.03,-0.38,-0.19,-0.0,-0.44,165.33,193.0,0.0,0.0,0.0,0.0
1776451829478965005,45521,0.0,0.2,0.0,1.3,-0.02,0.04,-1.44,-3.25,3.44,-0.03,0.04,-0.34,-0.31,0.12,-0.75,165.33,197.0,0.0,0.0,0.0,0.0
1776451829581362688,45621,0.0,0.3,0.0,1.2,-0.02,-0.14,-1.44,-3.25,3.38,0.25,0.08,-0.33,-0.19,0.06,-0.31,165.33,205.0,0.0,0.0,0.0,0.0
1776451829679594544,45721,0.0,0.9,0.064,1.4,0.02,-0.02,-1.44,-3.25,3.25,0.22,0.06,-0.37,-0.0,0.12,-0.69,165.33,205.0,0.0,0.0,0.0,0.0
1776451829777850334,45820,0.104,0.4,0.0,1.4,0.1,-0.06,-1.5,-3.25,3.13,0.17,0.07,-0.33,-0.25,0.12,-0.25,165.84,186.0,0.0,0.0,0.0,0.0
1776451829880217253,45920,0.092,0.2,0.0,1.5,0.21,-0.1,-1.5,-3.19,3.0,0.4,0.07,-0.33,-1.31,-0.37,-0.06,166.01,191.0,0.0,0.0,0.0,0.0
1776451829988529392,46021,0.092,0.1,0.0,1.2,-0.04,-0.04,-1.5,-3.25,3.06,-0.33,0.05,-0.33,1.44,0.88,0.25,165.67,191.0,0.0,0.0,0.0,0.0
1776451830080787956,46121,0.0,0.9,0.0,1.3,0.08,-0.12,-1.44,-3.25,3.06,0.0,-0.0,-0.36,-0.94,-0.37,1.25,165.67,212.0,0.0,0.0,0.0,0.0
1776451830179067465,46221,0.088,0.3,0.0,1.4,0.12,0.0,-1.31,-3.25,3.0,0.07,0.1,-0.35,-0.12,-0.12,1.31,165.84,208.0,0.0,0.0,0.0,0.0
1776451830281385388,46321,0.0,0.1,0.0,1.0,0.0,-0.04,-1.19,-3.25,3.06,0.04,0.06,-0.33,-0.37,-0.12,1.37,165.84,208.0,0.0,0.0,0.0,0.0
1776451830379631820,46420,0.096,0.1,0.0,1.2,0.1,-0.08,-1.06,-3.19,2.94,0.2,0.09,-0.33,0.12,-0.0,1.5,165.67,195.0,0.0,0.0,0.0,0.0
1776451830481987947,46521,0.092,0.3,0.0,1.4,0.06,-0.08,-0.94,-3.19,2.94,0.05,0.05,-0.32,0.12,-0.0,1.12,161.55,183.0,0.0,0.0,0.0,0.0
1776451830580289040,46621,0.0,0.8,0.068,0.4,0.0,-0.08,-0.81,-3.19,2.94,0.0,0.07,-0.37,0.37,0.19,0.88,161.72,183.0,0.0,0.0,0.0,0.0
1776451830682725669,46721,0.0,0.0,0.0,1.5,0.06,-0.16,-0.75,-3.19,2.94,0.05,0.05,-0.33,-0.06,0.06,0.63,161.55,204.0,0.0,0.0,0.0,0.0
1776451830780907389,46822,0.096,0.4,0.0,1.5,0.06,-0.12,-0.69,-3.19,2.94,0.14,0.06,-0.33,0.12,0.06,0.63,161.72,204.0,0.0,0.0,0.0,0.0
1776451830883252281,46922,0.0,0.3,0.068,0.5,-0.02,-0.08,-0.63,-3.13,2.88,0.24,0.08,-0.35,0.19,0.19,1.06,165.84,207.0,0.0,0.0,0.0,0.0
1776451830981507653,47023,0.096,0.3,0.0,1.5,-0.04,-0.02,-0.56,-3.13,2.88,0.05,0.04,-0.32,0.25,0.44,1.19,165.84,204.0,0.0,0.0,0.0,0.0
1776451831083841714,47123,0.1,0.1,0.0,1.5,-0.04,-0.06,-0.44,-3.13,2.88,0.11,0.08,-0.33,0.19,0.19,1.44,165.84,204.0,0.0,0.0,0.0,0.0
1776451831182119104,47224,0.0,1.4,0.068,0.5,-0.04,-0.02,-0.31,-3.13,2.88,0.05,0.05,-0.34,0.5,0.25,1.31,165.84,194.0,0.0,0.0,0.0,0.0
1776451831284539871,47324,0.0,0.0,0.0,1.2,0.08,-0.1,-0.12,-3.06,2.88,0.14,0.03,-0.35,0.31,0.12,1.25,165.84,219.0,0.0,0.0,0.0,0.0
1776451831382689114,47424,0.096,0.8,0.0,1.5,0.0,0.08,-0.06,-3.06,2.88,0.07,0.04,-0.36,0.44,0.12,0.88,165.84,219.0,0.0,0.0,0.0,0.0
1776451831491006887,47523,0.096,0.3,0.0,0.2,-0.08,-0.04,-0.06,-3.06,2.94,0.11,0.01,-0.31,-0.31,-0.12,-0.06,165.67,219.0,0.0,0.0,0.0,0.0
1776451831583374795,47624,0.0,1.3,0.0,0.1,0.06,-0.1,-0.06,-3.06,2.81,0.21,0.07,-0.31,0.44,-0.12,-0.37,164.64,199.0,0.0,0.0,0.0,0.0
1776451831681572313,47724,0.0,0.4,0.0,1.6,0.06,0.02,-0.06,-3.06,2.69,0.21,0.06,-0.36,1.94,-0.19,-0.44,165.84,199.0,0.0,0.0,0.0,0.0
1776451831783939899,47823,0.08,0.3,0.0,0.0,0.08,0.0,-0.06,-3.0,2.75,0.09,0.05,-0.32,0.81,-0.12,-0.06,165.84,192.0,0.0,0.0,0.0,0.0
1776451831882216975,47923,0.0,1.2,0.0,1.3,0.18,-0.08,-0.06,-3.0,2.75,0.13,0.05,-0.36,0.75,-0.19,-0.19,165.67,192.0,0.0,0.0,0.0,0.0
1776451831984558609,48024,0.092,0.3,0.0,1.3,-0.06,-0.16,-0.12,-3.0,2.81,0.11,0.04,-0.33,0.94,-0.31,-1.31,165.84,200.0,0.0,0.0,0.0,0.0
1776451832082810160,48123,0.088,0.3,0.0,0.5,0.04,0.08,-0.25,-3.0,2.81,0.07,0.1,-0.39,2.19,-0.0,-1.63,166.87,191.0,0.0,0.0,0.0,0.0
1776451832185167530,48224,0.0,0.7,0.0,0.9,0.02,-0.04,-0.44,-3.0,2.94,-0.01,0.06,-0.32,0.19,-0.25,-1.37,165.67,191.0,0.0,0.0,0.0,0.0
1776451832283425423,48324,0.0,1.5,0.0,1.3,-0.02,-0.06,-0.5,-3.0,3.0,-0.01,0.06,-0.35,0.81,-0.12,-1.12,165.84,207.0,0.0,0.0,0.0,0.0
1776451832381660362,48423,0.0,1.0,0.076,0.5,0.1,-0.1,-0.63,-3.0,3.06,0.07,0.1,-0.36,1.25,-0.19,-1.06,165.15,183.0,0.0,0.0,0.0,0.0
1776451832484036816,48523,0.0,0.9,0.076,0.4,0.04,-0.1,-0.75,-3.0,3.06,0.13,0.09,-0.36,0.69,-0.19,-1.12,165.67,183.0,0.0,0.0,0.0,0.0
1776451832582293728,48623,0.0,0.2,0.0,1.5,0.1,-0.06,-0.88,-3.0,3.13,0.08,0.08,-0.29,0.25,-0.37,-1.37,165.67,182.0,0.0,0.0,0.0,0.0
1776451832680476430,48722,0.0,1.4,0.088,0.2,0.14,0.08,-1.0,-2.94,3.13,0.13,0.09,-0.33,0.25,-0.12,-0.69,165.84,192.0,0.0,0.0,0.0,0.0
1776451832782909212,48822,0.0,1.4,0.096,0.2,-0.18,-0.16,-1.0,-2.94,3.13,0.25,0.13,-0.3,0.25,-0.06,-0.31,165.67,192.0,0.0,0.0,0.0,0.0
1776451832881140746,48923,0.0,1.2,0.088,0.3,0.1,-0.18,-1.0,-2.88,3.13,0.06,0.11,-0.32,2.5,0.31,-0.25,165.15,207.0,0.0,0.0,0.0,0.0
1776451832983532564,49022,0.0,1.4,0.076,0.3,0.04,0.0,-1.06,-2.88,3.19,-0.01,0.09,-0.37,2.06,0.12,-1.06,165.15,207.0,0.0,0.0,0.0,0.0
1776451833091835513,49123,0.0,1.3,0.084,0.3,0.12,-0.08,-1.19,-2.88,3.31,0.08,0.07,-0.34,0.25,-0.37,-0.75,165.15,196.0,0.0,0.0,0.0,0.0
1776451833184141534,49223,0.0,1.1,0.088,0.2,0.12,-0.06,-1.25,-2.88,3.38,0.1,0.09,-0.34,0.56,-0.19,-0.5,165.15,197.0,0.0,0.0,0.0,0.0
1776451833282388522,49323,0.084,0.1,0.0,1.2,0.06,-0.08,-1.25,-2.88,3.44,0.0,0.09,-0.33,1.94,0.19,-0.31,165.15,197.0,0.0,0.0,0.0,0.0
1776451833384740674,49423,0.0,1.0,0.088,0.3,-0.04,0.02,-1.25,-2.88,3.56,0.06,0.09,-0.31,0.56,-0.12,-0.31,165.15,175.0,0.0,0.0,0.0,0.0
1776451833482965504,49523,0.0,0.9,0.0,1.5,0.18,0.0,-1.25,-2.81,3.56,0.08,0.12,-0.31,1.25,0.06,0.25,165.15,200.0,0.0,0.0,0.0,0.0
1776451833585374208,49624,0.092,0.3,0.0,1.5,0.1,0.04,-1.25,-2.81,3.63,0.06,0.13,-0.38,2.13,0.31,0.69,165.15,200.0,0.0,0.0,0.0,0.0
1776451833683621806,49724,0.096,1.3,0.096,0.4,-0.02,-0.14,-1.25,-2.75,3.75,0.21,0.08,-0.33,-0.56,-0.06,0.44,165.15,184.0,0.0,0.0,0.0,0.0
1776451833781849579,49823,0.0,1.3,0.0,1.1,0.0,-0.08,-1.25,-2.75,3.69,0.16,0.08,-0.33,1.25,0.19,-0.44,166.36,194.0,0.0,0.0,0.0,0.0
1776451833884236199,49924,0.0,0.7,0.0,1.5,0.1,-0.18,-1.25,-2.75,3.75,0.16,0.09,-0.31,0.75,-0.19,-0.06,165.33,194.0,0.0,0.0,0.0,0.0
1776451833982468507,50024,0.0,1.6,0.0,0.9,0.14,-0.18,-1.25,-2.69,3.88,-0.05,0.08,-0.35,2.81,-0.06,0.81,169.44,203.0,0.0,0.0,0.0,0.0
1776451834084855294,50124,0.0,0.6,0.084,0.6,-0.06,-0.04,-1.19,-2.69,4.0,0.01,0.11,-0.31,0.5,-0.37,0.69,165.15,203.0,0.0,0.0,0.0,0.0
1776451834183037883,50224,0.096,0.1,0.0,1.7,0.08,-0.04,-1.06,-2.69,4.13,-0.1,0.08,-0.37,1.69,0.12,1.12,165.33,212.0,0.0,0.0,0.0,0.0
1776451834285512031,50324,0.0,0.0,0.092,0.2,0.18,-0.12,-1.0,-2.63,4.44,-0.26,0.05,-0.3,0.25,0.19,0.81,168.76,187.0,0.0,0.0,0.0,0.0
1776451834383711836,50423,0.0,0.6,0.068,0.6,0.02,0.02,-0.88,-2.63,4.38,0.13,0.14,-0.34,1.06,-0.0,1.31,168.76,187.0,0.0,0.0,0.0,0.0
1776451834486062496,50524,0.0,0.1,0.0,1.5,-0.04,0.08,-0.75,-2.56,4.5,0.0,0.07,-0.31,-1.0,0.12,1.31,165.15,200.0,0.0,0.0,0.0,0.0
1776451834584387713,50624,0.08,0.0,0.0,0.2,0.0,-0.12,-0.63,-2.56,4.38,0.16,0.1,-0.33,0.88,0.19,1.31,165.15,204.0,0.0,0.0,0.0,0.0
1776451834682599679,50723,0.088,0.1,0.0,1.2,0.14,0.08,-0.5,-2.5,4.31,0.27,0.08,-0.32,-0.25,-0.06,1.37,169.44,204.0,0.0,0.0,0.0,0.0
1776451834784983844,50824,0.088,0.4,0.068,0.3,-0.06,-0.16,-0.37,-2.44,4.25,0.16,0.06,-0.36,0.31,0.25,0.94,164.64,183.0,0.0,0.0,0.0,0.0
1776451834883188591,50924,0.0,0.9,0.064,0.3,0.1,-0.23,-0.25,-2.44,4.25,0.12,0.07,-0.34,0.37,-0.0,1.31,169.79,193.0,0.0,0.0,0.0,0.0
1776451834985606243,51024,0.0,0.6,0.0,1.6,0.0,0.02,-0.19,-2.44,4.19,0.22,0.1,-0.33,-0.0,0.06,1.12,168.76,193.0,0.0,0.0,0.0,0.0
1776451835083855927,51124,0.092,0.1,0.0,1.4,-0.08,-0.02,-0.06,-2.38,4.19,0.13,0.05,-0.32,-0.19,0.19,1.31,165.15,177.0,0.0,0.0,0.0,0.0
1776451835186208172,51224,0.096,0.0,0.0,1.1,0.02,-0.27,0.12,-2.38,4.19,0.07,0.04,-0.28,0.56,0.06,1.37,163.44,198.0,0.0,0.0,0.0,0.0
1776451835284484602,51323,0.08,0.1,0.064,0.2,0.12,-0.08,0.19,-2.31,4.13,0.09,0.04,-0.37,0.88,0.19,1.19,165.67,198.0,0.0,0.0,0.0,0.0
1776451835386799046,51424,0.0,0.8,0.064,0.3,0.21,0.0,0.31,-2.31,4.13,0.2,0.02,-0.33,-0.19,-0.0,0.94,164.64,192.0,0.0,0.0,0.0,0.0
1776451835485076161,51524,0.0,1.1,0.068,0.6,-0.1,0.0,0.37,-2.25,4.13,0.07,0.06,-0.32,1.5,0.19,0.63,164.64,192.0,0.0,0.0,0.0,0.0
1776451835583380895,51624,0.0,1.0,0.072,0.0,0.04,-0.18,0.44,-2.25,4.19,-0.06,0.06,-0.3,0.44,0.06,0.94,165.15,182.0,0.0,0.0,0.0,0.0
1776451835685712666,51724,0.0,0.1,0.0,1.6,0.1,-0.02,0.56,-2.25,4.19,0.0,0.06,-0.32,0.69,-0.0,0.75,164.64,193.0,0.0,0.0,0.0,0.0
1776451835783980266,51824,0.088,0.1,0.0,0.1,0.08,0.04,0.63,-2.25,4.13,0.2,0.07,-0.34,0.75,-0.31,0.88,164.64,193.0,0.0,0.0,0.0,0.0
1776451835882228337,51923,0.0,0.0,0.0,0.6,0.06,-0.14,0.69,-2.19,4.13,0.18,0.05,-0.32,0.06,-0.12,0.75,168.76,192.0,0.0,0.0,0.0,0.0
1776451835984580248,52023,0.0,1.0,0.064,0.3,0.06,-0.04,0.69,-2.19,4.13,0.07,0.08,-0.31,0.44,0.06,0.63,166.18,198.0,0.0,0.0,0.0,0.0
1776451836082801997,52124,0.0,0.7,0.068,1.5,0.14,-0.18,0.75,-2.19,4.13,0.2,0.08,-0.36,-1.06,-0.19,0.69,165.15,198.0,0.0,0.0,0.0,0.0
1776451836185237800,52224,0.0,0.0,0.0,1.0,0.18,0.0,0.75,-2.13,4.06,0.32,0.09,-0.36,-1.25,-0.25,0.31,165.15,195.0,0.0,0.0,0.0,0.0
1776451836283470706,52324,0.0,0.9,0.064,0.3,0.02,0.04,0.75,-2.13,4.06,-0.01,0.08,-0.32,1.0,0.25,0.25,165.15,195.0,0.0,0.0,0.0,0.0
1776451836385793182,52424,0.0,0.7,0.068,0.5,0.02,0.0,0.75,-2.06,4.0,0.25,0.04,-0.27,-0.25,-0.06,0.12,165.15,200.0,0.0,0.0,0.0,0.0
1776451836484038379,52524,0.0,0.6,0.092,0.4,-0.02,-0.14,0.75,-2.06,3.94,0.0,0.11,-0.35,2.44,0.44,-0.31,165.33,203.0,0.0,0.0,0.0,0.0
1776451836586446952,52625,0.0,1.2,0.0,1.2,-0.06,-0.1,0.75,-2.06,3.94,0.24,0.02,-0.35,-1.31,-0.69,-0.12,165.84,203.0,0.0,0.0,0.0,0.0
1776451836684645704,52725,0.092,0.2,0.0,0.6,0.16,-0.04,0.75,-2.0,3.94,0.0,0.11,-0.29,0.63,0.5,-0.12,166.87,198.0,0.0,0.0,0.0,0.0
1776451837609675552,52826,0.0,0.7,0.088,0.1,0.0,-0.06,0.75,-2.0,3.94,0.04,0.07,-0.33,0.56,-0.19,0.0,165.15,195.0,0.0,0.0,0.0,0.0
1776451837612106407,52926,0.0,0.8,0.08,0.5,0.02,0.0,0.75,-2.0,3.94,0.0,0.08,-0.31,0.56,0.19,-0.12,165.15,195.0,0.0,0.0,0.0,0.0
1776451837614049499,53026,0.0,0.6,0.08,0.2,0.08,-0.14,0.75,-1.94,3.88,0.24,0.11,-0.35,-0.37,-0.06,-0.12,165.15,191.0,0.0,0.0,0.0,0.0
1776451837687902420,53126,0.0,0.3,0.0,1.1,-0.04,-0.14,0.75,-1.94,3.75,0.21,0.1,-0.33,0.19,0.37,-0.25,165.15,197.0,0.0,0.0,0.0,0.0
1776451837700244811,53226,0.0,0.9,0.064,0.1,0.04,-0.08,0.75,-1.94,3.75,0.2,0.04,-0.36,0.06,0.56,-0.69,165.15,197.0,0.0,0.0,0.0,0.0
1776451837712183037,53325,0.0,0.7,0.072,0.3,-0.02,-0.08,0.69,-2.0,3.75,0.01,0.04,-0.35,-0.0,0.69,-0.81,169.44,187.0,0.0,0.0,0.0,0.0
1776451837724094774,53426,0.0,0.4,0.0,1.4,0.14,-0.06,0.63,-2.0,3.75,0.1,0.04,-0.32,-0.5,0.63,-0.56,165.15,205.0,0.0,0.0,0.0,0.0
1776451837786036810,53527,0.084,0.1,0.0,1.4,0.04,-0.2,0.63,-2.0,3.69,0.13,0.11,-0.32,0.12,0.5,-0.5,165.15,205.0,0.0,0.0,0.0,0.0
1776451837798059357,53626,0.084,0.4,0.0,1.5,0.12,0.02,0.63,-2.06,3.69,0.1,0.08,-0.35,0.44,0.81,0.31,165.33,193.0,0.0,0.0,0.0,0.0
1776451837809782700,53726,0.092,0.4,0.0,1.6,0.18,-0.1,0.69,-2.13,3.56,0.4,0.01,-0.34,-1.63,-0.0,1.5,165.84,193.0,0.0,0.0,0.0,0.0
1776451837821586014,53826,0.1,0.2,0.0,1.4,0.0,-0.06,0.88,-2.13,3.56,-0.17,0.09,-0.33,1.75,1.37,1.12,165.67,204.0,0.0,0.0,0.0,0.0
1776451837888462604,53926,0.088,0.3,0.0,1.6,0.04,-0.14,0.94,-2.19,3.63,-0.03,-0.0,-0.32,-0.12,0.12,0.69,165.67,215.0,0.0,0.0,0.0,0.0
1776451837986692958,54026,0.096,0.0,0.0,0.1,-0.06,-0.12,0.94,-2.19,3.63,0.0,0.08,-0.34,0.44,0.06,0.0,165.84,215.0,0.0,0.0,0.0,0.0
1776451838089054660,54126,0.0,1.4,0.096,0.1,0.06,0.02,0.94,-2.19,3.63,-0.1,0.05,-0.35,0.56,0.31,0.12,165.84,180.0,0.0,0.0,0.0,0.0
1776451838187329732,54225,0.0,1.2,0.088,0.7,0.04,-0.16,1.0,-2.19,3.63,0.16,0.02,-0.33,-0.5,-0.25,0.81,166.7,200.0,0.0,0.0,0.0,0.0
1776451838289708926,54326,0.0,1.3,0.088,0.3,0.04,-0.12,1.06,-2.19,3.69,-0.22,0.09,-0.35,1.5,1.31,0.69,165.84,200.0,0.0,0.0,0.0,0.0
1776451838387959951,54426,0.0,1.4,0.0,0.7,-0.12,0.02,1.12,-2.25,3.75,0.01,-0.03,-0.36,-0.12,-0.12,0.69,165.84,185.0,0.0,0.0,0.0,0.0
1776451838490296123,54526,0.0,0.9,0.08,0.3,0.04,-0.14,1.12,-2.25,3.88,-0.03,0.02,-0.34,-0.88,0.25,0.63,165.84,195.0,0.0,0.0,0.0,0.0
1776451838588573861,54627,0.0,0.4,0.068,0.4,-0.18,0.0,1.12,-2.25,3.81,0.22,0.07,-0.34,-0.0,-0.06,0.63,161.55,195.0,0.0,0.0,0.0,0.0
1776451838690937727,54727,0.0,0.5,0.0,0.6,0.14,0.06,1.19,-2.19,3.69,0.3,0.03,-0.32,-0.5,-0.0,0.81,165.67,179.0,0.0,0.0,0.0,0.0
1776451838789203581,54828,0.0,0.7,0.06,0.3,0.14,-0.1,1.25,-2.19,3.63,0.23,0.04,-0.35,-0.37,0.19,0.81,165.67,179.0,0.0,0.0,0.0,0.0
1776451838891619705,54928,0.0,0.2,0.0,0.3,0.2,-0.02,1.31,-2.13,3.44,0.32,0.08,-0.32,-0.44,0.12,1.31,165.84,198.0,0.0,0.0,0.0,0.0
1776451838989834484,55028,0.0,1.5,0.068,0.5,0.04,-0.04,1.44,-2.13,3.31,0.19,0.06,-0.32,0.31,0.75,1.5,166.87,207.0,0.0,0.0,0.0,0.0
1776451839092185085,55129,0.0,1.6,0.08,0.1,0.06,-0.08,1.63,-2.19,3.31,-0.01,0.03,-0.35,0.31,0.81,1.44,166.36,207.0,0.0,0.0,0.0,0.0
1776451839190451959,55230,0.0,0.1,0.0,1.1,0.02,0.02,1.75,-2.25,3.31,-0.01,0.01,-0.37,-0.0,0.25,1.06,165.84,188.0,0.0,0.0,0.0,0.0
1776451839292811847,55329,0.084,0.4,0.076,0.4,-0.04,0.02,1.81,-2.19,3.31,-0.08,0.02,-0.36,-0.0,0.37,0.63,166.87,218.0,0.0,0.0,0.0,0.0
1776451839391020298,55430,0.0,1.0,0.084,0.2,-0.04,-0.14,1.88,-2.19,3.38,-0.02,0.04,-0.36,-0.06,0.25,0.63,165.67,218.0,0.0,0.0,0.0,0.0
1776451839493483019,55531,0.0,0.1,0.0,-0.1,0.06,-0.16,1.94,-2.19,3.38,0.02,-0.0,-0.35,-0.37,0.25,0.69,165.67,212.0,0.0,0.0,0.0,0.0
1776451839591708279,55630,0.088,0.2,0.072,0.5,0.1,-0.1,1.94,-2.19,3.38,0.12,0.02,-0.33,-0.5,-0.19,0.44,165.67,214.0,0.0,0.0,0.0,0.0
1776451839694062965,55731,0.0,1.2,0.0,1.1,0.2,-0.02,1.94,-2.19,3.31,0.23,-0.0,-0.36,-0.44,-0.25,0.44,161.72,214.0,0.0,0.0,0.0,0.0
1776451839792308643,55832,0.0,0.7,0.0,1.7,0.14,-0.08,1.94,-2.19,3.19,0.27,0.05,-0.35,-0.19,-0.12,0.37,165.67,202.0,0.0,0.0,0.0,0.0
1776451839894692485,55931,0.0,1.1,0.0,0.9,0.02,-0.04,1.94,-2.19,3.06,0.21,0.07,-0.37,1.0,-0.0,0.69,161.55,185.0,0.0,0.0,0.0,0.0
1776451839997043728,56032,0.0,0.8,0.0,1.6,0.04,0.0,1.94,-2.19,3.06,0.06,-0.0,-0.35,-0.25,0.12,0.63,162.75,185.0,0.0,0.0,0.0,0.0
1776451840095370340,56133,0.088,0.3,0.0,1.6,0.02,-0.06,1.94,-2.19,3.06,0.14,0.03,-0.3,-0.37,-0.06,0.31,161.55,195.0,0.0,0.0,0.0,0.0
1776451840193600611,56232,0.092,1.4,0.076,0.0,0.12,0.02,1.94,-2.19,3.06,0.15,0.04,-0.32,0.06,-0.06,0.0,165.67,195.0,0.0,0.0,0.0,0.0
1776451840296001958,56332,0.0,0.4,0.0,1.3,-0.04,0.04,1.94,-2.19,3.0,0.24,0.04,-0.37,-0.19,-0.25,-0.31,161.55,179.0,0.0,0.0,0.0,0.0
1776451840394182413,56432,0.08,0.5,0.0,1.8,-0.02,-0.08,1.94,-2.19,3.0,0.0,0.02,-0.34,0.37,0.25,-0.31,161.72,191.0,0.0,0.0,0.0,0.0
1776451840502508082,56532,0.0,1.2,0.0,1.0,0.16,-0.04,1.94,-2.19,3.0,0.14,0.05,-0.3,0.12,-0.31,-0.31,161.72,191.0,0.0,0.0,0.0,0.0
1776451840594839763,56632,0.0,0.5,0.072,0.9,0.16,0.02,1.94,-2.13,2.94,0.08,0.08,-0.38,1.0,-0.06,-0.12,165.84,207.0,0.0,0.0,0.0,0.0
1776451840697250126,56733,0.0,0.7,0.076,0.1,0.04,-0.02,1.94,-2.19,2.94,0.19,-0.12,-0.38,-2.0,-0.37,-0.44,161.72,196.0,0.0,0.0,0.0,0.0
1776451840795461996,56833,0.0,0.2,0.0,1.1,0.18,-0.04,1.94,-2.13,2.81,0.17,0.12,-0.36,0.69,0.19,-1.12,165.84,196.0,0.0,0.0,0.0,0.0
1776451840893732753,56933,0.084,0.2,0.0,1.5,0.12,0.0,1.88,-2.13,2.81,0.12,-0.0,-0.33,0.19,0.56,-0.37,165.84,223.0,0.0,0.0,0.0,0.0
1776451840996100112,57032,0.088,0.2,0.0,1.5,0.02,-0.06,1.88,-2.13,2.75,0.16,0.02,-0.34,0.12,-0.06,-0.63,165.84,223.0,0.0,0.0,0.0,0.0
1776451841094364551,57133,0.1,0.3,0.0,1.2,0.06,-0.08,1.81,-2.19,2.75,-0.07,-0.03,-0.34,-0.12,0.69,-0.75,165.84,199.0,0.0,0.0,0.0,0.0
1776451841196720323,57233,0.0,1.4,0.0,1.2,0.1,0.02,1.75,-2.19,2.75,0.11,0.04,-0.36,0.06,-0.06,-0.56,165.67,204.0,0.0,0.0,0.0,0.0
1776451841294978424,57332,0.0,0.9,0.0,1.5,0.08,-0.08,1.75,-2.19,2.75,0.09,-0.0,-0.32,0.12,0.31,-0.44,165.84,204.0,0.0,0.0,0.0,0.0
1776451841397342583,57433,0.084,0.0,0.0,0.9,0.12,-0.06,1.75,-2.19,2.69,0.17,0.06,-0.34,0.5,0.19,-0.56,165.67,193.0,0.0,0.0,0.0,0.0
1776451841495615364,57533,0.0,1.1,0.084,0.1,0.02,-0.04,1.69,-2.25,2.69,0.19,-0.04,-0.37,-0.37,0.56,-0.44,165.84,199.0,0.0,0.0,0.0,0.0
1776451841593890014,57632,0.0,0.4,0.0,1.2,0.08,0.04,1.69,-2.25,2.69,0.14,0.02,-0.39,0.31,0.44,-0.81,165.84,199.0,0.0,0.0,0.0,0.0
1776451841696292456,57732,0.092,0.2,0.0,0.2,0.06,-0.12,1.56,-2.31,2.63,0.26,-0.02,-0.34,-0.5,0.06,-1.12,165.15,192.0,0.0,0.0,0.0,0.0
1776451841794515051,57832,0.0,0.8,0.076,0.4,0.1,-0.06,1.5,-2.31,2.63,0.05,-0.02,-0.3,0.25,0.94,-1.06,165.15,192.0,0.0,0.0,0.0,0.0
1776451841892771633,57931,0.0,0.3,0.0,1.4,0.04,0.04,1.44,-2.38,2.5,0.14,0.04,-0.33,1.0,-0.12,-0.44,165.15,192.0,0.0,0.0,0.0,0.0
1776451841995142993,58031,0.0,0.5,0.0,1.1,0.0,-0.12,1.37,-2.38,2.56,0.14,-0.04,-0.36,-0.5,0.37,-0.31,165.15,211.0,0.0,0.0,0.0,0.0
1776451842093412672,58131,0.0,0.9,0.0,1.4,0.08,-0.12,1.37,-2.44,2.56,0.06,-0.0,-0.38,0.69,0.37,-0.19,165.15,213.0,0.0,0.0,0.0,0.0
1776451842191650927,58230,0.0,1.3,0.088,0.6,0.27,0.06,1.37,-2.44,2.56,0.02,-0.06,-0.38,-0.44,-0.12,-0.31,165.15,213.0,0.0,0.0,0.0,0.0
1776451842294092759,58330,0.0,0.5,0.0,0.8,0.04,-0.16,1.37,-2.44,2.56,0.12,-0.01,-0.37,-0.44,-0.06,-0.19,165.15,208.0,0.0,0.0,0.0,0.0
1776451842392290749,58430,0.0,0.4,0.092,0.1,0.08,-0.1,1.37,-2.44,2.56,-0.01,-0.01,-0.35,0.88,0.37,-0.31,165.15,208.0,0.0,0.0,0.0,0.0
1776451842490513306,58529,0.0,1.3,0.0,0.2,0.14,0.04,1.37,-2.44,2.56,0.11,-0.04,-0.35,0.06,0.25,0.0,165.67,187.0,0.0,0.0,0.0,0.0
1776451842592941012,58629,0.0,0.7,0.08,0.5,0.08,0.0,1.37,-2.44,2.5,0.26,-0.01,-0.38,-0.31,-0.06,0.25,165.15,204.0,0.0,0.0,0.0,0.0
1776451842691225992,58729,0.092,-0.1,0.0,1.7,0.08,-0.18,1.37,-2.44,2.38,0.2,-0.0,-0.34,0.37,0.19,0.69,165.15,204.0,0.0,0.0,0.0,0.0
1776451842793601994,58828,0.0,1.5,0.084,0.1,0.14,-0.14,1.5,-2.44,2.31,0.09,-0.0,-0.37,0.88,0.31,1.37,165.15,217.0,0.0,0.0,0.0,0.0
1776451842891850468,58928,0.0,1.2,0.092,0.3,0.06,-0.04,1.63,-2.5,2.25,0.19,-0.06,-0.35,-1.0,-0.25,1.94,165.15,206.0,0.0,0.0,0.0,0.0
1776451842994208142,59028,0.0,1.1,0.0,0.9,-0.04,0.0,1.88,-2.5,2.13,0.12,0.04,-0.42,0.75,-0.12,2.0,165.15,206.0,0.0,0.0,0.0,0.0
1776451843092480483,59128,0.092,-0.1,0.0,1.4,-0.02,0.0,2.0,-2.5,2.19,0.05,-0.06,-0.37,-0.69,0.12,1.81,165.15,204.0,0.0,0.0,0.0,0.0
1776451843194834906,59229,0.0,1.2,0.088,0.6,-0.04,-0.08,2.19,-2.5,2.13,0.25,0.01,-0.35,-0.56,-0.31,1.56,165.15,204.0,0.0,0.0,0.0,0.0
1776451843293133357,59329,0.0,0.9,0.0,0.1,-0.12,0.12,2.31,-2.5,2.19,-0.23,-0.02,-0.39,2.19,0.25,0.88,165.15,195.0,0.0,0.0,0.0,0.0
1776451843391345114,59428,0.0,1.2,0.0,0.9,-0.1,-0.02,2.31,-2.5,2.44,-0.34,-0.08,-0.38,0.19,-0.12,0.37,166.36,212.0,0.0,0.0,0.0,0.0
1776451843493718549,59529,0.108,0.2,0.0,1.0,0.04,-0.12,2.31,-2.56,2.5,0.01,-0.0,-0.38,-0.12,-0.31,0.06,165.15,212.0,0.0,0.0,0.0,0.0
1776451843592052951,59629,0.1,0.1,0.0,1.1,0.1,-0.08,2.31,-2.56,2.56,0.21,-0.05,-0.36,-0.75,-0.06,0.0,165.15,207.0,0.0,0.0,0.0,0.0
1776451843694362240,59729,0.0,0.8,0.072,0.2,0.0,-0.2,2.31,-2.56,2.31,0.49,0.05,-0.34,0.19,-0.31,0.12,161.04,199.0,0.0,0.0,0.0,0.0
1776451843792668300,59830,0.0,0.2,0.0,1.5,0.06,-0.08,2.31,-2.56,2.06,0.3,-0.0,-0.34,0.31,-0.25,0.19,165.15,199.0,0.0,0.0,0.0,0.0
1776451843895010911,59930,0.092,1.5,0.0,1.4,0.18,-0.1,2.31,-2.56,2.0,0.07,-0.0,-0.35,1.12,-0.19,0.06,165.15,193.0,0.0,0.0,0.0,0.0
1776451843993274670,60029,0.1,0.1,0.092,0.2,-0.04,0.04,2.31,-2.56,2.0,0.33,-0.01,-0.31,-0.5,-0.63,-0.81,165.15,197.0,0.0,0.0,0.0,0.0
1776451844091528346,60129,0.0,1.0,0.0,1.5,0.18,-0.12,2.19,-2.5,1.56,0.35,0.03,-0.38,1.44,-0.5,-1.06,165.15,197.0,0.0,0.0,0.0,0.0
1776451844193909020,60229,0.1,0.3,0.0,0.1,0.02,-0.14,2.13,-2.5,1.75,-0.24,-0.02,-0.29,-0.94,-0.63,-1.37,161.04,203.0,0.0,0.0,0.0,0.0
1776451844292173952,60329,0.0,1.6,0.096,0.4,-0.02,-0.1,1.94,-2.44,1.69,0.02,0.07,-0.39,2.38,-0.31,-1.88,165.15,197.0,0.0,0.0,0.0,0.0
1776451844394528560,60430,0.0,1.1,0.084,0.1,-0.04,-0.12,1.75,-2.38,1.75,0.11,0.01,-0.37,-0.81,-0.75,-1.69,162.07,197.0,0.0,0.0,0.0,0.0
1776451844502847402,60531,0.0,1.3,0.088,0.2,0.04,-0.02,1.56,-2.38,1.75,-0.01,-0.0,-0.39,1.19,-0.44,-1.56,161.04,198.0,0.0,0.0,0.0,0.0
1776451844595187125,60631,0.0,1.2,0.0,1.2,0.1,-0.12,1.44,-2.38,1.75,0.35,0.01,-0.36,-1.0,-0.56,-1.88,165.15,198.0,0.0,0.0,0.0,0.0
1776451844693413328,60731,0.092,0.0,0.084,0.4,0.14,0.06,1.25,-2.38,1.75,0.01,0.01,-0.3,1.25,-0.63,-1.5,161.04,196.0,0.0,0.0,0.0,0.0
1776451844795812459,60831,0.0,0.7,0.084,0.5,0.04,0.1,1.12,-2.31,1.88,-0.15,0.01,-0.36,2.63,-0.63,-1.37,165.15,188.0,0.0,0.0,0.0,0.0
1776451844894068394,60931,0.0,0.3,0.0,1.4,-0.08,-0.08,1.0,-2.25,1.94,0.28,0.05,-0.38,-0.69,-0.5,-1.0,161.04,188.0,0.0,0.0,0.0,0.0
1776451844996472487,61031,0.088,-0.1,0.0,0.5,0.12,-0.08,0.88,-2.25,2.0,0.04,0.02,-0.35,1.06,-0.5,-1.37,161.04,199.0,0.0,0.0,0.0,0.0
1776451845094712426,61131,0.0,1.2,0.084,0.3,-0.06,0.04,0.69,-2.25,2.06,0.11,0.01,-0.36,0.69,-0.56,-2.69,165.15,201.0,0.0,0.0,0.0,0.0
1776451845197072139,61231,0.0,1.2,0.088,0.2,0.08,-0.14,0.44,-2.19,2.06,0.16,0.06,-0.32,0.31,-0.5,-2.63,161.04,201.0,0.0,0.0,0.0,0.0
1776451845295381838,61331,0.0,1.2,0.092,0.5,0.21,-0.12,0.19,-2.19,2.0,0.26,0.04,-0.33,-0.0,-0.5,-2.06,161.04,183.0,0.0,0.0,0.0,0.0
1776451845393613043,61431,0.0,1.4,0.088,0.1,0.18,-0.16,0.06,-2.13,1.94,0.17,0.08,-0.36,1.19,-0.37,-1.19,165.15,190.0,0.0,0.0,0.0,0.0
1776451845495993194,61531,0.0,1.2,0.072,0.6,-0.12,-0.14,-0.0,-2.13,1.88,0.34,0.04,-0.38,-0.5,-0.44,0.06,165.15,190.0,0.0,0.0,0.0,0.0
1776451845594268848,61631,0.0,1.4,0.084,0.4,0.16,0.2,0.06,-2.13,1.94,0.03,0.08,-0.33,2.56,-0.06,0.75,165.84,198.0,0.0,0.0,0.0,0.0
1776451845692521694,61730,0.0,0.1,0.0,1.2,0.04,-0.08,0.12,-2.06,2.06,0.09,0.04,-0.37,1.44,-0.81,0.88,165.15,198.0,0.0,0.0,0.0,0.0
1776451845794898772,61830,0.096,0.2,0.0,1.3,-0.04,-0.08,0.12,-2.06,2.25,-0.11,0.07,-0.34,2.5,-0.56,0.06,165.15,223.0,0.0,0.0,0.0,0.0
1776451845893155783,61930,0.0,0.5,0.08,0.6,0.04,-0.04,0.12,-2.0,2.44,0.1,0.05,-0.31,-0.63,-0.5,0.31,165.67,184.0,0.0,0.0,0.0,0.0
1776451845991390172,62029,0.0,0.9,0.06,0.6,-0.02,-0.12,0.25,-2.0,2.31,0.29,0.1,-0.42,1.0,0.06,2.0,165.84,184.0,0.0,0.0,0.0,0.0
1776451846093801923,62129,0.0,1.0,0.0,1.5,0.04,-0.04,0.5,-2.0,2.69,-0.43,0.04,-0.29,5.0,1.25,2.13,165.15,197.0,0.0,0.0,0.0,0.0
1776451846192062414,62229,0.092,-0.2,0.0,1.6,0.14,0.02,0.69,-2.0,2.81,0.16,-0.0,-0.36,-1.94,-0.63,2.44,165.15,191.0,0.0,0.0,0.0,0.0
1776451846294428523,62328,0.092,0.2,0.0,1.4,0.2,-0.18,0.88,-1.94,2.69,0.2,0.14,-0.35,1.63,0.25,1.81,166.18,191.0,0.0,0.0,0.0,0.0
1776451846392668761,62429,0.088,0.1,0.0,1.5,-0.04,-0.18,1.06,-1.94,2.69,0.27,0.02,-0.38,-0.25,-0.0,1.75,165.67,190.0,0.0,0.0,0.0,0.0
1776451846495043479,62529,0.08,0.1,0.0,1.3,0.04,-0.02,1.19,-1.94,2.75,0.06,0.06,-0.35,1.75,0.44,1.0,165.15,191.0,0.0,0.0,0.0,0.0
1776451846593349253,62628,0.088,0.4,0.0,0.5,0.04,-0.12,1.25,-1.94,2.81,0.13,-0.0,-0.33,0.37,0.44,0.81,165.15,191.0,0.0,0.0,0.0,0.0
1776451846691580753,62728,0.0,1.2,0.072,0.3,-0.02,0.06,1.31,-1.94,2.75,0.2,0.03,-0.34,1.19,0.25,1.0,165.15,181.0,0.0,0.0,0.0,0.0
1776451846793972761,62828,0.092,0.4,0.08,0.2,0.02,-0.06,1.44,-1.88,2.81,0.1,0.02,-0.37,0.75,0.5,0.88,165.15,181.0,0.0,0.0,0.0,0.0
1776451846892249951,62927,0.0,1.2,0.084,0.5,0.04,-0.04,1.5,-1.88,2.88,0.05,-0.01,-0.33,0.19,0.31,1.06,165.15,206.0,0.0,0.0,0.0,0.0
1776451846990459143,63027,0.0,1.2,0.08,0.4,0.1,0.0,1.63,-1.88,2.94,0.01,-0.01,-0.33,0.56,0.06,0.56,165.15,197.0,0.0,0.0,0.0,0.0
1776451847092898978,63127,0.0,0.1,0.084,0.4,0.02,0.0,1.63,-1.88,2.94,-0.02,-0.0,-0.29,0.19,-0.12,-0.19,165.15,197.0,0.0,0.0,0.0,0.0
1776451847191167500,63226,0.0,0.8,0.068,0.2,0.04,-0.02,1.63,-1.88,3.0,0.07,0.05,-0.33,0.88,-0.06,-0.19,165.15,199.0,0.0,0.0,0.0,0.0
1776451847293526506,63326,0.0,1.0,0.076,0.6,-0.08,0.02,1.63,-1.88,3.0,0.04,0.01,-0.35,0.75,-0.06,0.12,165.15,213.0,0.0,0.0,0.0,0.0
1776451847391762352,63426,0.0,0.7,0.0,0.5,0.21,0.04,1.63,-1.88,3.13,-0.18,-0.02,-0.35,1.12,0.25,-0.31,165.15,213.0,0.0,0.0,0.0,0.0
1776451847490065883,63526,0.0,1.4,0.092,0.3,-0.04,-0.16,1.63,-1.94,3.38,-0.24,-0.04,-0.31,0.5,0.25,-0.31,166.18,205.0,0.0,0.0,0.0,0.0
1776451847592433627,63627,0.0,0.6,0.0,1.3,-0.06,-0.08,1.56,-1.88,3.25,0.16,0.11,-0.34,0.56,-0.75,-0.88,165.15,196.0,0.0,0.0,0.0,0.0
1776451847694809054,63728,0.0,0.7,0.0,1.3,0.06,-0.14,1.5,-1.94,3.44,-0.2,-0.1,-0.31,-0.5,0.75,-0.12,165.15,196.0,0.0,0.0,0.0,0.0
1776451847793076188,63827,0.088,0.7,0.064,0.5,0.16,-0.16,1.5,-1.88,3.25,0.47,0.14,-0.29,0.63,-0.94,-0.63,165.15,185.0,0.0,0.0,0.0,0.0
1776451847891312793,63927,0.0,1.2,0.092,0.3,0.14,-0.1,1.5,-1.88,3.31,0.13,-0.08,-0.33,-0.37,0.56,0.25,165.15,185.0,0.0,0.0,0.0,0.0
1776451847993711084,64027,0.096,0.2,0.0,1.3,0.08,-0.04,1.5,-1.88,3.0,0.36,0.05,-0.31,0.25,-0.69,-0.12,165.15,178.0,0.0,0.0,0.0,0.0
1776451848091985111,64126,0.088,0.1,0.0,1.2,-0.02,-0.2,1.5,-1.88,3.0,0.19,-0.02,-0.31,-0.56,0.25,-0.31,165.15,185.0,0.0,0.0,0.0,0.0
1776451848194361262,64227,0.0,1.0,0.072,0.2,0.12,-0.08,1.5,-1.88,2.88,0.21,-0.0,-0.33,-0.44,-0.25,-0.19,165.15,185.0,0.0,0.0,0.0,0.0
1776451848292632593,64327,0.0,0.7,0.08,0.5,0.0,-0.27,1.5,-1.88,2.81,0.23,0.03,-0.35,-0.25,-0.0,-0.44,165.84,201.0,0.0,0.0,0.0,0.0
1776451848394952705,64428,0.0,0.6,0.076,0.3,0.08,0.0,1.5,-1.88,2.81,0.04,-0.0,-0.34,0.69,0.25,-0.06,165.84,203.0,0.0,0.0,0.0,0.0
1776451848493263635,64528,0.0,0.9,0.0,1.5,-0.02,-0.12,1.5,-1.88,2.81,0.05,-0.03,-0.33,0.19,-0.06,-0.12,165.84,203.0,0.0,0.0,0.0,0.0
1776451848595635843,64629,0.0,1.4,0.088,0.0,0.16,-0.1,1.5,-1.88,2.81,-0.02,-0.0,-0.32,1.12,0.06,-0.37,165.84,199.0,0.0,0.0,0.0,0.0
1776451848693911136,64729,0.0,1.3,0.092,0.4,0.14,-0.02,1.5,-1.88,2.94,-0.1,-0.03,-0.34,0.75,-0.0,-0.25,165.84,199.0,0.0,0.0,0.0,0.0
1776451848796274032,64829,0.092,0.5,0.0,1.3,-0.04,0.08,1.5,-1.88,3.0,0.02,-0.0,-0.34,-0.06,-0.25,-0.19,165.67,199.0,0.0,0.0,0.0,0.0
1776451848894541882,64929,0.088,-0.1,0.0,1.2,-0.06,-0.06,1.5,-1.88,3.0,0.01,0.04,-0.32,0.69,0.31,0.25,165.84,184.0,0.0,0.0,0.0,0.0
1776451848996905481,65029,0.08,0.3,0.0,1.0,0.12,-0.08,1.5,-1.88,3.0,0.1,-0.0,-0.35,0.37,0.12,0.19,165.67,184.0,0.0,0.0,0.0,0.0
1776451849095190601,65129,0.0,0.8,0.08,0.5,0.06,-0.06,1.5,-1.88,3.06,0.04,-0.06,-0.35,-0.56,0.12,-0.19,166.36,217.0,0.0,0.0,0.0,0.0
1776451849193474883,65228,0.0,0.4,0.084,0.2,0.1,-0.02,1.5,-1.88,3.06,0.24,-0.01,-0.33,-0.56,-0.06,-0.37,165.84,189.0,0.0,0.0,0.0,0.0
1776451849295811713,65329,0.084,1.1,0.084,0.3,0.2,-0.14,1.5,-1.88,2.81,0.31,0.08,-0.35,0.88,0.06,-0.06,166.36,189.0,0.0,0.0,0.0,0.0
1776451849394060857,65429,0.0,1.4,0.096,0.5,-0.12,0.02,1.5,-2.0,2.94,-0.03,-0.05,-0.37,0.81,1.25,0.75,161.72,184.0,0.0,0.0,0.0,0.0
1776451849496453689,65529,0.0,0.2,0.1,0.4,0.06,-0.06,1.56,-2.0,2.94,0.27,-0.02,-0.34,-0.63,-0.63,0.81,165.67,202.0,0.0,0.0,0.0,0.0
1776451849594809507,65629,0.0,0.2,0.0,1.5,0.0,0.04,1.63,-2.0,2.75,0.66,0.05,-0.39,-0.5,-0.63,0.69,161.55,202.0,0.0,0.0,0.0,0.0
1776451849697106625,65729,0.0,0.2,0.0,1.2,0.02,0.02,1.63,-2.06,2.94,-0.14,-0.0,-0.33,1.56,1.44,0.37,161.55,207.0,0.0,0.0,0.0,0.0
1776451849795375394,65829,0.0,0.8,0.06,0.5,0.18,-0.02,1.75,-2.19,2.94,0.07,0.03,-0.35,0.5,-0.31,1.81,161.55,191.0,0.0,0.0,0.0,0.0
1776451849897746935,65929,0.0,0.1,0.0,1.6,0.08,-0.06,1.94,-2.19,3.06,0.15,0.02,-0.3,-0.12,0.63,2.06,163.27,191.0,0.0,0.0,0.0,0.0
1776451849996013871,66030,0.0,1.5,0.06,0.3,0.12,-0.14,2.13,-2.19,2.94,0.16,0.07,-0.36,1.56,0.37,2.44,162.07,174.0,0.0,0.0,0.0,0.0
1776451850094295281,66129,0.0,0.1,0.0,1.1,0.1,-0.06,2.38,-2.25,3.06,-0.05,-0.03,-0.33,1.12,0.94,2.25,165.67,174.0,0.0,0.0,0.0,0.0
1776451850196696887,66230,0.084,0.1,0.0,1.3,0.0,-0.06,2.5,-2.25,3.13,0.12,-0.0,-0.38,0.63,-0.31,1.44,165.84,200.0,0.0,0.0,0.0,0.0
1776451850299019311,66331,0.0,0.9,0.072,0.2,-0.02,-0.12,2.63,-2.25,3.06,0.24,0.01,-0.37,0.94,0.12,1.0,165.67,197.0,0.0,0.0,0.0,0.0
1776451850397301123,66432,0.0,0.2,0.0,1.5,0.02,-0.04,2.69,-2.25,3.13,0.0,0.03,-0.35,1.63,0.81,0.81,165.67,197.0,0.0,0.0,0.0,0.0
1776451850499654428,66532,0.092,1.1,0.088,0.2,0.14,-0.02,2.75,-2.38,3.31,-0.04,-0.08,-0.3,-0.12,0.5,0.75,161.72,200.0,0.0,0.0,0.0,0.0
1776451850597945108,66631,0.0,1.2,0.076,0.3,0.0,-0.14,2.81,-2.38,3.25,0.19,0.03,-0.4,0.81,-0.0,0.94,165.67,204.0,0.0,0.0,0.0,0.0
1776451850696228864,66731,0.0,1.2,0.08,0.1,0.1,-0.04,2.88,-2.44,3.31,0.0,-0.02,-0.37,1.25,0.75,0.81,165.67,204.0,0.0,0.0,0.0,0.0
1776451850798616307,66831,0.0,1.3,0.0,0.3,0.2,-0.16,2.94,-2.44,3.44,0.07,-0.1,-0.33,-0.37,0.06,0.44,165.67,183.0,0.0,0.0,0.0,0.0
1776451850896870756,66931,0.0,0.9,0.072,0.2,0.02,-0.04,2.94,-2.5,3.38,0.17,0.01,-0.38,0.12,-0.31,0.25,165.84,193.0,0.0,0.0,0.0,0.0
1776451850999228837,67031,0.0,0.9,0.0,1.5,-0.08,0.08,2.94,-2.5,3.31,0.23,-0.0,-0.39,0.19,-0.25,0.19,169.27,193.0,0.0,0.0,0.0,0.0
1776451851097476841,67131,0.0,0.3,0.0,1.1,0.21,-0.08,2.94,-2.5,3.38,-0.07,-0.0,-0.32,0.69,0.19,0.44,169.27,202.0,0.0,0.0,0.0,0.0
1776451851205846544,67231,0.0,0.7,0.084,0.4,0.21,-0.02,2.94,-2.5,3.44,-0.03,-0.04,-0.34,-0.06,-0.0,0.19,169.27,203.0,0.0,0.0,0.0,0.0
1776451851298116075,67331,0.0,0.1,0.0,0.5,0.04,0.04,2.94,-2.5,3.5,-0.12,-0.01,-0.33,0.25,-0.06,-0.19,169.44,203.0,0.0,0.0,0.0,0.0
1776451851400496370,67432,0.0,0.4,0.0,1.0,0.18,-0.04,2.94,-2.5,3.5,0.14,-0.04,-0.36,-0.5,-0.56,-0.44,165.15,197.0,0.0,0.0,0.0,0.0
1776451851498769602,67531,0.092,-0.1,0.068,0.5,0.21,-0.23,2.88,-2.5,3.31,0.53,-0.0,-0.31,-1.37,-0.75,-1.19,166.18,197.0,0.0,0.0,0.0,0.0
1776451851607137212,67632,0.0,0.8,0.088,0.4,-0.02,-0.06,2.75,-2.44,3.06,0.18,-0.0,-0.34,-0.0,-0.56,-1.06,165.15,201.0,0.0,0.0,0.0,0.0
1776451851699409983,67732,0.0,0.6,0.072,0.5,0.14,0.02,2.69,-2.38,2.94,0.26,0.02,-0.37,-0.0,-1.0,-1.25,165.15,204.0,0.0,0.0,0.0,0.0
1776451851797706449,67831,0.0,0.3,0.0,1.0,0.08,-0.21,2.5,-2.31,2.94,0.02,-0.0,-0.34,0.94,-0.94,-1.37,164.64,204.0,0.0,0.0,0.0,0.0
1776451851900082856,67931,0.092,0.2,0.0,1.2,0.02,-0.14,2.38,-2.25,2.94,0.07,-0.0,-0.32,-0.06,-0.75,-1.12,165.15,202.0,0.0,0.0,0.0,0.0
1776451851998344350,68031,0.092,0.1,0.0,1.3,0.08,-0.1,2.31,-2.19,2.94,-0.1,0.04,-0.34,1.0,-0.5,-0.37,168.76,206.0,0.0,0.0,0.0,0.0
1776451852096617311,68130,0.088,0.0,0.0,1.6,0.1,-0.02,2.31,-2.19,3.0,-0.12,0.01,-0.37,0.12,-0.31,-0.31,164.64,206.0,0.0,0.0,0.0,0.0
1776451852198990456,68230,0.0,1.4,0.084,0.2,0.06,0.16,2.31,-2.19,3.0,-0.01,-0.0,-0.36,-0.31,-0.44,-0.63,164.64,190.0,0.0,0.0,0.0,0.0
1776451852297234335,68331,0.0,1.2,0.0,0.3,-0.14,-0.14,2.25,-2.19,3.0,0.2,0.03,-0.35,-0.12,-0.44,-0.88,164.47,190.0,0.0,0.0,0.0,0.0
1776451852395510780,68430,0.0,0.9,0.084,0.4,0.08,-0.25,2.13,-2.19,2.94,0.13,0.02,-0.37,0.69,-0.44,-1.37,164.47,180.0,0.0,0.0,0.0,0.0
1776451852497908030,68530,0.0,1.0,0.064,0.3,0.08,0.06,2.0,-2.19,2.81,0.4,0.02,-0.3,-0.69,-0.44,-1.56,164.64,186.0,0.0,0.0,0.0,0.0
1776451852596199249,68630,0.0,0.9,0.064,0.5,0.21,-0.12,1.88,-2.19,2.63,0.27,0.04,-0.29,-0.44,-0.5,-1.37,164.64,186.0,0.0,0.0,0.0,0.0
1776451852698559045,68730,0.0,0.1,0.0,1.2,-0.04,0.02,1.69,-2.13,2.44,0.14,0.03,-0.34,0.56,-0.25,-1.31,165.15,194.0,0.0,0.0,0.0,0.0
1776451852796834194,68830,0.084,0.1,0.0,0.2,0.1,-0.08,1.56,-2.13,2.44,0.1,0.03,-0.37,0.37,-0.37,-1.19,165.15,205.0,0.0,0.0,0.0,0.0
1776451852895071927,68930,0.0,0.8,0.008,0.5,0.04,0.0,1.44,-2.13,2.44,0.0,0.03,-0.31,-0.75,-0.5,-1.44,165.15,205.0,0.0,0.0,0.0,0.0
1776451852997472954,69029,0.0,0.2,0.0,0.3,0.04,-0.1,1.31,-2.13,2.44,-0.15,0.02,-0.38,1.75,-0.31,-1.75,165.15,197.0,0.0,0.0,0.0,0.0
1776451853095743389,69129,0.0,0.7,0.0,0.4,-0.04,-0.08,1.12,-2.13,2.44,0.02,0.06,-0.36,-0.44,-0.56,-1.69,165.15,189.0,0.0,0.0,0.0,0.0
1776451853198118530,69229,0.0,0.3,0.0,1.0,0.06,0.02,1.0,-2.13,2.38,0.21,0.07,-0.31,-0.37,-0.25,-0.81,161.04,189.0,0.0,0.0,0.0,0.0
1776451853296392209,69328,0.0,0.7,0.072,0.4,0.08,-0.18,0.94,-2.13,2.31,0.07,0.06,-0.34,0.81,-0.12,-0.56,161.04,195.0,0.0,0.0,0.0,0.0
1776451853398732600,69429,0.0,1.3,0.088,0.5,0.1,-0.04,0.94,-2.13,2.38,0.1,0.04,-0.32,-0.12,-0.5,-0.37,161.04,203.0,0.0,0.0,0.0,0.0
1776451853497046750,69529,0.0,0.3,0.0,0.5,0.06,-0.1,0.94,-2.06,2.31,0.16,0.06,-0.34,-0.19,-0.44,0.0,165.15,203.0,0.0,0.0,0.0,0.0
1776451853595327353,69628,0.0,0.2,0.0,0.3,0.04,-0.08,0.94,-2.06,2.19,0.44,0.05,-0.33,-1.44,-0.69,0.5,165.15,202.0,0.0,0.0,0.0,0.0
1776451853697695218,69728,0.0,0.5,0.0,1.1,0.16,-0.06,1.0,-2.0,2.13,0.04,0.05,-0.33,0.94,-0.25,1.31,161.04,202.0,0.0,0.0,0.0,0.0
1776451853795980839,69828,0.0,0.9,0.068,0.2,0.1,-0.08,1.19,-2.0,1.94,0.33,0.03,-0.34,-0.31,-0.31,1.94,165.15,187.0,0.0,0.0,0.0,0.0
1776451853894249500,69927,0.0,0.4,0.0,1.4,0.08,-0.06,1.31,-2.0,2.0,-0.14,0.02,-0.33,1.19,-0.31,1.06,165.15,206.0,0.0,0.0,0.0,0.0
1776451853996608739,70027,0.088,0.3,0.0,1.3,0.04,-0.02,1.37,-1.94,2.06,0.13,0.08,-0.38,-0.12,-0.56,0.69,165.15,206.0,0.0,0.0,0.0,0.0
1776451854094906842,70127,0.0,1.0,0.072,0.2,0.1,-0.06,1.37,-1.94,2.13,-0.11,0.08,-0.37,1.44,-0.19,0.63,165.84,193.0,0.0,0.0,0.0,0.0
1776451854197252229,70227,0.0,1.0,0.068,0.3,-0.02,-0.16,1.44,-1.88,2.31,-0.09,0.01,-0.36,0.31,0.06,0.81,161.55,199.0,0.0,0.0,0.0,0.0
1776451854295505370,70327,0.0,1.0,0.068,0.2,0.08,-0.06,1.56,-1.88,2.38,-0.12,0.04,-0.35,0.5,-0.0,0.88,165.67,199.0,0.0,0.0,0.0,0.0
1776451854393809332,70427,0.0,1.3,0.0,0.4,0.14,0.0,1.63,-1.88,2.31,0.15,0.03,-0.38,-0.44,-0.56,0.94,161.55,196.0,0.0,0.0,0.0,0.0
1776451854496144259,70526,0.0,1.3,0.076,0.5,0.0,-0.08,1.75,-1.88,2.38,0.02,0.05,-0.37,-0.19,-0.25,1.0,165.67,196.0,0.0,0.0,0.0,0.0
1776451854594459865,70627,0.0,1.4,0.0,0.2,-0.02,-0.1,1.81,-1.88,2.31,0.16,0.1,-0.35,0.5,-0.37,0.88,165.15,202.0,0.0,0.0,0.0,0.0
1776451854692701843,70726,0.0,0.6,0.076,0.3,0.18,-0.16,1.88,-1.81,2.31,0.13,0.07,-0.35,0.31,-0.44,0.81,161.55,198.0,0.0,0.0,0.0,0.0
1776451854801070156,70825,0.0,0.7,0.0,1.5,0.16,-0.04,1.94,-1.81,2.31,0.15,0.04,-0.31,0.12,-0.37,0.37,161.55,198.0,0.0,0.0,0.0,0.0
1776451854893375093,70925,0.088,0.3,0.0,1.7,0.08,0.0,1.94,-1.81,2.31,0.14,0.06,-0.34,0.31,-0.37,0.06,161.55,194.0,0.0,0.0,0.0,0.0
1776451854991639823,71025,0.092,0.4,0.0,1.7,0.18,0.0,1.94,-1.75,2.13,0.29,0.06,-0.41,0.31,-0.25,0.06,161.55,196.0,0.0,0.0,0.0,0.0
1776451855094023944,71124,0.088,0.0,0.0,0.2,0.08,-0.1,1.94,-1.75,2.19,0.05,0.03,-0.36,0.88,-0.19,0.0,165.84,196.0,0.0,0.0,0.0,0.0
1776451855192285486,71225,0.0,1.3,0.0,1.1,-0.02,-0.1,1.94,-1.75,2.19,0.17,0.06,-0.37,0.5,-0.37,0.0,165.67,196.0,0.0,0.0,0.0,0.0
1776451855294674528,71325,0.0,0.9,0.064,0.1,-0.02,-0.08,1.94,-1.75,2.25,0.03,0.05,-0.32,0.12,-0.37,-0.25,165.15,188.0,0.0,0.0,0.0,0.0
1776451855392877918,71426,0.0,0.1,0.0,1.4,0.08,-0.08,1.94,-1.69,2.25,0.08,0.09,-0.32,0.5,-0.44,-0.31,165.15,188.0,0.0,0.0,0.0,0.0
1776451855495300988,71526,0.088,0.3,0.0,0.3,0.0,-0.04,1.94,-1.63,2.19,0.17,0.07,-0.34,0.75,-0.44,0.06,165.15,189.0,0.0,0.0,0.0,0.0
1776451855593610444,71625,0.0,1.4,0.064,0.5,0.16,-0.1,1.94,-1.63,2.06,0.29,0.03,-0.41,-0.06,-0.56,0.19,165.15,199.0,0.0,0.0,0.0,0.0
1776451855701934206,71725,0.0,1.4,0.092,0.1,0.14,-0.06,1.94,-1.63,2.19,-0.18,0.03,-0.25,1.31,-0.25,-0.63,165.15,199.0,0.0,0.0,0.0,0.0
1776451855794244273,71825,0.088,0.2,0.0,1.0,-0.02,-0.08,1.88,-1.56,2.13,0.11,0.14,-0.39,0.56,-0.75,-1.0,165.15,194.0,0.0,0.0,0.0,0.0
1776451855892526421,71924,0.084,0.1,0.0,1.2,0.14,-0.06,1.75,-1.5,2.19,0.15,0.03,-0.36,-1.63,-0.37,-0.5,161.04,194.0,0.0,0.0,0.0,0.0
1776451855994901466,72025,0.088,0.3,0.0,1.3,0.0,-0.02,1.75,-1.44,2.13,0.02,0.08,-0.34,0.56,-0.06,-0.25,165.15,188.0,0.0,0.0,0.0,0.0
1776451856093162687,72125,0.0,0.3,0.0,1.7,0.02,-0.18,1.75,-1.44,2.19,-0.23,0.04,-0.37,1.19,0.12,-0.06,166.18,199.0,0.0,0.0,0.0,0.0
1776451856195526735,72225,0.088,0.1,0.0,1.4,-0.04,-0.12,1.75,-1.44,2.25,-0.03,0.06,-0.33,0.06,-0.63,-0.81,161.04,199.0,0.0,0.0,0.0,0.0
1776451856293808585,72325,0.076,0.2,0.0,1.4,0.0,-0.16,1.63,-1.44,2.25,0.22,0.07,-0.32,-0.25,-0.31,-1.37,165.15,204.0,0.0,0.0,0.0,0.0
1776451856392011936,72425,0.088,0.2,0.0,1.3,0.12,-0.02,1.5,-1.37,2.13,0.11,0.05,-0.34,0.31,-0.06,-1.37,164.98,184.0,0.0,0.0,0.0,0.0
1776451856494424751,72524,0.0,0.1,0.0,1.1,0.16,0.04,1.37,-1.37,2.06,0.25,0.06,-0.34,-0.37,-0.25,-1.19,165.67,184.0,0.0,0.0,0.0,0.0
1776451856592742796,72624,0.0,0.6,0.0,1.4,0.1,-0.02,1.25,-1.37,1.94,0.19,0.1,-0.3,0.63,0.31,-1.12,165.15,196.0,0.0,0.0,0.0,0.0
1776451856690945165,72724,0.088,0.0,0.0,0.5,0.16,-0.12,1.12,-1.31,1.88,0.19,0.06,-0.39,0.19,-0.0,-1.12,163.95,210.0,0.0,0.0,0.0,0.0
1776451856793386047,72823,0.0,1.5,0.064,0.2,0.06,-0.08,1.0,-1.31,1.75,0.33,-0.0,-0.36,-0.56,-0.25,-1.25,161.55,210.0,0.0,0.0,0.0,0.0
1776451856891677580,72923,0.088,0.2,0.0,1.2,0.16,-0.04,0.94,-1.31,1.69,0.04,0.12,-0.34,1.69,0.44,-0.69,165.84,200.0,0.0,0.0,0.0,0.0
1776451856994039184,73023,0.0,0.8,0.068,0.3,0.08,-0.1,0.94,-1.31,1.69,0.18,0.03,-0.32,-0.25,-0.19,-0.12,161.72,200.0,0.0,0.0,0.0,0.0
1776451857092314164,73123,0.0,0.3,0.0,0.2,0.06,-0.18,0.94,-1.31,1.88,-0.27,0.08,-0.27,1.37,1.0,-0.06,165.84,197.0,0.0,0.0,0.0,0.0
1776451857194692971,73224,0.0,0.8,0.0,1.3,0.25,-0.08,0.94,-1.37,1.88,0.15,-0.02,-0.31,-0.69,-0.12,0.69,166.36,202.0,0.0,0.0,0.0,0.0
1776451857292937146,73325,0.0,0.1,0.0,1.4,0.08,-0.04,0.94,-1.37,2.0,-0.06,0.05,-0.32,0.25,0.63,0.56,167.38,202.0,0.0,0.0,0.0,0.0
1776451857395310750,73425,0.0,0.9,0.056,0.2,-0.02,-0.1,1.06,-1.37,1.88,0.25,0.06,-0.35,0.69,-0.06,1.06,166.36,201.0,0.0,0.0,0.0,0.0
1776451857493606006,73525,0.0,1.2,0.0,1.4,0.12,0.02,1.12,-1.37,1.88,0.26,0.05,-0.31,-0.06,0.69,1.44,166.36,186.0,0.0,0.0,0.0,0.0
1776451857595988220,73625,0.088,0.3,0.0,1.6,0.12,0.0,1.31,-1.37,1.75,0.31,0.03,-0.29,-0.37,0.25,2.25,171.16,186.0,0.0,0.0,0.0,0.0
1776451857694263221,73724,0.092,0.2,0.0,1.1,0.18,-0.14,1.63,-1.37,1.56,0.35,0.09,-0.39,-0.0,1.06,3.06,166.87,183.0,0.0,0.0,0.0,0.0
1776451857792499768,73824,0.0,1.2,0.08,0.5,0.2,-0.18,1.88,-1.5,1.69,-0.11,-0.03,-0.31,1.37,1.81,2.5,166.36,201.0,0.0,0.0,0.0,0.0
1776451857894901847,73924,0.0,1.2,0.092,0.3,0.02,0.1,2.13,-1.63,1.69,0.03,-0.01,-0.34,1.12,1.06,1.69,166.36,201.0,0.0,0.0,0.0,0.0
1776451857993194974,74023,0.0,1.2,0.0,1.3,0.04,-0.1,2.19,-1.69,1.81,-0.02,-0.0,-0.35,1.37,0.75,0.81,166.36,213.0,0.0,0.0,0.0,0.0
1776451858095566527,74123,0.096,-0.1,0.0,1.2,0.0,0.12,2.25,-1.75,2.06,-0.06,-0.02,-0.33,0.94,0.37,0.88,167.38,213.0,0.0,0.0,0.0,0.0
1776451858193840052,74224,0.088,0.0,0.0,0.3,0.02,-0.06,2.38,-1.75,2.13,0.08,-0.0,-0.38,0.75,0.19,0.69,166.36,199.0,0.0,0.0,0.0,0.0
1776451858292089175,74324,0.0,0.8,0.084,0.2,0.2,-0.02,2.38,-1.75,2.19,0.22,-0.01,-0.34,0.81,0.37,0.88,165.67,201.0,0.0,0.0,0.0,0.0
1776451858394460267,74424,0.0,1.0,0.084,0.6,0.06,-0.14,2.5,-1.75,2.31,0.11,-0.04,-0.33,2.06,-0.06,0.81,165.67,201.0,0.0,0.0,0.0,0.0
1776451858496822880,74525,0.0,0.7,0.0,0.4,0.16,0.0,2.56,-1.75,2.56,0.01,-0.04,-0.35,1.75,-0.63,0.44,165.84,196.0,0.0,0.0,0.0,0.0
1776451858595144153,74625,0.0,1.2,0.088,0.3,0.1,-0.18,2.56,-1.69,2.75,0.08,-0.02,-0.28,1.37,-0.88,0.0,161.55,210.0,0.0,0.0,0.0,0.0
1776451858697512468,74725,0.0,0.2,0.0,1.0,0.02,-0.08,2.5,-1.63,2.75,0.22,-0.02,-0.39,2.19,-0.94,-0.06,166.36,210.0,0.0,0.0,0.0,0.0
1776451858795788381,74825,0.1,0.3,0.0,1.2,0.0,-0.12,2.5,-1.56,3.06,-0.03,-0.0,-0.33,3.06,-0.5,0.37,166.36,194.0,0.0,0.0,0.0,0.0
1776451858904125348,74925,0.092,0.4,0.0,0.4,0.02,-0.18,2.5,-1.56,3.25,-0.04,0.01,-0.34,2.5,0.06,0.25,166.36,206.0,0.0,0.0,0.0,0.0
1776451858996439218,75026,0.0,0.2,0.084,0.0,0.04,0.06,2.5,-1.56,3.5,-0.06,-0.05,-0.38,1.31,0.25,0.0,166.36,206.0,0.0,0.0,0.0,0.0
1776451859094741855,75126,0.0,0.9,0.092,0.1,0.2,-0.12,2.5,-1.56,3.56,0.08,-0.0,-0.37,-0.06,-0.25,-0.56,166.36,181.0,0.0,0.0,0.0,0.0
1776451859197107717,75226,0.0,0.0,0.088,0.5,0.06,0.0,2.5,-1.56,3.69,0.0,-0.02,-0.32,0.37,0.31,-0.81,165.84,181.0,0.0,0.0,0.0,0.0
1776451859295380139,75326,0.0,1.2,0.096,0.5,-0.06,0.06,2.44,-1.63,3.63,0.32,-0.03,-0.33,-0.75,-0.5,-0.75,165.67,195.0,0.0,0.0,0.0,0.0
1776451859393599833,75425,0.0,1.4,0.08,0.5,0.08,-0.12,2.38,-1.56,3.5,0.14,0.12,-0.39,1.94,0.63,0.19,165.67,189.0,0.0,0.0,0.0,0.0
1776451859496008370,75525,0.0,1.1,0.084,0.4,0.1,-0.1,2.44,-1.69,3.63,0.0,-0.08,-0.36,0.19,0.94,0.63,165.67,189.0,0.0,0.0,0.0,0.0
1776451859594311749,75625,0.0,0.2,0.0,1.2,0.08,-0.08,2.44,-1.75,3.63,0.3,-0.08,-0.38,-1.75,-0.44,0.19,166.87,193.0,0.0,0.0,0.0,0.0
1776451859696689922,75725,0.096,0.3,0.0,1.0,0.06,0.02,2.44,-1.75,3.69,-0.19,0.03,-0.27,1.75,1.0,-0.88,165.67,196.0,0.0,0.0,0.0,0.0
1776451859794937295,75825,0.096,0.1,0.0,0.5,0.12,-0.18,2.31,-1.88,3.75,0.1,-0.1,-0.33,-0.12,-0.06,-0.69,166.36,196.0,0.0,0.0,0.0,0.0
1776451859897323985,75926,0.0,0.2,0.0,0.5,0.0,-0.04,2.25,-1.88,3.75,0.12,0.01,-0.31,0.31,-0.06,-0.56,166.36,204.0,0.0,0.0,0.0,0.0
1776451859995563174,76026,0.0,1.4,0.0,1.1,0.08,-0.1,2.25,-1.88,3.69,0.15,-0.02,-0.31,0.31,0.37,-0.5,166.36,194.0,0.0,0.0,0.0,0.0
1776451860097982685,76127,0.088,0.3,0.0,0.2,0.08,-0.06,2.19,-1.88,3.63,0.24,-0.01,-0.32,0.19,-0.0,-1.06,171.16,194.0,0.0,0.0,0.0,0.0
1776451860196261545,76227,0.0,0.9,0.084,0.5,0.02,-0.14,2.19,-1.88,3.5,0.36,-0.06,-0.34,-0.69,-0.06,-0.56,167.04,205.0,0.0,0.0,0.0,0.0
1776451860298635232,76326,0.0,1.4,0.0,1.1,0.2,0.0,2.06,-1.88,3.38,0.15,0.02,-0.36,-0.0,0.37,-0.69,166.87,186.0,0.0,0.0,0.0,0.0
1776451860396829537,76427,0.096,0.3,0.0,1.0,0.12,-0.16,2.06,-1.94,3.38,0.09,-0.05,-0.3,-0.37,0.44,-0.5,167.38,186.0,0.0,0.0,0.0,0.0
1776451860499276986,76528,0.0,0.1,0.0,1.6,-0.02,0.0,2.0,-2.0,3.38,-0.15,0.07,-0.34,1.63,1.0,-0.5,166.36,201.0,0.0,0.0,0.0,0.0
1776451860597636679,76627,0.092,0.3,0.0,1.5,0.04,-0.08,2.0,-2.06,3.44,0.15,-0.06,-0.28,-0.44,-0.31,-0.19,167.04,201.0,0.0,0.0,0.0,0.0
1776451860699946214,76727,0.0,1.3,0.072,0.6,0.0,-0.21,1.94,-2.06,3.38,0.17,-0.0,-0.34,-0.63,0.25,-0.94,166.87,197.0,0.0,0.0,0.0,0.0
1776451860798217909,76828,0.0,1.4,0.064,0.1,0.06,-0.02,1.88,-2.06,3.19,0.37,0.08,-0.29,0.5,0.06,-1.06,166.87,208.0,0.0,0.0,0.0,0.0
1776451860900606556,76928,0.0,1.4,0.088,0.3,0.18,-0.08,1.69,-2.13,3.13,0.16,-0.06,-0.31,-0.63,0.81,-1.81,167.04,208.0,0.0,0.0,0.0,0.0
1776451860998864236,77028,0.088,0.3,0.088,0.5,0.14,-0.12,1.5,-2.25,3.19,0.0,-0.03,-0.33,-0.56,1.06,-2.63,166.87,203.0,0.0,0.0,0.0,0.0
1776451861101246847,77128,0.0,0.7,0.056,0.3,0.1,-0.1,1.25,-2.31,3.0,0.55,0.04,-0.3,-0.94,-0.44,-2.69,167.04,201.0,0.0,0.0,0.0,0.0
1776451861199578472,77229,0.0,1.0,0.0,1.5,0.06,-0.08,0.94,-2.44,2.88,0.21,0.02,-0.33,-1.69,1.88,-3.25,171.16,201.0,0.0,0.0,0.0,0.0
1776451861301965396,77329,0.0,1.4,0.0,1.0,0.06,-0.08,0.56,-2.63,2.75,0.02,0.03,-0.35,0.69,2.31,-3.38,166.36,193.0,0.0,0.0,0.0,0.0
1776451861400173030,77429,0.108,0.0,0.0,1.3,-0.04,-0.1,0.31,-2.81,2.81,0.04,-0.15,-0.32,-2.56,1.25,-2.75,166.87,193.0,0.0,0.0,0.0,0.0
1776451861502538180,77529,0.104,-0.1,0.0,1.1,0.08,0.02,-0.0,-2.88,2.56,0.28,-0.01,-0.37,-0.0,0.12,-3.25,166.87,197.0,0.0,0.0,0.0,0.0
1776451861600844274,77630,0.092,0.1,0.0,1.2,0.04,-0.06,-0.31,-2.94,2.38,0.18,0.06,-0.41,0.5,0.69,-3.25,166.87,207.0,0.0,0.0,0.0,0.0
1776451861699064091,77729,0.088,0.0,0.0,1.1,0.06,-0.08,-0.69,-3.06,2.5,-0.23,-0.07,-0.38,-0.19,1.19,-4.31,167.04,207.0,0.0,0.0,0.0,0.0
1776451861801530423,77829,0.0,0.8,0.04,0.1,0.06,-0.04,-1.12,-3.19,2.5,-0.08,-0.07,-0.41,0.25,0.06,-5.63,166.87,200.0,0.0,0.0,0.0,0.0
1776451861899755997,77929,0.0,1.3,0.08,0.3,0.02,-0.02,-1.69,-3.25,2.69,-0.51,-0.04,-0.32,2.31,0.63,-4.25,166.36,195.0,0.0,0.0,0.0,0.0
1776451862002127054,78029,0.092,-0.1,0.0,1.2,0.02,-0.23,-2.06,-3.25,2.63,0.38,-0.09,-0.36,-1.75,-0.56,-4.75,167.04,195.0,0.0,0.0,0.0,0.0
1776451862100407958,78129,0.092,0.1,0.0,1.3,0.06,-0.06,-2.5,-3.31,2.75,-0.04,-0.0,-0.31,-0.25,-0.69,-4.13,166.87,188.0,0.0,0.0,0.0,0.0
1776451862202786109,78229,0.0,0.7,0.056,0.1,-0.02,0.04,-2.94,-3.31,2.63,0.2,-0.06,-0.34,1.63,-0.12,-4.69,166.36,185.0,0.0,0.0,0.0,0.0
1776451862301055901,78329,0.0,0.6,0.0,0.1,-0.08,-0.04,-3.44,-3.31,2.69,0.1,-0.0,-0.33,0.63,-0.25,-4.56,166.36,185.0,0.0,0.0,0.0,0.0
1776451862399277128,78429,0.0,0.1,0.0,1.0,0.0,-0.16,-3.94,-3.38,2.5,0.31,0.02,-0.34,0.37,-0.56,-5.69,166.36,202.0,0.0,0.0,0.0,0.0
1776451862501705435,78529,0.0,0.1,0.0,1.5,0.1,-0.04,-4.5,-3.38,2.38,0.26,0.01,-0.36,0.56,-0.56,-6.25,167.38,216.0,0.0,0.0,0.0,0.0
1776451862599996611,78629,0.096,1.3,0.072,0.5,0.12,-0.06,-5.06,-3.38,2.5,0.03,-0.0,-0.34,-0.19,-0.69,-5.06,166.36,216.0,0.0,0.0,0.0,0.0
1776451862702363746,78729,0.0,1.1,0.068,0.3,0.14,-0.14,-5.56,-3.38,2.38,0.23,0.01,-0.39,0.75,-0.69,-5.5,165.84,200.0,0.0,0.0,0.0,0.0
1776451862800657310,78830,0.088,0.5,0.068,0.4,0.0,0.02,-6.06,-3.31,2.44,0.13,0.04,-0.33,0.81,-0.75,-4.69,165.84,200.0,0.0,0.0,0.0,0.0
1776451862909006161,78929,0.0,0.9,0.068,0.6,0.21,-0.1,-6.44,-3.25,2.5,0.15,0.04,-0.33,0.88,-0.75,-3.44,165.84,186.0,0.0,0.0,0.0,0.0
1776451863001305067,79029,0.0,0.7,0.068,0.5,-0.1,-0.14,-6.81,-3.25,2.5,0.24,0.04,-0.33,0.69,-0.5,-3.31,165.67,199.0,0.0,0.0,0.0,0.0
1776451863099588073,79129,0.0,0.9,0.064,0.5,0.08,-0.18,-7.13,-3.25,2.5,0.25,0.04,-0.36,0.88,-0.44,-3.19,166.36,199.0,0.0,0.0,0.0,0.0
1776451863201954068,79228,0.0,0.0,0.068,0.9,0.1,-0.14,-7.44,-3.19,2.56,0.23,0.02,-0.33,0.31,-0.75,-3.63,166.36,196.0,0.0,0.0,0.0,0.0
1776451863300215649,79328,0.088,0.5,0.056,0.2,-0.02,-0.2,-7.88,-3.13,2.25,0.42,0.1,-0.36,1.63,-1.06,-4.69,166.36,200.0,0.0,0.0,0.0,0.0
1776451863398450069,79428,0.0,1.0,0.06,1.3,0.16,0.12,-8.31,-3.0,2.19,0.35,0.04,-0.33,0.75,-0.94,-4.69,166.36,200.0,0.0,0.0,0.0,0.0
1776451863500872552,79527,0.092,0.1,0.064,0.5,0.16,-0.08,-8.75,-2.94,2.13,0.24,0.03,-0.39,2.31,-0.81,-3.81,165.84,179.0,0.0,0.0,0.0,0.0
1776451863599186177,79627,0.0,1.3,0.0,1.2,0.02,0.06,-9.06,-2.81,2.25,0.1,0.05,-0.43,1.81,-1.19,-3.06,165.84,179.0,0.0,0.0,0.0,0.0
1776451863701579981,79727,0.088,0.4,0.064,0.4,0.02,0.06,-9.31,-2.75,2.5,-0.12,0.04,-0.39,1.94,-0.81,-2.5,165.67,192.0,0.0,0.0,0.0,0.0
1776451863833624545,79827,0.0,0.2,0.0,1.6,0.02,0.06,-9.56,-2.69,2.63,0.03,0.01,-0.38,0.63,-0.69,-1.94,165.67,194.0,0.0,0.0,0.0,0.0
1776451863898079852,79927,0.1,0.3,0.0,1.4,-0.08,-0.08,-9.75,-2.63,2.63,0.13,0.07,-0.38,1.0,-0.5,-1.88,165.67,194.0,0.0,0.0,0.0,0.0
1776451864000489689,80027,0.0,1.1,0.068,0.5,-0.02,-0.02,-9.94,-2.63,2.69,0.17,0.02,-0.35,0.94,0.12,-2.19,165.67,195.0,0.0,0.0,0.0,0.0
1776451864098757235,80126,0.0,1.2,0.064,0.4,0.08,-0.14,-10.13,-2.63,2.69,0.12,0.06,-0.38,1.63,0.56,-2.63,166.87,201.0,0.0,0.0,0.0,0.0
1776451864201143240,80227,0.0,1.4,0.0,1.2,0.16,0.02,-10.38,-2.69,2.88,0.0,-0.0,-0.32,1.56,0.37,-1.63,165.15,201.0,0.0,0.0,0.0,0.0
1776451864299383341,80327,0.084,0.3,0.0,1.3,0.06,-0.04,-10.5,-2.69,2.88,0.29,0.07,-0.37,0.06,-0.25,-1.19,166.18,204.0,0.0,0.0,0.0,0.0
1776451864401776085,80428,0.0,0.9,0.0,1.5,0.1,0.04,-10.56,-2.69,2.88,0.2,0.04,-0.34,0.81,0.81,-0.44,165.15,180.0,0.0,0.0,0.0,0.0
1776451864500046273,80528,0.096,0.4,0.0,0.4,0.02,-0.14,-10.56,-2.75,2.75,0.32,0.05,-0.4,0.75,0.31,0.56,165.15,180.0,0.0,0.0,0.0,0.0
1776451864602461253,80628,0.0,1.0,0.0,1.5,-0.04,-0.04,-10.5,-2.81,2.88,-0.05,-0.05,-0.34,0.12,0.19,1.06,165.15,202.0,0.0,0.0,0.0,0.0
1776451864700694874,80729,0.088,0.1,0.0,1.4,0.14,0.02,-10.38,-2.81,3.0,-0.16,0.01,-0.36,1.06,-0.5,0.69,165.15,204.0,0.0,0.0,0.0,0.0
1776451864803119889,80829,0.088,0.2,0.0,1.6,0.02,-0.12,-10.38,-2.75,3.0,0.12,-0.0,-0.36,-1.88,-0.63,-1.0,165.15,204.0,0.0,0.0,0.0,0.0
1776451864901393447,80929,0.088,0.3,0.0,1.5,0.14,-0.04,-10.5,-2.75,2.94,-0.18,0.03,-0.34,0.88,-0.44,-1.25,166.18,222.0,0.0,0.0,0.0,0.0
1776451865003759400,81030,0.088,0.2,0.0,1.1,0.06,-0.08,-10.63,-2.69,2.94,0.02,-0.01,-0.33,-0.81,-1.25,-1.44,165.84,222.0,0.0,0.0,0.0,0.0
1776451865102052377,81130,0.0,1.1,0.088,0.3,-0.04,0.04,-10.75,-2.56,2.88,0.04,0.03,-0.35,0.37,-0.75,-1.56,165.67,204.0,0.0,0.0,0.0,0.0
1776451865204431458,81229,0.0,1.2,0.08,0.3,0.04,-0.04,-10.94,-2.5,2.88,-0.03,0.01,-0.39,0.88,-0.63,-2.13,169.44,197.0,0.0,0.0,0.0,0.0
1776451865302710981,81329,0.0,1.0,0.0,1.1,0.14,0.08,-11.19,-2.5,2.81,0.25,-0.0,-0.37,-1.31,-0.94,-3.38,165.67,197.0,0.0,0.0,0.0,0.0
1776451865400927332,81429,0.084,0.1,0.0,1.3,0.1,-0.12,-11.5,-2.44,2.81,-0.01,0.04,-0.35,0.37,-0.81,-2.81,165.84,198.0,0.0,0.0,0.0,0.0
1776451865503337648,81529,0.088,0.3,0.0,1.4,0.04,-0.04,-11.75,-2.38,2.81,0.04,0.02,-0.38,0.44,-0.37,-2.44,165.84,192.0,0.0,0.0,0.0,0.0
1776451865605749445,81630,0.0,1.0,0.06,0.5,0.18,-0.08,-12.06,-2.38,2.69,0.32,0.02,-0.41,-0.37,-0.63,-3.06,165.67,192.0,0.0,0.0,0.0,0.0
1776451865741622533,81731,0.0,1.0,0.068,0.5,0.02,-0.1,-12.38,-2.31,2.56,0.34,0.06,-0.37,-0.81,-0.88,-4.38,166.36,210.0,0.0,0.0,0.0,0.0
1776451865925618922,81830,0.0,0.8,0.06,0.1,0.04,0.0,-12.81,-2.25,2.5,0.04,0.05,-0.37,0.25,-0.63,-3.75,162.07,190.0,0.0,0.0,0.0,0.0
1776451865937648076,81931,0.0,0.9,0.0,1.2,0.08,-0.12,-13.13,-2.25,2.44,0.19,0.03,-0.31,-1.63,-0.5,-2.94,166.36,190.0,0.0,0.0,0.0,0.0
1776451866013016485,82031,0.0,1.3,0.072,0.2,0.1,-0.14,-13.38,-2.31,2.31,0.21,0.01,-0.35,0.44,-0.5,-2.69,166.87,215.0,0.0,0.0,0.0,0.0
1776451866105297047,82131,0.0,0.3,0.0,1.3,0.06,0.12,-13.63,-2.25,2.31,-0.02,-0.0,-0.36,0.5,-0.88,-2.44,165.84,215.0,0.0,0.0,0.0,0.0
1776451866207712684,82232,0.084,0.2,0.0,1.2,0.2,-0.12,-13.88,-2.19,2.25,0.1,-0.0,-0.32,0.12,-0.81,-2.19,166.87,191.0,0.0,0.0,0.0,0.0
1776451866305992588,82333,0.096,0.0,0.0,1.0,-0.02,-0.08,-14.13,-2.06,1.94,0.58,0.04,-0.34,-0.25,-1.19,-3.0,166.36,195.0,0.0,0.0,0.0,0.0
1776451866408334406,82433,0.0,0.4,0.0,1.4,0.04,-0.18,-14.44,-1.94,1.69,0.21,0.06,-0.3,0.06,-0.75,-2.63,166.36,195.0,0.0,0.0,0.0,0.0
1776451866506603258,82533,0.092,0.1,0.0,1.3,0.0,-0.14,-14.63,-1.88,1.63,0.09,0.06,-0.33,1.0,-0.63,-1.5,166.87,181.0,0.0,0.0,0.0,0.0
1776451866609023579,82633,0.092,0.1,0.0,1.5,0.16,-0.12,-14.75,-1.81,1.5,0.21,0.07,-0.3,0.69,-0.81,-1.0,166.87,195.0,0.0,0.0,0.0,0.0
1776451866707306797,82734,0.0,1.3,0.068,0.5,0.08,-0.06,-14.88,-1.81,1.5,0.02,-0.0,-0.33,-1.19,-0.56,-0.81,162.75,195.0,0.0,0.0,0.0,0.0
1776451866809671611,82834,0.0,1.4,0.0,1.0,0.08,-0.02,-14.88,-1.81,1.44,0.0,0.08,-0.36,-0.0,-0.44,-0.12,167.04,201.0,0.0,0.0,0.0,0.0
1776451866907968457,82934,0.0,0.7,0.0,1.4,0.02,0.02,-14.88,-1.75,1.44,-0.14,0.07,-0.37,0.44,-0.25,0.56,167.04,206.0,0.0,0.0,0.0,0.0
1776451867010334973,83034,0.0,0.1,0.0,0.9,0.08,-0.04,-14.88,-1.75,1.5,-0.01,0.06,-0.34,-0.69,-0.0,0.37,166.87,206.0,0.0,0.0,0.0,0.0
1776451867108617135,83134,0.088,0.0,0.068,0.5,0.0,-0.12,-14.81,-1.75,1.44,0.0,0.11,-0.37,1.5,0.25,0.88,166.87,200.0,0.0,0.0,0.0,0.0
1776451867206889634,83234,0.0,1.0,0.068,0.3,-0.02,0.08,-14.81,-1.75,1.44,0.28,-0.03,-0.33,-1.94,-0.25,0.12,171.16,205.0,0.0,0.0,0.0,0.0
1776451867309232706,83334,0.0,0.9,0.088,0.3,0.1,-0.1,-14.81,-1.75,1.5,-0.37,0.15,-0.26,3.63,2.06,-0.44,166.87,205.0,0.0,0.0,0.0,0.0
1776451867407522683,83434,0.088,0.2,0.0,0.5,-0.08,-0.2,-14.81,-1.81,1.44,0.26,-0.02,-0.32,-1.12,-0.63,0.12,167.04,215.0,0.0,0.0,0.0,0.0
1776451867509930039,83534,0.0,1.2,0.072,0.2,0.08,0.0,-14.81,-1.81,1.37,0.16,0.06,-0.31,-0.06,0.56,-0.06,167.04,215.0,0.0,0.0,0.0,0.0
1776451867608228069,83634,0.0,1.2,0.0,1.3,0.06,-0.08,-14.81,-1.94,1.44,-0.08,0.04,-0.35,0.19,1.81,0.31,167.04,206.0,0.0,0.0,0.0,0.0
1776451867706466241,83734,0.0,0.7,0.0,1.3,0.08,-0.16,-14.75,-2.0,1.37,0.12,-0.0,-0.41,-1.06,0.44,0.56,167.04,206.0,0.0,0.0,0.0,0.0
1776451867973620975,83833,0.0,1.3,0.088,0.1,0.08,-0.04,-14.75,-2.0,1.31,0.21,-0.0,-0.37,-1.25,0.37,-0.06,170.47,206.0,0.0,0.0,0.0,0.0
1776451868009568667,83934,0.0,0.0,0.0,1.2,-0.02,0.0,-14.75,-2.0,1.25,0.05,0.04,-0.37,0.75,0.56,-0.69,166.36,206.0,0.0,0.0,0.0,0.0
1776451868022195521,84034,0.08,-0.1,0.0,1.0,0.08,-0.04,-14.88,-2.13,1.37,-0.14,-0.01,-0.29,1.12,1.44,-1.25,167.38,191.0,0.0,0.0,0.0,0.0
1776451868107804623,84134,0.0,0.7,0.076,0.3,0.12,0.04,-15.0,-2.19,1.37,0.14,-0.0,-0.37,-0.0,-0.31,-1.31,166.36,191.0,0.0,0.0,0.0,0.0
1776451868210190709,84234,0.0,0.9,0.072,0.6,-0.02,-0.02,-15.13,-2.25,1.37,0.0,-0.0,-0.34,0.12,0.75,-1.37,162.24,200.0,0.0,0.0,0.0,0.0
1776451868308473768,84335,0.0,0.1,0.0,1.6,-0.02,0.0,-15.25,-2.25,1.44,-0.13,-0.0,-0.37,1.56,0.75,-0.94,166.36,200.0,0.0,0.0,0.0,0.0
1776451868410803402,84434,0.0,1.1,0.0,0.4,0.02,-0.08,-15.31,-2.31,1.5,0.06,-0.11,-0.3,-0.37,0.06,-1.31,166.36,202.0,0.0,0.0,0.0,0.0
1776451868509123490,84534,0.0,0.3,0.06,0.3,0.12,-0.08,-15.56,-2.25,1.37,0.37,0.15,-0.31,1.5,-0.63,-2.75,165.67,195.0,0.0,0.0,0.0,0.0
1776451868607413066,84634,0.0,1.1,0.096,1.1,-0.16,-0.12,-15.81,-2.19,1.31,0.33,-0.03,-0.3,0.19,0.19,-3.31,165.84,195.0,0.0,0.0,0.0,0.0
1776451868709783507,84733,0.0,1.0,0.064,0.3,-0.04,-0.04,-16.19,-2.25,0.88,0.29,0.07,-0.4,1.94,-0.06,-4.69,165.67,189.0,0.0,0.0,0.0,0.0
1776451868808036127,84834,0.0,0.7,0.076,0.3,0.16,0.0,-16.69,-2.25,1.0,-0.06,-0.0,-0.34,1.56,1.0,-4.13,161.55,203.0,0.0,0.0,0.0,0.0
1776451868910454966,84934,0.0,0.9,0.084,0.1,-0.02,-0.06,-17.0,-2.31,1.06,-0.07,-0.02,-0.36,0.63,0.25,-2.5,165.84,203.0,0.0,0.0,0.0,0.0
1776451869008716446,85033,0.0,0.9,0.076,0.4,0.08,-0.06,-17.25,-2.38,1.06,0.03,0.03,-0.41,0.81,0.06,-1.94,165.84,192.0,0.0,0.0,0.0,0.0
1776451869111116262,85133,0.0,0.9,0.084,0.1,-0.06,-0.02,-17.37,-2.38,1.12,0.1,-0.05,-0.33,-1.06,-0.19,-1.44,166.36,199.0,0.0,0.0,0.0,0.0
1776451869209381839,85234,0.0,1.0,0.08,0.3,0.14,-0.06,-17.56,-2.38,1.0,0.15,0.02,-0.38,1.0,-0.06,-1.81,165.84,199.0,0.0,0.0,0.0,0.0
1776451869311849438,85334,0.0,0.1,0.08,0.2,0.08,-0.12,-17.75,-2.38,1.06,0.03,-0.03,-0.35,-0.12,-0.06,-2.38,165.84,201.0,0.0,0.0,0.0,0.0
1776451869410062025,85435,0.0,1.1,0.0,0.1,-0.06,-0.1,-18.06,-2.38,0.88,0.37,-0.0,-0.38,0.06,-0.56,-3.88,165.84,206.0,0.0,0.0,0.0,0.0
1776451869508288295,85534,0.096,0.2,0.088,0.0,0.18,-0.04,-18.5,-2.31,0.56,0.32,0.05,-0.43,1.63,-0.63,-4.13,165.84,206.0,0.0,0.0,0.0,0.0
1776451869610701274,85635,0.0,1.3,0.088,0.2,0.14,0.02,-18.87,-2.31,0.63,0.21,-0.03,-0.28,-2.94,-1.19,-4.19,165.67,195.0,0.0,0.0,0.0,0.0
1776451869708940523,85735,0.0,0.3,0.0,1.3,-0.04,0.02,-19.31,-2.25,0.69,-0.04,-0.0,-0.38,4.38,-0.5,-3.94,165.67,195.0,0.0,0.0,0.0,0.0
1776451869811360927,85835,0.0,-0.1,0.004,0.3,-0.12,-0.21,-19.62,-2.19,0.88,-0.05,-0.03,-0.36,-0.44,-1.12,-3.25,170.47,197.0,0.0,0.0,0.0,0.0
1776451870045631975,85936,0.0,0.1,0.0,1.1,0.06,0.04,-19.94,-2.06,0.88,-0.09,0.03,-0.44,2.94,-0.63,-2.56,166.87,194.0,0.0,0.0,0.0,0.0
1776451870110310264,86036,0.1,0.7,0.0,1.6,-0.04,-0.08,-20.12,-2.0,1.06,-0.02,0.01,-0.38,0.12,-1.06,-1.25,166.87,194.0,0.0,0.0,0.0,0.0
1776451870124132757,86135,0.0,1.5,0.092,0.6,0.16,-0.02,-20.19,-2.0,1.12,0.01,0.05,-0.38,0.69,-0.31,-0.44,166.36,209.0,0.0,0.0,0.0,0.0
1776451870212673789,86235,0.0,0.9,0.012,0.4,0.1,-0.1,-20.25,-2.0,1.19,0.02,0.01,-0.36,1.19,-0.44,0.44,167.04,194.0,0.0,0.0,0.0,0.0
1776451870310967995,86335,0.0,1.6,0.088,0.5,0.02,-0.08,-20.12,-2.0,1.25,0.14,0.03,-0.34,-0.63,-0.5,1.19,166.36,194.0,0.0,0.0,0.0,0.0
1776451870409203119,86434,0.0,1.4,0.092,0.2,0.06,-0.08,-20.0,-1.94,1.12,0.16,0.08,-0.36,1.75,-0.31,1.37,166.36,211.0,0.0,0.0,0.0,0.0
1776451870511587437,86534,0.0,1.3,0.0,1.2,0.2,0.0,-19.94,-1.94,1.19,0.13,0.04,-0.42,1.37,-0.44,1.06,166.36,194.0,0.0,0.0,0.0,0.0
1776451870609923302,86634,0.096,0.1,0.0,1.2,0.0,-0.08,-19.87,-1.88,1.25,0.1,0.02,-0.38,0.94,-0.69,-0.06,166.36,194.0,0.0,0.0,0.0,0.0
1776451870708187791,86733,0.096,0.2,0.0,0.4,0.04,-0.02,-19.94,-1.88,1.25,0.23,-0.0,-0.38,0.75,-0.44,-1.31,166.87,207.0,0.0,0.0,0.0,0.0
1776451870810557686,86833,0.0,0.9,0.084,0.3,0.12,-0.18,-20.12,-1.88,1.56,-0.15,0.05,-0.32,3.75,-0.0,-1.44,167.04,207.0,0.0,0.0,0.0,0.0
1776451870908842449,86933,0.0,1.0,0.0,1.5,0.14,-0.02,-20.19,-1.88,1.81,-0.16,-0.02,-0.31,1.06,0.06,-0.88,167.04,204.0,0.0,0.0,0.0,0.0
1776451871007133673,87032,0.096,0.0,0.0,1.5,0.04,-0.06,-20.25,-1.88,1.81,0.12,0.05,-0.37,0.75,-0.37,-0.31,166.87,198.0,0.0,0.0,0.0,0.0
1776451871109512907,87132,0.1,1.3,0.088,0.2,0.1,-0.06,-20.31,-1.88,2.0,-0.05,0.01,-0.3,1.81,-0.31,-1.31,166.87,198.0,0.0,0.0,0.0,0.0
1776451871207781983,87232,0.0,1.5,0.092,0.3,-0.06,0.12,-20.5,-1.88,2.06,-0.06,0.06,-0.38,1.94,-0.44,-2.75,166.87,195.0,0.0,0.0,0.0,0.0
1776451871306077109,87331,0.0,0.4,0.084,0.3,0.21,-0.02,-20.81,-1.81,2.13,0.02,0.06,-0.3,1.37,-0.5,-3.06,166.36,198.0,0.0,0.0,0.0,0.0
1776451871408414295,87431,0.0,1.0,0.064,0.5,0.0,-0.14,-21.12,-1.75,2.06,0.56,0.06,-0.29,-1.0,-1.37,-3.75,166.36,198.0,0.0,0.0,0.0,0.0
1776451871506727862,87531,0.0,0.6,0.052,0.3,0.08,-0.16,-21.5,-1.69,1.75,0.29,0.17,-0.34,2.19,-0.0,-3.81,167.04,192.0,0.0,0.0,0.0,0.0
1776451871605003029,87630,0.0,0.5,0.088,0.5,-0.06,-0.08,-21.81,-1.69,2.0,-0.12,0.04,-0.26,2.06,0.94,-2.56,166.36,203.0,0.0,0.0,0.0,0.0
1776451871707396094,87730,0.0,1.3,0.092,0.2,0.1,-0.12,-22.0,-1.69,2.0,0.13,-0.0,-0.28,-0.0,0.12,-1.25,166.87,203.0,0.0,0.0,0.0,0.0
1776451871805674409,87830,0.0,1.3,0.0,1.3,0.02,-0.2,-22.12,-1.69,1.81,0.4,-0.03,-0.31,-0.25,0.44,-1.81,167.04,193.0,0.0,0.0,0.0,0.0
1776451871903991753,87929,0.088,0.3,0.0,1.1,0.04,-0.2,-22.37,-1.75,1.75,-0.03,0.22,-0.33,2.75,2.06,-2.06,166.87,193.0,0.0,0.0,0.0,0.0
1776451872006349473,88029,0.0,0.7,0.088,0.3,0.08,-0.2,-22.5,-2.0,1.81,0.05,-0.1,-0.39,-0.75,1.63,-0.5,167.04,206.0,0.0,0.0,0.0,0.0
1776451872114701597,88130,0.0,0.7,0.0,1.5,0.06,-0.06,-22.5,-2.13,1.88,-0.13,0.13,-0.31,1.25,1.94,0.25,166.87,192.0,0.0,0.0,0.0,0.0
1776451872207005301,88229,0.088,0.3,0.0,0.3,0.2,-0.08,-22.5,-2.38,2.06,-0.19,-0.17,-0.36,-0.0,1.5,0.37,166.87,192.0,0.0,0.0,0.0,0.0
1776451872305294320,88329,0.0,1.3,0.08,0.3,0.04,0.06,-22.5,-2.44,2.19,-0.31,0.04,-0.28,0.56,0.19,-0.06,167.04,191.0,0.0,0.0,0.0,0.0
1776451872407621395,88430,0.0,1.3,0.084,0.3,0.27,-0.06,-22.5,-2.44,2.38,0.01,-0.06,-0.38,-1.25,-0.25,-0.44,166.87,190.0,0.0,0.0,0.0,0.0
1776451872505965145,88529,0.0,0.2,0.0,1.0,-0.02,-0.12,-22.5,-2.44,2.31,0.23,-0.01,-0.36,-1.31,-0.37,-0.88,171.16,190.0,0.0,0.0,0.0,0.0
1776451872608345580,88629,0.088,0.6,0.084,0.2,0.12,-0.06,-22.56,-2.38,2.19,0.27,0.19,-0.37,1.63,0.56,-1.19,171.16,202.0,0.0,0.0,0.0,0.0
1776451872706604420,88730,0.0,0.7,0.076,0.5,0.12,-0.1,-22.69,-2.5,2.13,0.6,-0.06,-0.33,-1.63,0.19,-0.19,166.53,189.0,0.0,0.0,0.0,0.0
1776451872808986799,88830,0.0,1.0,0.0,0.1,-0.12,-0.06,-22.69,-2.5,2.0,0.08,0.08,-0.36,1.75,2.38,-0.25,167.04,189.0,0.0,0.0,0.0,0.0
1776451872907252712,88931,0.0,1.3,0.088,0.3,0.1,-0.04,-22.62,-2.69,2.06,-0.06,-0.03,-0.36,0.06,1.31,0.63,171.16,180.0,0.0,0.0,0.0,0.0
1776451873009645812,89031,0.0,1.2,0.084,0.2,0.14,-0.14,-22.56,-2.75,2.06,0.02,0.03,-0.38,0.88,0.56,0.63,166.87,180.0,0.0,0.0,0.0,0.0
1776451873107955841,89131,0.088,0.2,0.0,0.2,0.0,0.0,-22.56,-2.81,2.06,0.03,-0.03,-0.36,0.06,0.88,0.63,167.04,214.0,0.0,0.0,0.0,0.0
1776451873206183180,89231,0.0,1.0,0.088,0.2,0.0,0.0,-22.5,-2.88,2.0,0.32,-0.0,-0.35,-0.94,0.12,0.56,166.87,181.0,0.0,0.0,0.0,0.0
1776451873308580711,89330,0.0,0.8,0.08,0.4,0.02,0.02,-22.5,-2.88,1.75,0.24,0.05,-0.32,0.88,1.19,0.12,166.87,181.0,0.0,0.0,0.0,0.0
1776451873406843730,89430,0.0,0.7,0.0,1.4,-0.06,-0.06,-22.5,-3.0,1.75,0.16,-0.0,-0.35,1.0,1.31,-0.37,166.36,201.0,0.0,0.0,0.0,0.0
1776451873509244630,89531,0.0,1.2,0.076,0.3,0.16,-0.08,-22.5,-3.13,1.75,0.2,0.06,-0.36,1.44,1.06,-0.63,166.36,201.0,0.0,0.0,0.0,0.0
1776451873607571101,89631,0.0,1.2,0.084,0.1,0.08,-0.16,-22.62,-3.25,1.94,-0.12,-0.01,-0.36,2.88,1.31,-1.25,166.36,201.0,0.0,0.0,0.0,0.0
1776451873709935452,89731,0.0,1.2,0.092,0.4,-0.02,-0.02,-22.75,-3.38,2.25,-0.24,-0.06,-0.36,1.44,1.0,-1.37,166.36,199.0,0.0,0.0,0.0,0.0
1776451873808194138,89831,0.0,1.4,0.084,0.3,0.06,0.08,-22.87,-3.44,2.31,0.06,-0.04,-0.38,-0.25,-0.12,-1.44,166.36,195.0,0.0,0.0,0.0,0.0
1776451873910576246,89931,0.0,1.2,0.068,0.3,-0.04,-0.14,-23.0,-3.44,2.25,0.22,0.01,-0.39,0.06,-0.19,-1.88,166.36,195.0,0.0,0.0,0.0,0.0
1776451874008836101,90031,0.08,0.1,0.0,1.1,0.02,0.02,-23.31,-3.5,2.13,0.21,-0.02,-0.39,0.69,-0.0,-3.81,165.67,209.0,0.0,0.0,0.0,0.0
1776451874111243515,90132,0.0,0.9,0.076,0.3,0.06,0.08,-23.75,-3.5,2.06,0.13,-0.0,-0.33,1.25,-0.5,-5.31,165.84,209.0,0.0,0.0,0.0,0.0
1776451874209526664,90232,0.0,0.8,0.088,0.3,-0.04,0.0,-24.31,-3.5,2.06,0.25,-0.0,-0.36,-0.06,-1.19,-5.19,161.55,203.0,0.0,0.0,0.0,0.0
1776451874311921877,90333,0.0,0.6,0.076,0.5,0.06,0.02,-24.75,-3.44,1.88,0.23,-0.0,-0.37,0.37,-0.88,-4.38,161.55,208.0,0.0,0.0,0.0,0.0
1776451874410149627,90433,0.0,0.9,0.076,0.3,0.0,-0.02,-25.12,-3.38,1.88,0.06,0.04,-0.32,0.81,-0.56,-3.25,165.84,208.0,0.0,0.0,0.0,0.0
1776451874508430387,90532,0.0,0.7,0.084,0.1,0.08,-0.12,-25.37,-3.38,1.88,0.0,0.01,-0.34,0.88,-0.31,-2.0,165.67,204.0,0.0,0.0,0.0,0.0
1776451874610813047,90632,0.0,0.7,0.08,0.2,-0.04,-0.02,-25.56,-3.38,1.94,0.1,-0.01,-0.37,-0.12,-0.31,-1.94,165.84,172.0,0.0,0.0,0.0,0.0
1776451874709083290,90733,0.0,0.8,0.08,0.5,0.14,-0.14,-25.75,-3.38,1.94,0.07,0.01,-0.37,0.12,-0.31,-1.63,165.67,172.0,0.0,0.0,0.0,0.0
1776451874811508720,90832,0.0,1.0,0.096,0.5,0.06,-0.1,-25.87,-3.38,2.0,-0.05,0.03,-0.37,1.81,0.31,-1.0,165.67,207.0,0.0,0.0,0.0,0.0
1776451874909758689,90933,0.1,1.4,0.096,0.3,0.1,0.0,-25.87,-3.38,2.06,0.06,-0.0,-0.35,-0.75,-0.5,-0.5,165.67,205.0,0.0,0.0,0.0,0.0
1776451875012164930,91033,0.0,0.2,0.0,1.0,-0.02,-0.06,-25.94,-3.38,2.0,0.21,0.02,-0.35,-0.63,-0.25,-0.56,165.67,205.0,0.0,0.0,0.0,0.0
1776451875110456423,91133,0.088,1.0,0.0,1.4,0.1,-0.18,-25.94,-3.38,1.88,0.2,-0.0,-0.29,-0.56,-0.37,-0.37,165.67,197.0,0.0,0.0,0.0,0.0
1776451875212884526,91233,0.088,0.4,0.0,1.0,0.0,-0.1,-25.94,-3.38,1.69,0.17,0.05,-0.33,1.31,-0.12,0.0,165.67,197.0,0.0,0.0,0.0,0.0
1776451875311121251,91334,0.092,0.6,0.088,0.5,0.04,-0.04,-25.94,-3.31,1.63,0.09,0.05,-0.37,1.0,-0.75,0.56,165.67,194.0,0.0,0.0,0.0,0.0
1776451875413453592,91433,0.0,0.3,0.0,0.3,0.14,-0.2,-25.94,-3.19,1.5,0.28,0.05,-0.32,-1.06,-1.19,0.37,162.24,226.0,0.0,0.0,0.0,0.0
1776451875511781672,91534,0.0,0.3,0.0,1.0,0.12,-0.02,-25.94,-3.06,1.25,0.17,0.08,-0.38,-0.19,-1.0,0.19,162.24,226.0,0.0,0.0,0.0,0.0
1776451875614151359,91634,0.088,0.2,0.084,0.1,0.18,-0.18,-25.87,-3.0,1.25,-0.11,0.01,-0.32,-0.25,-0.94,0.5,166.36,194.0,0.0,0.0,0.0,0.0
1776451875712436650,91734,0.0,0.7,0.06,0.3,0.0,-0.08,-25.87,-2.88,1.0,0.58,0.12,-0.35,-3.81,-2.13,-0.5,167.04,212.0,0.0,0.0,0.0,0.0
1776451875814879398,91834,0.0,0.4,0.0,0.2,-0.06,0.02,-25.87,-2.88,1.12,-0.22,0.03,-0.33,-0.19,-0.37,0.75,166.87,212.0,0.0,0.0,0.0,0.0
1776451875913108865,91934,0.0,1.5,0.092,0.1,-0.04,-0.1,-25.75,-2.88,1.25,-0.17,-0.03,-0.34,-0.81,-0.69,1.25,171.67,192.0,0.0,0.0,0.0,0.0
1776451876015484126,92035,0.0,1.2,0.076,0.2,0.04,-0.04,-25.62,-2.81,1.44,-0.32,0.03,-0.38,1.31,-0.31,0.88,167.56,208.0,0.0,0.0,0.0,0.0
1776451876113769903,92135,0.0,1.0,0.0,1.5,0.02,-0.04,-25.56,-2.81,1.69,-0.18,0.03,-0.36,-0.12,-0.5,0.56,167.56,208.0,0.0,0.0,0.0,0.0
1776451876216141716,92235,0.0,0.1,0.0,0.1,0.1,-0.18,-25.56,-2.81,1.75,0.0,0.06,-0.39,0.12,-0.25,0.44,167.9,198.0,0.0,0.0,0.0,0.0
1776451876314431659,92336,0.0,0.4,0.0,1.5,-0.06,0.02,-25.56,-2.81,1.69,0.43,0.03,-0.36,-2.0,-0.63,0.31,167.04,202.0,0.0,0.0,0.0,0.0
1776451876416832856,92436,0.0,1.4,0.06,0.5,-0.04,-0.06,-25.56,-2.75,1.56,0.15,0.11,-0.38,1.56,0.12,0.37,168.07,202.0,0.0,0.0,0.0,0.0
1776451876515097655,92537,0.0,1.3,0.0,0.3,0.12,-0.21,-25.56,-2.75,1.5,0.24,0.03,-0.37,-0.06,-0.06,0.63,166.87,191.0,0.0,0.0,0.0,0.0
1776451876617480966,92638,0.0,0.9,0.0,1.4,0.08,-0.12,-25.5,-2.75,1.5,0.13,0.03,-0.38,0.56,0.19,0.12,168.58,191.0,0.0,0.0,0.0,0.0
1776451876725826036,92739,0.092,0.2,0.0,1.5,0.1,-0.14,-25.56,-2.69,1.5,0.21,0.02,-0.39,-0.12,-0.31,-0.06,167.56,193.0,0.0,0.0,0.0,0.0
1776451876818138853,92838,0.084,0.3,0.0,1.3,0.04,0.04,-25.56,-2.69,1.5,0.29,0.05,-0.38,-0.31,-0.44,-0.25,171.67,205.0,0.0,0.0,0.0,0.0
